experiment,subject,uniqueID,block,trial,trial_cumulative,age,gender,color_cond_blocking,color_history,shape_type,set_size,distractor,rt,acc,target_orient,response_key,response_made,iti,target_color,target_item,distractor_item,target_X,target_Y,distractor_X,distractor_Y,item1_X,item1_Y,item2_X,item2_Y,item3_X,item3_Y,item4_X,item4_Y,item5_X,item5_Y,item6_X,item6_Y,item1_shape,item2_shape,item3_shape,item4_shape,item5_shape,item6_shape,item1_line,item2_line,item3_line,item4_line,item5_line,item6_line
1a,22,100185,1,1,1,19,F,NA,variable,heterogeneous,4,absent,NaN,0,vertical,none,0,0.823533578352495,red,2,NaN,1031.10848569435,492.232343256122,NaN,NaN,907.767656743878,831.108485694346,1031.10848569435,492.232343256122,692.232343256122,368.891514305654,568.891514305654,707.767656743878,0,0,0,0,0,4,6,3,NaN,NaN,vertical,vertical,vertical,horizontal,none,none
1a,22,100185,1,2,2,19,F,NA,variable,heterogeneous,6,present,1.05542516708374,1,vertical,vertical,1,0.96471268046986,green,3,5,1011.40458100154,457.40580961496,570.807518193712,488.215357568785,817.787900804752,854.378832816255,1029.19248180629,711.784642431215,1011.40458100154,457.40580961496,782.212099195248,345.621167183745,570.807518193712,488.215357568785,588.595418998464,742.594190385041,0,6,4,3,0,5,vertical,horizontal,vertical,horizontal,horizontal,vertical
1a,22,100185,1,3,3,19,F,NA,variable,heterogeneous,3,present,0.730242013931274,1,vertical,vertical,1,1.08236193223433,green,2,3,919.715248510402,374.848363820974,545.155339110131,608.899371659138,935.129412379467,816.252264519889,919.715248510402,374.848363820974,545.155339110131,608.899371659138,0,0,0,0,0,0,6,4,5,NaN,NaN,NaN,vertical,vertical,vertical,none,none,none
1a,22,100185,1,4,4,19,F,NA,variable,heterogeneous,5,absent,1.03324604034424,1,vertical,vertical,1,0.811768653176048,green,5,NaN,629.371695378491,789.501930496736,NaN,NaN,927.5,820.836477965032,1049.42763818712,546.982518841471,826.654758133252,346.39691668109,567.045908301137,496.282156015671,629.371695378491,789.501930496736,0,0,6,6,5,5,4,NaN,horizontal,horizontal,vertical,vertical,vertical,none
1a,22,100185,1,5,5,19,F,NA,variable,heterogeneous,6,present,1.30895209312439,0,vertical,horizontal,1,0.729414176940918,red,3,6,1054.96116226488,595.549636358493,545.03883773512,604.450363641507,676.373546837184,823.028025320546,931.334709102064,818.577661679039,1054.96116226488,595.549636358493,923.626453162816,376.971974679454,668.665290897936,381.422338320961,545.03883773512,604.450363641507,6,3,4,5,0,0,vertical,horizontal,vertical,vertical,horizontal,horizontal
1a,22,100185,1,6,6,19,F,NA,variable,heterogeneous,4,present,1.1541428565979,1,vertical,vertical,1,0.96471268046986,red,4,1,565.271262369628,500.363562235235,700.363562235235,834.728737630372,700.363562235235,834.728737630372,1034.72873763037,699.636437764765,899.636437764765,365.271262369628,565.271262369628,500.363562235235,0,0,0,0,0,3,5,4,NaN,NaN,vertical,vertical,vertical,vertical,none,none
1a,22,100185,1,7,7,19,F,NA,variable,heterogeneous,4,absent,1.58825993537903,1,horizontal,horizontal,1,0.929417904940518,green,3,NaN,692.232343256122,368.891514305654,NaN,NaN,907.767656743878,831.108485694346,1031.10848569435,492.232343256122,692.232343256122,368.891514305654,568.891514305654,707.767656743878,0,0,0,0,6,3,4,6,NaN,NaN,vertical,horizontal,horizontal,vertical,none,none
1a,22,100185,1,8,8,19,F,NA,variable,heterogeneous,6,absent,1.60749292373657,1,vertical,vertical,1,0.764708952470259,red,1,NaN,760.109211414741,851.86052685176,NaN,NaN,760.109211414741,851.86052685176,998.172220171528,760.476699717708,1038.06300875679,508.616172865948,839.890788585259,348.13947314824,601.827779828472,439.523300282291,561.936991243214,691.383827134052,4,5,3,6,3,5,vertical,vertical,vertical,horizontal,vertical,vertical
1a,22,100185,1,9,9,19,F,NA,variable,heterogeneous,3,present,1.31757807731628,1,horizontal,horizontal,1,0.894123129411177,red,2,1,857.362518857686,351.535633479765,986.495193912888,773.909581815937,986.495193912888,773.909581815937,857.362518857686,351.535633479765,556.142287229426,674.554784704298,0,0,0,0,0,0,0,4,0,NaN,NaN,NaN,horizontal,horizontal,horizontal,none,none,none
1a,22,100185,1,10,10,19,F,NA,variable,heterogeneous,3,absent,0.676514863967896,1,vertical,vertical,1,1.0235373063521,red,2,NaN,931.334709102064,381.422338320961,NaN,NaN,923.626453162816,823.028025320546,931.334709102064,381.422338320961,545.03883773512,595.549636358493,0,0,0,0,0,0,0,4,5,NaN,NaN,NaN,vertical,vertical,horizontal,none,none,none
1a,22,100185,1,11,11,19,F,NA,variable,heterogeneous,6,present,1.21124005317688,1,horizontal,horizontal,1,0.647059700705788,red,5,4,622.862115532956,416.568350913644,870.287525733335,354.878267535729,729.712474266665,845.121732464271,977.137884467044,783.431649086356,1047.42541020038,538.309916622085,870.287525733335,354.878267535729,622.862115532956,416.568350913644,552.574589799621,661.690083377915,3,0,6,6,4,5,horizontal,horizontal,vertical,vertical,horizontal,vertical
1a,22,100185,1,12,12,19,F,NA,variable,heterogeneous,3,present,0.823503017425537,1,horizontal,horizontal,1,0.788238802823153,green,2,1,835.489140744817,347.4816424709,1000.94274216971,756.993676208043,1000.94274216971,756.993676208043,835.489140744817,347.4816424709,563.568117085469,695.524681321058,0,0,0,0,0,0,3,4,6,NaN,NaN,NaN,vertical,horizontal,vertical,none,none,none
1a,22,100185,1,13,13,19,F,NA,variable,heterogeneous,3,present,0.784561157226562,1,horizontal,horizontal,1,0.811768653176048,green,3,2,545.970351986605,577.775285599347,946.261991269517,391.116228706307,907.767656743878,831.108485694346,946.261991269517,391.116228706307,545.970351986605,577.775285599347,0,0,0,0,0,0,0,6,4,NaN,NaN,NaN,vertical,horizontal,horizontal,none,none,none
1a,22,100185,1,14,14,19,F,NA,variable,heterogeneous,5,present,1.29089689254761,1,horizontal,horizontal,1,0.929417904940518,green,5,2,553.688914296288,534.001143498857,960.476699717708,798.172220171528,661.117046071168,813.860994826083,960.476699717708,798.172220171528,1038.06300875679,508.616172865948,786.654331158049,345.349468637584,553.688914296288,534.001143498857,0,0,6,0,6,3,4,NaN,horizontal,vertical,horizontal,vertical,horizontal,none
1a,22,100185,1,15,15,19,F,NA,variable,heterogeneous,4,absent,0.81713604927063,1,vertical,vertical,1,0.811768653176048,green,1,NaN,903.717843984329,832.954091698863,NaN,NaN,903.717843984329,832.954091698863,1032.95409169886,496.282156015671,696.282156015671,367.045908301137,567.045908301137,703.717843984329,0,0,0,0,4,3,0,6,NaN,NaN,vertical,vertical,vertical,vertical,none,none
1a,22,100185,1,16,16,19,F,NA,variable,heterogeneous,6,absent,1.54360604286194,0,horizontal,vertical,1,0.905888054587624,green,2,NaN,1011.40458100154,742.594190385041,NaN,NaN,782.212099195248,854.378832816255,1011.40458100154,742.594190385041,1029.19248180629,488.215357568785,817.787900804752,345.621167183745,588.595418998464,457.40580961496,570.807518193712,711.784642431215,0,4,3,5,0,6,horizontal,horizontal,horizontal,horizontal,vertical,horizontal
1a,22,100185,1,17,17,19,F,NA,variable,heterogeneous,4,present,1.34503412246704,1,vertical,vertical,1,0.717649251764471,green,4,2,545.970351986605,622.224714400653,1054.0296480134,577.775285599347,822.224714400653,854.029648013395,1054.0296480134,577.775285599347,777.775285599347,345.970351986605,545.970351986605,622.224714400653,0,0,0,0,5,0,3,4,NaN,NaN,vertical,horizontal,vertical,vertical,none,none
1a,22,100185,1,18,18,19,F,NA,variable,heterogeneous,6,present,1.37928795814514,1,horizontal,horizontal,1,0.764708952470259,red,6,3,591.116228706307,746.261991269517,1008.88377129369,453.738008730483,822.224714400653,854.029648013395,1031.10848569435,707.767656743878,1008.88377129369,453.738008730483,777.775285599347,345.970351986605,568.891514305654,492.232343256122,591.116228706307,746.261991269517,6,3,3,0,5,4,horizontal,vertical,horizontal,vertical,vertical,horizontal
1a,22,100185,1,19,19,19,F,NA,variable,heterogeneous,6,absent,1.38667607307434,1,horizontal,horizontal,1,0.96471268046986,red,2,NaN,1016.25226451989,735.129412379467,NaN,NaN,791.100628340862,854.844660889869,1016.25226451989,735.129412379467,1025.15163617903,480.284751489598,808.899371659138,345.155339110131,583.747735480111,464.870587620533,574.848363820974,719.715248510402,6,4,3,3,6,0,horizontal,horizontal,horizontal,vertical,vertical,horizontal
1a,22,100185,1,20,20,19,F,NA,variable,heterogeneous,5,present,0.890988111495972,1,vertical,vertical,1,0.623529850352894,red,3,5,861.690083377915,352.574589799621,604.658667004661,763.910840470068,895.524681321058,836.431882914531,1054.37883281626,582.212099195248,861.690083377915,352.574589799621,583.747735480111,464.870587620533,604.658667004661,763.910840470068,0,0,6,3,4,0,6,NaN,horizontal,vertical,vertical,horizontal,horizontal,none
1a,22,100185,1,21,21,19,F,NA,variable,heterogeneous,6,absent,0.718017101287842,1,vertical,vertical,1,0.847063428705389,green,4,NaN,768.923317431687,346.900731331463,NaN,NaN,831.076682568313,853.099268668537,1034.72873763037,699.636437764765,1003.65205506206,446.537169096228,768.923317431687,346.900731331463,565.271262369628,500.363562235235,596.34794493794,753.462830903772,5,0,0,4,3,5,horizontal,horizontal,horizontal,vertical,horizontal,horizontal
1a,22,100185,1,22,22,19,F,NA,variable,heterogeneous,5,present,1.39137291908264,1,horizontal,horizontal,1,0.941182830116966,green,1,4,768.923317431687,853.099268668537,676.373546837184,376.971974679454,768.923317431687,853.099268668537,1031.10848569435,707.767656743878,973.909581815937,413.504806087112,676.373546837184,376.971974679454,549.685068220846,648.656293821019,0,0,4,0,5,3,6,NaN,horizontal,horizontal,horizontal,vertical,vertical,none
1a,22,100185,1,23,23,19,F,NA,variable,heterogeneous,5,absent,1.1034619808197,1,horizontal,horizontal,1,0.800003727999601,green,3,NaN,870.287525733335,354.878267535729,NaN,NaN,887.215136548046,839.621618300407,1054.84466088987,591.100628340862,870.287525733335,354.878267535729,588.595418998464,457.40580961496,599.057257830286,756.993676208043,0,0,3,5,4,0,6,NaN,horizontal,vertical,horizontal,horizontal,vertical,none
1a,22,100185,1,24,24,19,F,NA,variable,heterogeneous,6,absent,0.711565017700195,1,vertical,vertical,1,0.894123129411177,green,2,NaN,956.993676208043,800.942742169714,NaN,NaN,704.475318678942,836.431882914531,956.993676208043,800.942742169714,1052.5183575291,564.510859255183,895.524681321058,363.568117085469,643.006323791957,399.057257830286,547.481642470899,635.489140744817,6,4,6,5,0,0,horizontal,vertical,vertical,vertical,vertical,horizontal
1a,22,100185,1,25,25,19,F,NA,variable,heterogeneous,6,present,1.56456112861633,1,horizontal,horizontal,1,0.741179102117365,green,3,1,946.261991269517,391.116228706307,907.767656743878,831.108485694346,907.767656743878,831.108485694346,1054.0296480134,622.224714400653,946.261991269517,391.116228706307,692.232343256122,368.891514305654,545.970351986605,577.775285599347,653.738008730483,808.883771293693,0,6,4,6,5,3,vertical,vertical,horizontal,horizontal,vertical,horizontal
1a,22,100185,1,26,26,19,F,NA,variable,heterogeneous,5,absent,0.928561925888062,1,vertical,vertical,1,0.611764925176447,red,3,NaN,1020.83647796503,472.5,NaN,NaN,696.282156015671,832.954091698863,989.501930496736,770.628304621509,1020.83647796503,472.5,746.982518841471,350.57236181288,546.39691668109,573.345241866748,0,0,0,6,4,5,6,NaN,horizontal,vertical,vertical,vertical,horizontal,none
1a,22,100185,1,27,27,19,F,NA,variable,heterogeneous,3,present,0.946310043334961,1,vertical,vertical,1,0.952947755293413,red,1,3,586.139005173917,738.882953928832,786.654331158049,345.349468637584,586.139005173917,738.882953928832,1027.20666366803,715.767577433584,786.654331158049,345.349468637584,0,0,0,0,0,0,4,3,5,NaN,NaN,NaN,vertical,horizontal,vertical,none,none,none
1a,22,100185,1,28,28,19,F,NA,variable,heterogeneous,5,absent,1.32568383216858,0,horizontal,vertical,1,0.611764925176447,red,2,NaN,1051.86052685176,639.890788585259,NaN,NaN,839.890788585259,851.86052685176,1051.86052685176,639.890788585259,915.767577433584,372.793336331966,619.68777079743,419.68777079743,572.793336331966,715.767577433584,0,0,3,4,3,0,5,NaN,vertical,horizontal,vertical,horizontal,horizontal,none
1a,22,100185,1,29,29,19,F,NA,variable,heterogeneous,4,present,0.929425001144409,1,horizontal,horizontal,1,1.05883208188144,green,4,1,545.03883773512,595.549636358493,795.549636358493,854.96116226488,795.549636358493,854.96116226488,1054.96116226488,604.450363641507,804.450363641507,345.03883773512,545.03883773512,595.549636358493,0,0,0,0,0,3,6,4,NaN,NaN,vertical,horizontal,horizontal,horizontal,none,none
1a,22,100185,1,30,30,19,F,NA,variable,heterogeneous,5,absent,1.22535300254822,1,horizontal,horizontal,1,0.658824625882235,red,1,NaN,938.882953928832,813.860994826083,NaN,NaN,938.882953928832,813.860994826083,1046.31108570371,534.001143498857,813.345668841951,345.349468637584,561.936991243214,508.616172865948,639.523300282292,798.172220171528,0,0,4,6,0,3,5,NaN,horizontal,horizontal,horizontal,horizontal,vertical,none
1a,22,100185,1,31,31,19,F,NA,variable,heterogeneous,4,present,0.667426824569702,1,vertical,vertical,1,0.658824625882235,green,1,2,680.284751489598,825.151636179026,1025.15163617903,719.715248510402,680.284751489598,825.151636179026,1025.15163617903,719.715248510402,919.715248510402,374.848363820974,574.848363820974,480.284751489598,0,0,0,0,4,6,5,0,NaN,NaN,vertical,vertical,horizontal,vertical,none,none
1a,22,100185,1,32,32,19,F,NA,variable,heterogeneous,5,present,1.17753481864929,1,horizontal,horizontal,1,0.835298503528942,red,3,5,1041.10723677783,516.980120613425,556.142287229426,525.445215295702,653.738008730483,808.883771293693,953.462830903772,803.65205506206,1041.10723677783,516.980120613425,795.549636358493,345.03883773512,556.142287229426,525.445215295702,0,0,5,6,4,6,0,NaN,vertical,horizontal,horizontal,vertical,vertical,none
1a,22,100185,1,33,33,19,F,NA,variable,heterogeneous,3,present,1.57813119888306,1,vertical,vertical,1,1.03530223152854,red,2,1,1047.42541020038,661.690083377915,622.862115532956,783.431649086356,622.862115532956,783.431649086356,1047.42541020038,661.690083377915,729.712474266665,354.878267535729,0,0,0,0,0,0,5,4,3,NaN,NaN,NaN,horizontal,vertical,horizontal,none,none,none
1a,22,100185,1,34,34,19,F,NA,variable,heterogeneous,6,absent,0.865203142166138,1,vertical,vertical,1,0.96471268046986,red,2,NaN,1018.57766167904,731.334709102064,NaN,NaN,795.549636358493,854.96116226488,1018.57766167904,731.334709102064,1023.02802532055,476.373546837184,804.450363641507,345.03883773512,581.422338320961,468.665290897936,576.971974679454,723.626453162816,6,4,6,5,3,5,horizontal,vertical,vertical,horizontal,horizontal,horizontal
1a,22,100185,1,35,35,19,F,NA,variable,heterogeneous,6,present,1.5300989151001,1,vertical,vertical,1,0.776473877646706,green,2,5,1023.02802532055,723.626453162816,576.971974679454,476.373546837184,804.450363641507,854.96116226488,1023.02802532055,723.626453162816,1018.57766167904,468.665290897936,795.549636358493,345.03883773512,576.971974679454,476.373546837184,581.422338320961,731.334709102064,0,4,5,0,3,3,vertical,vertical,horizontal,vertical,vertical,horizontal
1a,22,100185,1,36,36,19,F,NA,variable,heterogeneous,3,present,0.682698965072632,1,vertical,vertical,1,0.88235820423473,green,1,3,919.715248510402,825.151636179026,545.155339110131,591.100628340862,919.715248510402,825.151636179026,935.129412379467,383.747735480111,545.155339110131,591.100628340862,0,0,0,0,0,0,4,5,0,NaN,NaN,NaN,vertical,vertical,vertical,none,none,none
1a,22,100185,1,37,37,19,F,NA,variable,heterogeneous,3,absent,0.730637073516846,1,vertical,vertical,1,0.905888054587624,green,1,NaN,946.261991269517,808.883771293693,NaN,NaN,946.261991269517,808.883771293693,907.767656743878,368.891514305654,545.970351986605,622.224714400653,0,0,0,0,0,0,4,5,6,NaN,NaN,NaN,vertical,horizontal,horizontal,none,none,none
1a,22,100185,1,38,38,19,F,NA,variable,heterogeneous,4,absent,1.09122586250305,1,horizontal,horizontal,1,1.08236193223433,red,2,NaN,1041.10723677783,683.019879386575,NaN,NaN,716.980120613425,841.107236777826,1041.10723677783,683.019879386575,883.019879386575,358.892763222174,558.892763222174,516.980120613425,0,0,0,0,5,4,0,6,NaN,NaN,horizontal,horizontal,horizontal,horizontal,none,none
1a,22,100185,1,39,39,19,F,NA,variable,heterogeneous,5,absent,0.9581139087677,1,vertical,vertical,1,1.04706715670499,green,1,NaN,848.656293821019,850.314931779154,NaN,NaN,848.656293821019,850.314931779154,1053.09926866854,631.076682568313,907.767656743878,368.891514305654,613.504806087112,426.090418184063,576.971974679454,723.626453162816,0,0,4,3,5,3,0,NaN,vertical,horizontal,horizontal,horizontal,vertical,none
1a,22,100185,1,40,40,19,F,NA,variable,heterogeneous,3,absent,0.575049161911011,1,horizontal,horizontal,1,0.68235447623513,green,2,NaN,1038.06300875679,691.383827134052,NaN,NaN,601.827779828472,760.476699717708,1038.06300875679,691.383827134052,760.109211414741,348.13947314824,0,0,0,0,0,0,6,4,5,NaN,NaN,NaN,horizontal,horizontal,horizontal,none,none,none
1a,22,100185,1,41,41,19,F,NA,variable,heterogeneous,4,absent,0.895529985427856,1,vertical,vertical,1,0.835298503528942,green,2,NaN,1043.85771277057,674.554784704298,NaN,NaN,725.445215295702,843.857712770574,1043.85771277057,674.554784704298,874.554784704298,356.142287229426,556.142287229426,525.445215295702,0,0,0,0,5,4,0,6,NaN,NaN,horizontal,vertical,vertical,horizontal,none,none
1a,22,100185,1,42,42,19,F,NA,variable,heterogeneous,4,absent,0.745254993438721,1,vertical,vertical,1,0.788238802823153,red,2,NaN,1053.09926866854,568.923317431687,NaN,NaN,831.076682568313,853.099268668537,1053.09926866854,568.923317431687,768.923317431687,346.900731331463,546.900731331463,631.076682568313,0,0,0,0,3,4,5,6,NaN,NaN,vertical,vertical,vertical,vertical,none,none
1a,22,100185,1,43,43,19,F,NA,variable,heterogeneous,4,present,0.754413843154907,1,horizontal,horizontal,1,1.09412685741078,red,1,2,878.799333565612,842.519411655264,1042.51941165526,521.200666434388,878.799333565612,842.519411655264,1042.51941165526,521.200666434388,721.200666434388,357.480588344736,557.480588344736,678.799333565612,0,0,0,0,4,5,6,0,NaN,NaN,horizontal,vertical,vertical,horizontal,none,none
1a,22,100185,1,44,44,19,F,NA,variable,heterogeneous,4,present,0.63443398475647,1,horizontal,horizontal,1,1.03530223152854,red,2,1,1048.46436652023,657.362518857686,742.637481142314,848.464366520235,742.637481142314,848.464366520235,1048.46436652023,657.362518857686,857.362518857686,351.535633479765,551.535633479765,542.637481142314,0,0,0,0,6,4,0,6,NaN,NaN,vertical,horizontal,vertical,vertical,none,none
1a,22,100185,1,45,45,19,F,NA,variable,heterogeneous,5,present,0.916996955871582,1,vertical,vertical,1,0.670589551058683,green,2,4,1025.15163617903,719.715248510402,688.215357568785,370.807518193712,755.719714694933,851.125977018113,1025.15163617903,719.715248510402,983.431649086356,422.862115532956,688.215357568785,370.807518193712,547.481642470899,635.489140744817,0,0,0,4,6,5,3,NaN,horizontal,vertical,vertical,horizontal,vertical,none
1a,22,100185,1,46,46,19,F,NA,variable,heterogeneous,6,absent,1.1040518283844,1,horizontal,horizontal,1,0.635294775529341,green,2,NaN,1018.57766167904,731.334709102064,NaN,NaN,795.549636358493,854.96116226488,1018.57766167904,731.334709102064,1023.02802532055,476.373546837184,804.450363641507,345.03883773512,581.422338320961,468.665290897936,576.971974679454,723.626453162816,6,4,5,3,5,6,horizontal,horizontal,vertical,horizontal,horizontal,vertical
1a,22,100185,1,47,47,19,F,NA,variable,heterogeneous,5,absent,1.18150806427002,1,vertical,vertical,1,0.952947755293413,red,3,NaN,848.656293821019,349.685068220846,NaN,NaN,907.767656743878,831.108485694346,1053.09926866854,568.923317431687,848.656293821019,349.685068220846,576.971974679454,476.373546837184,613.504806087112,773.909581815937,0,0,3,6,4,5,0,NaN,vertical,vertical,vertical,vertical,vertical,none
1a,22,100185,1,48,48,19,F,NA,variable,heterogeneous,4,absent,1.24575901031494,1,horizontal,horizontal,1,0.835298503528942,red,1,NaN,808.899371659138,854.844660889869,NaN,NaN,808.899371659138,854.844660889869,1054.84466088987,591.100628340862,791.100628340862,345.155339110131,545.155339110131,608.899371659138,0,0,0,0,4,0,3,3,NaN,NaN,horizontal,horizontal,horizontal,horizontal,none,none
1a,22,100185,1,49,49,19,F,NA,variable,heterogeneous,3,present,1.3043270111084,1,horizontal,horizontal,1,0.658824625882235,red,3,2,546.900731331463,631.076682568313,899.636437764765,365.271262369628,953.462830903772,803.65205506206,899.636437764765,365.271262369628,546.900731331463,631.076682568313,0,0,0,0,0,0,3,5,4,NaN,NaN,NaN,horizontal,vertical,horizontal,none,none,none
1a,22,100185,1,50,50,19,F,NA,variable,heterogeneous,3,absent,0.892582893371582,1,vertical,vertical,1,0.905888054587624,red,1,NaN,967.295052392579,792.450942956807,NaN,NaN,967.295052392579,792.450942956807,883.019879386575,358.892763222174,549.685068220846,648.656293821019,0,0,0,0,0,0,4,5,3,NaN,NaN,NaN,vertical,horizontal,horizontal,none,none,none
1a,22,100185,1,51,51,19,F,NA,variable,heterogeneous,5,present,0.994706153869629,1,vertical,vertical,1,0.611764925176447,green,5,4,576.971974679454,723.626453162816,613.504806087112,426.090418184063,848.656293821019,850.314931779154,1053.09926866854,631.076682568313,907.767656743878,368.891514305654,613.504806087112,426.090418184063,576.971974679454,723.626453162816,0,0,6,0,3,5,4,NaN,horizontal,vertical,vertical,vertical,vertical,none
1a,22,100185,1,52,52,19,F,NA,variable,heterogeneous,5,absent,1.38328289985657,1,horizontal,horizontal,1,0.635294775529341,green,3,NaN,935.129412379467,383.747735480111,NaN,NaN,817.787900804752,854.378832816255,1047.42541020038,661.690083377915,935.129412379467,383.747735480111,636.089159529932,404.658667004661,563.568117085469,695.524681321058,0,0,0,5,4,6,6,NaN,horizontal,horizontal,horizontal,vertical,vertical,none
1a,22,100185,1,53,53,19,F,NA,variable,heterogeneous,4,absent,0.822072982788086,1,horizontal,horizontal,1,0.941182830116966,green,4,NaN,583.747735480111,464.870587620533,NaN,NaN,664.870587620533,816.252264519889,1016.25226451989,735.129412379467,935.129412379467,383.747735480111,583.747735480111,464.870587620533,0,0,0,0,6,0,3,4,NaN,NaN,horizontal,vertical,horizontal,horizontal,none,none
1a,22,100185,1,54,54,19,F,NA,variable,heterogeneous,6,present,1.70540285110474,1,horizontal,horizontal,1,0.929417904940518,green,4,3,672.5,379.163522034968,927.5,379.163522034968,927.5,820.836477965032,1055,600,927.5,379.163522034968,672.5,379.163522034968,545,600,672.5,820.836477965032,6,3,3,4,5,5,horizontal,vertical,vertical,horizontal,horizontal,vertical
1a,22,100185,1,55,55,19,F,NA,variable,heterogeneous,3,absent,1.27804398536682,1,horizontal,horizontal,1,0.717649251764471,red,2,NaN,1054.37883281626,617.787900804752,NaN,NaN,657.405809614959,811.404581001536,1054.37883281626,617.787900804752,688.215357568785,370.807518193712,0,0,0,0,0,0,3,4,5,NaN,NaN,NaN,vertical,horizontal,horizontal,none,none,none
1a,22,100185,1,56,56,19,F,NA,variable,heterogeneous,6,absent,1.18723082542419,1,horizontal,horizontal,1,0.976477605646307,red,2,NaN,998.172220171528,760.476699717708,NaN,NaN,760.109211414741,851.86052685176,998.172220171528,760.476699717708,1038.06300875679,508.616172865948,839.890788585259,348.13947314824,601.827779828472,439.523300282291,561.936991243214,691.383827134052,5,4,3,0,5,0,vertical,horizontal,horizontal,horizontal,horizontal,vertical
1a,22,100185,1,57,57,19,F,NA,variable,heterogeneous,4,present,0.796817064285278,1,horizontal,horizontal,1,0.870593279058283,green,3,4,712.784863451954,360.378381699593,560.378381699593,687.215136548046,887.215136548046,839.621618300407,1039.62161830041,512.784863451954,712.784863451954,360.378381699593,560.378381699593,687.215136548046,0,0,0,0,6,0,4,0,NaN,NaN,horizontal,vertical,horizontal,vertical,none,none
1a,22,100185,1,58,58,19,F,NA,variable,heterogeneous,5,present,0.750241994857788,1,vertical,vertical,1,0.870593279058283,red,4,2,704.475318678942,363.568117085469,1016.25226451989,735.129412379467,738.309916622085,847.425410200379,1016.25226451989,735.129412379467,995.341332995339,436.089159529932,704.475318678942,363.568117085469,545.621167183745,617.787900804752,0,0,3,5,6,4,0,NaN,horizontal,vertical,vertical,vertical,vertical,none
1a,22,100185,1,59,59,19,F,NA,variable,heterogeneous,3,absent,0.898994207382202,1,horizontal,horizontal,1,0.88235820423473,green,1,NaN,688.215357568785,829.192481806288,NaN,NaN,688.215357568785,829.192481806288,1054.37883281626,582.212099195248,657.405809614959,388.595418998464,0,0,0,0,0,0,4,3,6,NaN,NaN,NaN,horizontal,horizontal,horizontal,none,none,none
1a,22,100185,1,60,60,19,F,NA,variable,heterogeneous,5,present,1.03516912460327,0,horizontal,vertical,1,0.894123129411177,red,2,1,1027.20666366803,715.767577433584,760.109211414741,851.86052685176,760.109211414741,851.86052685176,1027.20666366803,715.767577433584,980.31222920257,419.68777079743,684.232422566416,372.793336331966,548.13947314824,639.890788585259,0,0,5,4,5,0,0,NaN,horizontal,horizontal,vertical,vertical,vertical,none
1a,22,100185,1,61,61,19,F,NA,variable,heterogeneous,3,absent,0.973273992538452,1,horizontal,horizontal,1,0.870593279058283,red,1,NaN,734.001143498857,846.311085703712,NaN,NaN,734.001143498857,846.311085703712,1046.31108570371,534.001143498857,619.68777079743,419.68777079743,0,0,0,0,0,0,4,0,0,NaN,NaN,NaN,horizontal,horizontal,vertical,none,none,none
1a,22,100185,1,62,62,19,F,NA,variable,heterogeneous,3,absent,1.02287602424622,1,vertical,vertical,1,1.09412685741078,green,3,NaN,734.001143498857,353.688914296288,NaN,NaN,619.68777079743,780.31222920257,1046.31108570371,665.998856501143,734.001143498857,353.688914296288,0,0,0,0,0,0,6,5,4,NaN,NaN,NaN,horizontal,horizontal,vertical,none,none,none
1a,22,100185,1,63,63,19,F,NA,variable,heterogeneous,6,present,1.28828287124634,0,vertical,horizontal,1,1.03530223152854,red,5,1,579.163522034968,472.5,800,855,800,855,1020.83647796503,727.5,1020.83647796503,472.5,800,345,579.163522034968,472.5,579.163522034968,727.5,5,3,6,0,4,0,horizontal,vertical,horizontal,horizontal,vertical,horizontal
1a,22,100185,1,64,64,19,F,NA,variable,heterogeneous,4,present,1.55625486373901,1,vertical,vertical,1,1.09412685741078,red,4,3,545.03883773512,604.450363641507,795.549636358493,345.03883773512,804.450363641507,854.96116226488,1054.96116226488,595.549636358493,795.549636358493,345.03883773512,545.03883773512,604.450363641507,0,0,0,0,0,6,5,4,NaN,NaN,horizontal,horizontal,vertical,vertical,none,none
1a,22,100185,2,1,65,19,F,NA,variable,heterogeneous,3,present,0.876737117767334,1,vertical,vertical,1,0.976477605646307,red,2,3,1043.85771277057,525.445215295702,613.504806087112,426.090418184063,742.637481142314,848.464366520235,1043.85771277057,525.445215295702,613.504806087112,426.090418184063,0,0,0,0,0,0,0,4,0,NaN,NaN,NaN,horizontal,vertical,horizontal,none,none,none
1a,22,100185,2,2,66,19,F,NA,variable,heterogeneous,4,absent,1.42229509353638,1,horizontal,horizontal,1,0.988242530822754,red,4,NaN,551.535633479765,542.637481142314,NaN,NaN,742.637481142314,848.464366520235,1048.46436652023,657.362518857686,857.362518857686,351.535633479765,551.535633479765,542.637481142314,0,0,0,0,5,6,0,4,NaN,NaN,vertical,vertical,horizontal,horizontal,none,none
1a,22,100185,2,3,67,19,F,NA,variable,heterogeneous,6,absent,1.69118881225586,0,horizontal,vertical,1,1.0235373063521,green,2,NaN,1043.85771277057,674.554784704298,NaN,NaN,857.362518857686,848.464366520235,1043.85771277057,674.554784704298,986.495193912888,426.090418184063,742.637481142314,351.535633479765,556.142287229426,525.445215295702,613.504806087112,773.909581815937,5,4,6,3,6,0,horizontal,horizontal,horizontal,vertical,vertical,horizontal
1a,22,100185,2,4,68,19,F,NA,variable,heterogeneous,4,absent,1.17613291740417,1,horizontal,horizontal,1,0.941182830116966,red,4,NaN,581.422338320961,468.665290897936,NaN,NaN,668.665290897936,818.577661679039,1018.57766167904,731.334709102064,931.334709102064,381.422338320961,581.422338320961,468.665290897936,0,0,0,0,0,0,3,4,NaN,NaN,horizontal,vertical,horizontal,horizontal,none,none
1a,22,100185,2,5,69,19,F,NA,variable,heterogeneous,4,absent,0.82837700843811,1,vertical,vertical,1,0.623529850352894,green,1,NaN,938.882953928832,813.860994826083,NaN,NaN,938.882953928832,813.860994826083,1013.86099482608,461.117046071168,661.117046071168,386.139005173917,586.139005173917,738.882953928832,0,0,0,0,4,6,0,6,NaN,NaN,vertical,vertical,vertical,horizontal,none,none
1a,22,100185,2,6,70,19,F,NA,variable,heterogeneous,5,present,1.84145307540894,1,vertical,vertical,1,0.623529850352894,red,4,5,696.282156015671,367.045908301137,546.39691668109,626.654758133252,746.982518841471,849.42763818712,1020.83647796503,727.5,989.501930496736,429.371695378491,696.282156015671,367.045908301137,546.39691668109,626.654758133252,0,0,5,3,5,4,0,NaN,vertical,horizontal,vertical,vertical,horizontal,none
1a,22,100185,2,7,71,19,F,NA,variable,heterogeneous,6,present,1.25995492935181,1,horizontal,horizontal,1,0.670589551058683,red,1,3,725.445215295702,843.857712770574,1048.46436652023,542.637481142314,725.445215295702,843.857712770574,973.909581815937,786.495193912888,1048.46436652023,542.637481142314,874.554784704298,356.142287229426,626.090418184063,413.504806087112,551.535633479765,657.362518857686,4,0,0,5,3,3,horizontal,horizontal,vertical,vertical,horizontal,vertical
1a,22,100185,2,8,72,19,F,NA,variable,heterogeneous,6,absent,1.95504999160767,1,vertical,vertical,1,0.68235447623513,green,2,NaN,1046.31108570371,665.998856501143,NaN,NaN,865.998856501143,846.311085703712,1046.31108570371,665.998856501143,980.31222920257,419.68777079743,734.001143498857,353.688914296288,553.688914296288,534.001143498857,619.68777079743,780.31222920257,6,4,5,6,3,0,vertical,vertical,vertical,vertical,vertical,horizontal
1a,22,100185,2,9,73,19,F,NA,variable,heterogeneous,5,present,1.82804894447327,1,horizontal,horizontal,1,0.88235820423473,green,3,5,995.341332995339,436.089159529932,545.621167183745,617.787900804752,738.309916622085,847.425410200379,1016.25226451989,735.129412379467,995.341332995339,436.089159529932,704.475318678942,363.568117085469,545.621167183745,617.787900804752,0,0,0,6,4,3,3,NaN,vertical,horizontal,horizontal,horizontal,vertical,none
1a,22,100185,2,10,74,19,F,NA,variable,heterogeneous,6,absent,1.49868702888489,1,vertical,vertical,1,1.09412685741078,green,3,NaN,1051.86052685176,560.109211414741,NaN,NaN,708.616172865948,838.063008756786,960.476699717708,798.172220171528,1051.86052685176,560.109211414741,891.383827134052,361.936991243214,639.523300282292,401.827779828472,548.13947314824,639.890788585259,5,5,4,0,3,3,vertical,vertical,vertical,horizontal,horizontal,vertical
1a,22,100185,2,11,75,19,F,NA,variable,heterogeneous,3,present,0.930737018585205,1,vertical,vertical,1,0.694119401411577,green,1,2,646.537169096228,803.65205506206,1053.09926866854,631.076682568313,646.537169096228,803.65205506206,1053.09926866854,631.076682568313,700.363562235235,365.271262369628,0,0,0,0,0,0,4,5,0,NaN,NaN,NaN,vertical,vertical,horizontal,none,none,none
1a,22,100185,2,12,76,19,F,NA,variable,heterogeneous,3,present,0.705370903015137,1,vertical,vertical,1,0.788238802823153,red,2,3,1047.42541020038,538.309916622085,622.862115532956,416.568350913644,729.712474266665,845.121732464271,1047.42541020038,538.309916622085,622.862115532956,416.568350913644,0,0,0,0,0,0,6,4,0,NaN,NaN,NaN,horizontal,vertical,vertical,none,none,none
1a,22,100185,2,13,77,19,F,NA,variable,heterogeneous,4,present,0.651417970657349,1,horizontal,horizontal,1,0.976477605646307,green,4,3,616.568350913644,777.137884467044,622.862115532956,416.568350913644,977.137884467044,783.431649086356,983.431649086356,422.862115532956,622.862115532956,416.568350913644,616.568350913644,777.137884467044,0,0,0,0,6,0,0,4,NaN,NaN,vertical,vertical,horizontal,horizontal,none,none
1a,22,100185,2,14,78,19,F,NA,variable,heterogeneous,4,absent,1.16891598701477,1,vertical,vertical,1,0.823533578352495,red,3,NaN,664.870587620533,383.747735480111,NaN,NaN,935.129412379467,816.252264519889,1016.25226451989,464.870587620533,664.870587620533,383.747735480111,583.747735480111,735.129412379467,0,0,0,0,3,3,4,0,NaN,NaN,vertical,horizontal,vertical,vertical,none,none
1a,22,100185,2,15,79,19,F,NA,variable,heterogeneous,4,absent,0.710912942886353,1,horizontal,horizontal,1,0.929417904940518,green,3,NaN,927.5,379.163522034968,NaN,NaN,672.5,820.836477965032,1020.83647796503,727.5,927.5,379.163522034968,579.163522034968,472.5,0,0,0,0,5,0,4,0,NaN,NaN,vertical,horizontal,horizontal,vertical,none,none
1a,22,100185,2,16,80,19,F,NA,variable,heterogeneous,3,absent,0.741081953048706,1,horizontal,horizontal,1,0.988242530822754,green,3,NaN,546.900731331463,631.076682568313,NaN,NaN,953.462830903772,803.65205506206,899.636437764765,365.271262369628,546.900731331463,631.076682568313,0,0,0,0,0,0,3,0,4,NaN,NaN,NaN,horizontal,horizontal,horizontal,none,none,none
1a,22,100185,2,17,81,19,F,NA,variable,heterogeneous,4,present,1.20155000686646,1,horizontal,horizontal,1,0.658824625882235,red,2,1,1036.43188291453,695.524681321058,704.475318678942,836.431882914531,704.475318678942,836.431882914531,1036.43188291453,695.524681321058,895.524681321058,363.568117085469,563.568117085469,504.475318678942,0,0,0,0,0,4,6,5,NaN,NaN,horizontal,horizontal,horizontal,vertical,none,none
1a,22,100185,2,18,82,19,F,NA,variable,heterogeneous,6,present,1.45459699630737,1,vertical,vertical,1,1.0235373063521,green,2,4,949.885239334581,806.299333565612,903.717843984329,367.045908301137,696.282156015671,832.954091698863,949.885239334581,806.299333565612,1053.60308331891,573.345241866748,903.717843984329,367.045908301137,650.114760665419,393.700666434388,546.39691668109,626.654758133252,5,4,0,3,6,5,horizontal,vertical,horizontal,horizontal,horizontal,horizontal
1a,22,100185,2,19,83,19,F,NA,variable,heterogeneous,3,absent,1.22464990615845,0,horizontal,vertical,1,0.658824625882235,green,2,NaN,931.334709102064,381.422338320961,NaN,NaN,923.626453162816,823.028025320546,931.334709102064,381.422338320961,545.03883773512,595.549636358493,0,0,0,0,0,0,3,4,3,NaN,NaN,NaN,vertical,horizontal,horizontal,none,none,none
1a,22,100185,2,20,84,19,F,NA,variable,heterogeneous,3,present,1.34839916229248,1,horizontal,horizontal,1,0.952947755293413,red,1,3,953.462830903772,803.65205506206,546.900731331463,631.076682568313,953.462830903772,803.65205506206,899.636437764765,365.271262369628,546.900731331463,631.076682568313,0,0,0,0,0,0,4,6,3,NaN,NaN,NaN,horizontal,vertical,vertical,none,none,none
1a,22,100185,2,21,85,19,F,NA,variable,heterogeneous,6,absent,1.20548892021179,1,horizontal,horizontal,1,0.894123129411177,green,3,NaN,1003.65205506206,446.537169096228,NaN,NaN,831.076682568313,853.099268668537,1034.72873763037,699.636437764765,1003.65205506206,446.537169096228,768.923317431687,346.900731331463,565.271262369628,500.363562235235,596.34794493794,753.462830903772,5,3,4,5,3,0,horizontal,vertical,horizontal,horizontal,vertical,horizontal
1a,22,100185,2,22,86,19,F,NA,variable,heterogeneous,4,absent,0.930193901062012,1,vertical,vertical,1,0.623529850352894,green,3,NaN,626.090418184063,413.504806087112,NaN,NaN,973.909581815937,786.495193912888,986.495193912888,426.090418184063,626.090418184063,413.504806087112,613.504806087112,773.909581815937,0,0,0,0,0,6,4,3,NaN,NaN,horizontal,horizontal,vertical,vertical,none,none
1a,22,100185,2,23,87,19,F,NA,variable,heterogeneous,5,absent,NaN,0,horizontal,none,0,0.917652979764071,red,4,NaN,738.309916622085,352.574589799621,NaN,NaN,704.475318678942,836.431882914531,995.341332995339,763.910840470068,1016.25226451989,464.870587620533,738.309916622085,352.574589799621,545.621167183745,582.212099195248,0,0,3,6,3,4,6,NaN,horizontal,horizontal,vertical,horizontal,horizontal,none
1a,22,100185,2,24,88,19,F,NA,variable,heterogeneous,3,present,1.20318603515625,1,horizontal,horizontal,1,0.976477605646307,green,1,3,795.549636358493,854.96116226488,581.422338320961,468.665290897936,795.549636358493,854.96116226488,1023.02802532055,476.373546837184,581.422338320961,468.665290897936,0,0,0,0,0,0,4,3,6,NaN,NaN,NaN,horizontal,vertical,horizontal,none,none,none
1a,22,100185,2,25,89,19,F,NA,variable,heterogeneous,3,present,1.01289796829224,1,vertical,vertical,1,0.88235820423473,green,1,2,688.215357568785,829.192481806288,1054.37883281626,582.212099195248,688.215357568785,829.192481806288,1054.37883281626,582.212099195248,657.405809614959,388.595418998464,0,0,0,0,0,0,4,3,3,NaN,NaN,NaN,vertical,horizontal,vertical,none,none,none
1a,22,100185,2,26,90,19,F,NA,variable,heterogeneous,4,present,1.36801981925964,1,vertical,vertical,1,0.717649251764471,red,3,1,629.371695378491,410.498069503264,970.628304621509,789.501930496736,970.628304621509,789.501930496736,989.501930496736,429.371695378491,629.371695378491,410.498069503264,610.498069503264,770.628304621509,0,0,0,0,3,0,4,5,NaN,NaN,vertical,horizontal,vertical,vertical,none,none
1a,22,100185,2,27,91,19,F,NA,variable,heterogeneous,3,absent,1.14868402481079,1,horizontal,horizontal,1,0.658824625882235,red,2,NaN,1051.12597701811,555.719714694933,NaN,NaN,712.784863451954,839.621618300407,1051.12597701811,555.719714694933,636.089159529932,404.658667004661,0,0,0,0,0,0,0,4,5,NaN,NaN,NaN,vertical,horizontal,horizontal,none,none,none
1a,22,100185,2,28,92,19,F,NA,variable,heterogeneous,4,absent,1.10728406906128,1,vertical,vertical,1,0.976477605646307,red,1,NaN,839.890788585259,851.86052685176,NaN,NaN,839.890788585259,851.86052685176,1051.86052685176,560.109211414741,760.109211414741,348.13947314824,548.13947314824,639.890788585259,0,0,0,0,4,6,5,3,NaN,NaN,vertical,horizontal,vertical,horizontal,none,none
1a,22,100185,2,29,93,19,F,NA,variable,heterogeneous,4,present,1.12012004852295,1,vertical,vertical,1,0.717649251764471,red,4,1,565.271262369628,500.363562235235,700.363562235235,834.728737630372,700.363562235235,834.728737630372,1034.72873763037,699.636437764765,899.636437764765,365.271262369628,565.271262369628,500.363562235235,0,0,0,0,0,3,6,4,NaN,NaN,vertical,horizontal,horizontal,vertical,none,none
1a,22,100185,2,30,94,19,F,NA,variable,heterogeneous,4,present,1.13380289077759,1,horizontal,horizontal,1,0.752944027293812,red,3,1,742.637481142314,351.535633479765,857.362518857686,848.464366520235,857.362518857686,848.464366520235,1048.46436652023,542.637481142314,742.637481142314,351.535633479765,551.535633479765,657.362518857686,0,0,0,0,3,6,4,5,NaN,NaN,horizontal,vertical,horizontal,vertical,none,none
1a,22,100185,2,31,95,19,F,NA,variable,heterogeneous,6,present,1.72198486328125,1,horizontal,horizontal,1,0.870593279058283,green,2,6,1051.12597701811,644.280285305067,636.089159529932,795.341332995339,887.215136548046,839.621618300407,1051.12597701811,644.280285305067,963.910840470068,404.658667004661,712.784863451954,360.378381699593,548.874022981887,555.719714694933,636.089159529932,795.341332995339,3,4,5,5,0,0,vertical,horizontal,vertical,horizontal,horizontal,horizontal
1a,22,100185,2,32,96,19,F,NA,variable,heterogeneous,3,absent,1.19737195968628,1,vertical,vertical,1,1.03530223152854,green,3,NaN,556.142287229426,525.445215295702,NaN,NaN,857.362518857686,848.464366520235,986.495193912888,426.090418184063,556.142287229426,525.445215295702,0,0,0,0,0,0,3,6,4,NaN,NaN,NaN,vertical,horizontal,vertical,none,none,none
1a,22,100185,2,33,97,19,F,NA,variable,heterogeneous,3,absent,1.0726580619812,0,vertical,horizontal,1,0.764708952470259,red,3,NaN,738.309916622085,352.574589799621,NaN,NaN,616.568350913644,777.137884467044,1045.12173246427,670.287525733335,738.309916622085,352.574589799621,0,0,0,0,0,0,5,3,4,NaN,NaN,NaN,horizontal,horizontal,vertical,none,none,none
1a,22,100185,2,34,98,19,F,NA,variable,heterogeneous,6,absent,1.09810304641724,1,horizontal,horizontal,1,0.788238802823153,red,6,NaN,591.116228706307,746.261991269517,NaN,NaN,822.224714400653,854.029648013395,1031.10848569435,707.767656743878,1008.88377129369,453.738008730483,777.775285599347,345.970351986605,568.891514305654,492.232343256122,591.116228706307,746.261991269517,0,6,5,3,6,4,horizontal,horizontal,horizontal,horizontal,horizontal,horizontal
1a,22,100185,2,35,99,19,F,NA,variable,heterogeneous,5,present,0.900064945220947,1,vertical,vertical,1,0.988242530822754,green,5,1,629.371695378491,789.501930496736,927.5,820.836477965032,927.5,820.836477965032,1049.42763818712,546.982518841471,826.654758133252,346.39691668109,567.045908301137,496.282156015671,629.371695378491,789.501930496736,0,0,5,6,0,3,4,NaN,vertical,vertical,vertical,horizontal,vertical,none
1a,22,100185,2,36,100,19,F,NA,variable,heterogeneous,3,absent,1.13490080833435,1,horizontal,horizontal,1,0.635294775529341,red,1,NaN,604.658667004661,763.910840470068,NaN,NaN,604.658667004661,763.910840470068,1039.62161830041,687.215136548046,755.719714694933,348.874022981887,0,0,0,0,0,0,4,5,0,NaN,NaN,NaN,horizontal,vertical,vertical,none,none,none
1a,22,100185,2,37,101,19,F,NA,variable,heterogeneous,3,absent,0.877067804336548,1,vertical,vertical,1,0.764708952470259,red,2,NaN,1054.65053136242,586.654331158049,NaN,NaN,684.232422566416,827.206663668034,1054.65053136242,586.654331158049,661.117046071168,386.139005173917,0,0,0,0,0,0,5,4,6,NaN,NaN,NaN,vertical,vertical,vertical,none,none,none
1a,22,100185,2,38,102,19,F,NA,variable,heterogeneous,6,present,0.932194948196411,1,vertical,vertical,1,0.670589551058683,red,6,5,639.523300282292,798.172220171528,548.13947314824,560.109211414741,891.383827134052,838.063008756786,1051.86052685176,639.890788585259,960.476699717708,401.827779828472,708.616172865948,361.936991243214,548.13947314824,560.109211414741,639.523300282292,798.172220171528,5,0,6,3,0,4,vertical,horizontal,horizontal,horizontal,vertical,vertical
1a,22,100185,2,39,103,19,F,NA,variable,heterogeneous,5,absent,1.03580808639526,1,vertical,vertical,1,0.635294775529341,red,1,NaN,938.882953928832,813.860994826083,NaN,NaN,938.882953928832,813.860994826083,1046.31108570371,534.001143498857,813.345668841951,345.349468637584,561.936991243214,508.616172865948,639.523300282292,798.172220171528,0,0,4,5,0,0,3,NaN,vertical,horizontal,vertical,horizontal,horizontal,none
1a,22,100185,2,40,104,19,F,NA,variable,heterogeneous,5,present,1.27019906044006,1,vertical,vertical,1,0.670589551058683,red,3,5,995.341332995339,436.089159529932,545.621167183745,617.787900804752,738.309916622085,847.425410200379,1016.25226451989,735.129412379467,995.341332995339,436.089159529932,704.475318678942,363.568117085469,545.621167183745,617.787900804752,0,0,5,6,4,0,6,NaN,horizontal,horizontal,vertical,vertical,horizontal,none
1a,22,100185,2,41,105,19,F,NA,variable,heterogeneous,5,absent,0.935121059417725,1,vertical,vertical,1,0.96471268046986,green,3,NaN,977.137884467044,416.568350913644,NaN,NaN,764.510859255183,852.518357529101,1029.19248180629,711.784642431215,977.137884467044,416.568350913644,680.284751489598,374.848363820974,548.874022981887,644.280285305067,0,0,5,5,4,0,6,NaN,vertical,vertical,vertical,vertical,horizontal,none
1a,22,100185,2,42,106,19,F,NA,variable,heterogeneous,5,absent,1.16115498542786,1,horizontal,horizontal,1,0.752944027293812,green,5,NaN,565.271262369628,699.636437764765,NaN,NaN,822.224714400653,854.029648013395,1048.46436652023,657.362518857686,931.334709102064,381.422338320961,632.704947607421,407.549057043193,565.271262369628,699.636437764765,0,0,0,0,3,5,4,NaN,vertical,horizontal,horizontal,horizontal,horizontal,none
1a,22,100185,2,43,107,19,F,NA,variable,heterogeneous,6,present,1.05784797668457,1,horizontal,horizontal,1,0.68235447623513,green,3,4,935.129412379467,383.747735480111,680.284751489598,374.848363820974,919.715248510402,825.151636179026,1054.84466088987,608.899371659138,935.129412379467,383.747735480111,680.284751489598,374.848363820974,545.155339110131,591.100628340862,664.870587620533,816.252264519889,0,3,4,0,5,3,vertical,horizontal,horizontal,horizontal,vertical,vertical
1a,22,100185,2,44,108,19,F,NA,variable,heterogeneous,6,absent,1.2442889213562,1,horizontal,horizontal,1,0.847063428705389,red,5,NaN,563.568117085469,504.475318678942,NaN,NaN,835.489140744817,852.518357529101,1036.43188291453,695.524681321058,1000.94274216971,443.006323791957,764.510859255183,347.4816424709,563.568117085469,504.475318678942,599.057257830286,756.993676208043,6,5,5,0,4,3,vertical,horizontal,vertical,vertical,horizontal,horizontal
1a,22,100185,2,45,109,19,F,NA,variable,heterogeneous,3,present,1.02365803718567,1,horizontal,horizontal,1,0.717649251764471,green,1,3,636.089159529932,795.341332995339,712.784863451954,360.378381699593,636.089159529932,795.341332995339,1051.12597701811,644.280285305067,712.784863451954,360.378381699593,0,0,0,0,0,0,4,6,3,NaN,NaN,NaN,horizontal,horizontal,vertical,none,none,none
1a,22,100185,2,46,110,19,F,NA,variable,heterogeneous,6,present,NaN,0,vertical,none,0,0.88235820423473,red,5,6,570.807518193712,488.215357568785,588.595418998464,742.594190385041,817.787900804752,854.378832816255,1029.19248180629,711.784642431215,1011.40458100154,457.40580961496,782.212099195248,345.621167183745,570.807518193712,488.215357568785,588.595418998464,742.594190385041,3,6,0,5,4,5,vertical,vertical,vertical,horizontal,vertical,vertical
1a,22,100185,2,47,111,19,F,NA,variable,heterogeneous,6,absent,1.29823517799377,1,vertical,vertical,1,1.01177238117565,red,1,NaN,729.712474266665,845.121732464271,NaN,NaN,729.712474266665,845.121732464271,977.137884467044,783.431649086356,1047.42541020038,538.309916622085,870.287525733335,354.878267535729,622.862115532956,416.568350913644,552.574589799621,661.690083377915,4,0,6,0,3,5,vertical,horizontal,horizontal,vertical,vertical,vertical
1a,22,100185,2,48,112,19,F,NA,variable,heterogeneous,5,absent,0.943132162094116,1,vertical,vertical,1,0.729414176940918,green,3,NaN,878.799333565612,357.480588344736,NaN,NaN,878.799333565612,842.519411655264,1055,600,878.799333565612,357.480588344736,593.700666434388,450.114760665419,593.700666434388,749.885239334581,0,0,0,5,4,0,6,NaN,vertical,horizontal,vertical,vertical,horizontal,none
1a,22,100185,2,49,113,19,F,NA,variable,heterogeneous,4,absent,1.32259392738342,1,horizontal,horizontal,1,0.811768653176048,green,3,NaN,942.594190385041,388.595418998464,NaN,NaN,657.405809614959,811.404581001536,1011.40458100154,742.594190385041,942.594190385041,388.595418998464,588.595418998464,457.40580961496,0,0,0,0,0,3,4,5,NaN,NaN,horizontal,horizontal,horizontal,horizontal,none,none
1a,22,100185,2,50,114,19,F,NA,variable,heterogeneous,6,present,1.02656888961792,1,horizontal,horizontal,1,0.670589551058683,red,5,6,629.371695378491,410.498069503264,550.57236181288,653.017481158529,721.200666434388,842.519411655264,970.628304621509,789.501930496736,1049.42763818712,546.982518841471,878.799333565612,357.480588344736,629.371695378491,410.498069503264,550.57236181288,653.017481158529,5,3,6,6,4,5,horizontal,vertical,vertical,vertical,horizontal,vertical
1a,22,100185,2,51,115,19,F,NA,variable,heterogeneous,4,present,1.01728296279907,1,vertical,vertical,1,1.09412685741078,green,1,3,891.383827134052,838.063008756786,708.616172865948,361.936991243214,891.383827134052,838.063008756786,1038.06300875679,508.616172865948,708.616172865948,361.936991243214,561.936991243214,691.383827134052,0,0,0,0,4,6,3,6,NaN,NaN,vertical,horizontal,horizontal,vertical,none,none
1a,22,100185,2,52,116,19,F,NA,variable,heterogeneous,3,absent,0.834188938140869,1,vertical,vertical,1,0.623529850352894,green,1,NaN,610.498069503264,770.628304621509,NaN,NaN,610.498069503264,770.628304621509,1042.51941165526,678.799333565612,746.982518841471,350.57236181288,0,0,0,0,0,0,4,6,6,NaN,NaN,NaN,vertical,horizontal,horizontal,none,none,none
1a,22,100185,2,53,117,19,F,NA,variable,heterogeneous,5,present,0.873854160308838,1,vertical,vertical,1,0.929417904940518,green,2,5,1041.10723677783,683.019879386575,556.142287229426,674.554784704298,795.549636358493,854.96116226488,1041.10723677783,683.019879386575,953.462830903772,396.34794493794,653.738008730483,391.116228706307,556.142287229426,674.554784704298,0,0,6,4,0,5,6,NaN,vertical,vertical,horizontal,vertical,horizontal,none
1a,22,100185,2,54,118,19,F,NA,variable,heterogeneous,5,present,1.63704109191895,1,horizontal,horizontal,1,1.08236193223433,green,2,5,1042.51941165526,521.200666434388,650.114760665419,806.299333565612,949.885239334581,806.299333565612,1042.51941165526,521.200666434388,800,345,557.480588344736,521.200666434388,650.114760665419,806.299333565612,0,0,6,4,3,0,6,NaN,vertical,horizontal,horizontal,horizontal,horizontal,none
1a,22,100185,2,55,119,19,F,NA,variable,heterogeneous,5,absent,0.885335206985474,1,horizontal,horizontal,1,0.952947755293413,red,2,NaN,1018.57766167904,731.334709102064,NaN,NaN,742.637481142314,848.464366520235,1018.57766167904,731.334709102064,992.450942956807,432.704947607421,700.363562235235,365.271262369628,545.970351986605,622.224714400653,0,0,3,4,3,6,0,NaN,vertical,horizontal,horizontal,vertical,vertical,none
1a,22,100185,2,56,120,19,F,NA,variable,heterogeneous,6,present,1.5791289806366,1,vertical,vertical,1,1.01177238117565,green,3,2,977.137884467044,416.568350913644,1047.42541020038,661.690083377915,870.287525733335,845.121732464271,1047.42541020038,661.690083377915,977.137884467044,416.568350913644,729.712474266665,354.878267535729,552.574589799621,538.309916622085,622.862115532956,783.431649086356,0,0,4,6,6,3,horizontal,vertical,vertical,vertical,horizontal,vertical
1a,22,100185,2,57,121,19,F,NA,variable,heterogeneous,5,present,0.937079906463623,1,horizontal,horizontal,1,1.09412685741078,red,2,5,1008.88377129369,746.261991269517,545.03883773512,604.450363641507,725.445215295702,843.857712770574,1008.88377129369,746.261991269517,1003.65205506206,446.537169096228,716.980120613425,358.892763222174,545.03883773512,604.450363641507,0,0,5,4,5,3,0,NaN,horizontal,horizontal,vertical,vertical,vertical,none
1a,22,100185,2,58,122,19,F,NA,variable,heterogeneous,6,absent,1.06655693054199,1,vertical,vertical,1,0.929417904940518,red,3,NaN,973.909581815937,413.504806087112,NaN,NaN,874.554784704298,843.857712770574,1048.46436652023,657.362518857686,973.909581815937,413.504806087112,725.445215295702,356.142287229426,551.535633479765,542.637481142314,626.090418184063,786.495193912888,5,5,4,6,0,0,horizontal,horizontal,vertical,vertical,horizontal,vertical
1a,22,100185,2,59,123,19,F,NA,variable,heterogeneous,5,absent,1.0336389541626,1,vertical,vertical,1,0.68235447623513,red,1,NaN,768.923317431687,853.099268668537,NaN,NaN,768.923317431687,853.099268668537,1031.10848569435,707.767656743878,973.909581815937,413.504806087112,676.373546837184,376.971974679454,549.685068220846,648.656293821019,0,0,4,0,3,5,0,NaN,vertical,vertical,horizontal,horizontal,vertical,none
1a,22,100185,2,60,124,19,F,NA,variable,heterogeneous,5,absent,0.916039943695068,1,horizontal,horizontal,1,0.68235447623513,green,1,NaN,755.719714694933,851.125977018113,NaN,NaN,755.719714694933,851.125977018113,1025.15163617903,719.715248510402,983.431649086356,422.862115532956,688.215357568785,370.807518193712,547.481642470899,635.489140744817,0,0,4,5,6,5,0,NaN,horizontal,vertical,vertical,horizontal,vertical,none
1a,22,100185,2,61,125,19,F,NA,variable,heterogeneous,3,present,0.728287935256958,1,horizontal,horizontal,1,0.894123129411177,red,1,3,729.712474266665,845.121732464271,622.862115532956,416.568350913644,729.712474266665,845.121732464271,1047.42541020038,538.309916622085,622.862115532956,416.568350913644,0,0,0,0,0,0,4,0,6,NaN,NaN,NaN,horizontal,vertical,horizontal,none,none,none
1a,22,100185,2,62,126,19,F,NA,variable,heterogeneous,4,present,1.05506801605225,1,horizontal,horizontal,1,1.01177238117565,green,3,2,692.232343256122,368.891514305654,1031.10848569435,492.232343256122,907.767656743878,831.108485694346,1031.10848569435,492.232343256122,692.232343256122,368.891514305654,568.891514305654,707.767656743878,0,0,0,0,6,0,4,5,NaN,NaN,vertical,horizontal,horizontal,horizontal,none,none
1a,22,100185,2,63,127,19,F,NA,variable,heterogeneous,4,present,0.727388858795166,1,vertical,vertical,1,0.741179102117365,green,3,1,760.109211414741,348.13947314824,839.890788585259,851.86052685176,839.890788585259,851.86052685176,1051.86052685176,560.109211414741,760.109211414741,348.13947314824,548.13947314824,639.890788585259,0,0,0,0,6,0,4,6,NaN,NaN,horizontal,horizontal,vertical,horizontal,none,none
1a,22,100185,2,64,128,19,F,NA,variable,heterogeneous,5,present,0.947671890258789,0,horizontal,vertical,1,0.88235820423473,red,3,5,989.501930496736,429.371695378491,546.39691668109,626.654758133252,746.982518841471,849.42763818712,1020.83647796503,727.5,989.501930496736,429.371695378491,696.282156015671,367.045908301137,546.39691668109,626.654758133252,0,0,3,6,4,0,5,NaN,vertical,horizontal,horizontal,horizontal,horizontal,none
1a,22,100185,3,1,129,19,F,NA,variable,heterogeneous,5,absent,1.21544194221497,1,horizontal,horizontal,1,0.741179102117365,red,4,NaN,700.363562235235,365.271262369628,NaN,NaN,742.637481142314,848.464366520235,1018.57766167904,731.334709102064,992.450942956807,432.704947607421,700.363562235235,365.271262369628,545.970351986605,622.224714400653,0,0,6,0,6,4,3,NaN,vertical,vertical,horizontal,horizontal,vertical,none
1a,22,100185,3,2,130,19,F,NA,variable,heterogeneous,4,absent,0.678656101226807,1,horizontal,horizontal,1,0.729414176940918,red,4,NaN,574.848363820974,480.284751489598,NaN,NaN,680.284751489598,825.151636179026,1025.15163617903,719.715248510402,919.715248510402,374.848363820974,574.848363820974,480.284751489598,0,0,0,0,3,5,6,4,NaN,NaN,vertical,horizontal,horizontal,horizontal,none,none
1a,22,100185,3,3,131,19,F,NA,variable,heterogeneous,3,absent,0.694296836853027,1,vertical,vertical,1,0.894123129411177,green,2,NaN,804.450363641507,345.03883773512,NaN,NaN,1018.57766167904,731.334709102064,804.450363641507,345.03883773512,576.971974679454,723.626453162816,0,0,0,0,0,0,3,4,0,NaN,NaN,NaN,vertical,vertical,horizontal,none,none,none
1a,22,100185,3,4,132,19,F,NA,variable,heterogeneous,4,absent,0.777624130249023,1,horizontal,horizontal,1,0.858828353881836,green,3,NaN,927.5,379.163522034968,NaN,NaN,672.5,820.836477965032,1020.83647796503,727.5,927.5,379.163522034968,579.163522034968,472.5,0,0,0,0,0,6,4,5,NaN,NaN,horizontal,horizontal,horizontal,vertical,none,none
1a,22,100185,3,5,133,19,F,NA,variable,heterogeneous,5,present,1.24144816398621,1,vertical,vertical,1,1.01177238117565,green,5,1,552.574589799621,661.690083377915,782.212099195248,854.378832816255,782.212099195248,854.378832816255,1036.43188291453,695.524681321058,963.910840470068,404.658667004661,664.870587620533,383.747735480111,552.574589799621,661.690083377915,0,0,0,0,3,5,4,NaN,vertical,vertical,vertical,horizontal,vertical,none
1a,22,100185,3,6,134,19,F,NA,variable,heterogeneous,3,absent,1.12431001663208,1,horizontal,horizontal,1,0.694119401411577,red,3,NaN,576.971974679454,476.373546837184,NaN,NaN,804.450363641507,854.96116226488,1018.57766167904,468.665290897936,576.971974679454,476.373546837184,0,0,0,0,0,0,6,3,4,NaN,NaN,NaN,horizontal,vertical,horizontal,none,none,none
1a,22,100185,3,7,135,19,F,NA,variable,heterogeneous,5,present,1.18943285942078,0,horizontal,vertical,1,0.717649251764471,red,3,1,839.890788585259,348.13947314824,915.767577433584,827.206663668034,915.767577433584,827.206663668034,1051.86052685176,560.109211414741,839.890788585259,348.13947314824,572.793336331966,484.232422566416,619.68777079743,780.31222920257,0,0,0,5,4,3,6,NaN,horizontal,vertical,horizontal,horizontal,vertical,none
1a,22,100185,3,8,136,19,F,NA,variable,heterogeneous,3,present,0.791008949279785,1,horizontal,horizontal,1,0.670589551058683,green,3,1,549.685068220846,648.656293821019,967.295052392579,792.450942956807,967.295052392579,792.450942956807,883.019879386575,358.892763222174,549.685068220846,648.656293821019,0,0,0,0,0,0,5,0,4,NaN,NaN,NaN,vertical,vertical,horizontal,none,none,none
1a,22,100185,3,9,137,19,F,NA,variable,heterogeneous,5,present,0.716694831848145,1,horizontal,horizontal,1,1.08236193223433,red,3,5,870.287525733335,354.878267535729,599.057257830286,756.993676208043,887.215136548046,839.621618300407,1054.84466088987,591.100628340862,870.287525733335,354.878267535729,588.595418998464,457.40580961496,599.057257830286,756.993676208043,0,0,5,6,4,3,5,NaN,horizontal,horizontal,horizontal,vertical,vertical,none
1a,22,100185,3,10,138,19,F,NA,variable,heterogeneous,3,absent,0.926002025604248,1,vertical,vertical,1,0.941182830116966,red,2,NaN,1041.10723677783,683.019879386575,NaN,NaN,607.549057043193,767.295052392579,1041.10723677783,683.019879386575,751.343706178981,349.685068220846,0,0,0,0,0,0,5,4,3,NaN,NaN,NaN,horizontal,vertical,vertical,none,none,none
1a,22,100185,3,11,139,19,F,NA,variable,heterogeneous,5,present,1.1829309463501,1,vertical,vertical,1,0.917652979764071,green,5,2,604.658667004661,763.910840470068,1054.37883281626,582.212099195248,895.524681321058,836.431882914531,1054.37883281626,582.212099195248,861.690083377915,352.574589799621,583.747735480111,464.870587620533,604.658667004661,763.910840470068,0,0,6,5,6,3,4,NaN,vertical,vertical,horizontal,vertical,vertical,none
1a,22,100185,3,12,140,19,F,NA,variable,heterogeneous,5,absent,1.14983797073364,1,horizontal,horizontal,1,0.764708952470259,green,5,NaN,545.621167183745,617.787900804752,NaN,NaN,738.309916622085,847.425410200379,1016.25226451989,735.129412379467,995.341332995339,436.089159529932,704.475318678942,363.568117085469,545.621167183745,617.787900804752,0,0,5,3,5,6,4,NaN,vertical,horizontal,vertical,horizontal,horizontal,none
1a,22,100185,3,13,141,19,F,NA,variable,heterogeneous,4,present,0.961819887161255,1,horizontal,horizontal,1,0.835298503528942,green,3,1,632.704947607421,407.549057043193,967.295052392579,792.450942956807,967.295052392579,792.450942956807,992.450942956807,432.704947607421,632.704947607421,407.549057043193,607.549057043193,767.295052392579,0,0,0,0,5,3,4,6,NaN,NaN,vertical,horizontal,horizontal,horizontal,none,none
1a,22,100185,3,14,142,19,F,NA,variable,heterogeneous,5,absent,0.897851943969727,1,vertical,vertical,1,0.635294775529341,green,3,NaN,817.787900804752,345.621167183745,NaN,NaN,935.129412379467,816.252264519889,1047.42541020038,538.309916622085,817.787900804752,345.621167183745,563.568117085469,504.475318678942,636.089159529932,795.341332995339,0,0,5,6,4,3,3,NaN,horizontal,horizontal,vertical,horizontal,vertical,none
1a,22,100185,3,15,143,19,F,NA,variable,heterogeneous,5,absent,0.96102499961853,1,horizontal,horizontal,1,1.07059700705788,red,4,NaN,596.34794493794,446.537169096228,NaN,NaN,874.554784704298,843.857712770574,1054.96116226488,604.450363641507,883.019879386575,358.892763222174,596.34794493794,446.537169096228,591.116228706307,746.261991269517,0,0,5,0,5,4,3,NaN,vertical,horizontal,horizontal,horizontal,vertical,none
1a,22,100185,3,16,144,19,F,NA,variable,heterogeneous,3,present,1.15837407112122,1,vertical,vertical,1,1.09412685741078,red,1,3,581.422338320961,731.334709102064,795.549636358493,345.03883773512,581.422338320961,731.334709102064,1023.02802532055,723.626453162816,795.549636358493,345.03883773512,0,0,0,0,0,0,4,3,3,NaN,NaN,NaN,vertical,horizontal,horizontal,none,none,none
1a,22,100185,3,17,145,19,F,NA,variable,heterogeneous,6,absent,0.966150999069214,1,vertical,vertical,1,0.811768653176048,red,6,NaN,565.271262369628,699.636437764765,NaN,NaN,768.923317431687,853.099268668537,1003.65205506206,753.462830903772,1034.72873763037,500.363562235235,831.076682568313,346.900731331463,596.34794493794,446.537169096228,565.271262369628,699.636437764765,3,5,3,0,6,4,vertical,vertical,horizontal,vertical,horizontal,vertical
1a,22,100185,3,18,146,19,F,NA,variable,heterogeneous,3,present,0.979093074798584,1,vertical,vertical,1,0.658824625882235,red,1,2,721.200666434388,842.519411655264,1049.42763818712,546.982518841471,721.200666434388,842.519411655264,1049.42763818712,546.982518841471,629.371695378491,410.498069503264,0,0,0,0,0,0,4,5,0,NaN,NaN,NaN,vertical,horizontal,horizontal,none,none,none
1a,22,100185,3,19,147,19,F,NA,variable,heterogeneous,6,present,1.52914595603943,1,vertical,vertical,1,0.917652979764071,green,5,3,547.481642470899,564.510859255183,956.993676208043,399.057257830286,895.524681321058,836.431882914531,1052.5183575291,635.489140744817,956.993676208043,399.057257830286,704.475318678942,363.568117085469,547.481642470899,564.510859255183,643.006323791957,800.942742169714,5,3,3,0,4,6,vertical,horizontal,vertical,vertical,vertical,vertical
1a,22,100185,3,20,148,19,F,NA,variable,heterogeneous,5,present,1.59072399139404,0,horizontal,vertical,1,0.741179102117365,green,1,4,919.715248510402,825.151636179026,570.807518193712,488.215357568785,919.715248510402,825.151636179026,1051.12597701811,555.719714694933,835.489140744817,347.4816424709,570.807518193712,488.215357568785,622.862115532956,783.431649086356,0,0,4,6,0,3,5,NaN,horizontal,horizontal,horizontal,horizontal,vertical,none
1a,22,100185,3,21,149,19,F,NA,variable,heterogeneous,4,absent,1.09616208076477,1,vertical,vertical,1,0.870593279058283,red,2,NaN,1034.72873763037,500.363562235235,NaN,NaN,899.636437764765,834.728737630372,1034.72873763037,500.363562235235,700.363562235235,365.271262369628,565.271262369628,699.636437764765,0,0,0,0,6,4,5,0,NaN,NaN,horizontal,vertical,vertical,vertical,none,none
1a,22,100185,3,22,150,19,F,NA,variable,heterogeneous,6,present,NaN,0,horizontal,none,0,0.976477605646307,green,5,1,570.807518193712,488.215357568785,817.787900804752,854.378832816255,817.787900804752,854.378832816255,1029.19248180629,711.784642431215,1011.40458100154,457.40580961496,782.212099195248,345.621167183745,570.807518193712,488.215357568785,588.595418998464,742.594190385041,5,3,5,0,4,3,vertical,vertical,horizontal,horizontal,horizontal,vertical
1a,22,100185,3,23,151,19,F,NA,variable,heterogeneous,5,present,NaN,0,vertical,none,0,0.917652979764071,red,5,1,550.57236181288,653.017481158529,773.345241866748,853.60308331891,773.345241866748,853.60308331891,1032.95409169886,703.717843984329,970.628304621509,410.498069503264,672.5,379.163522034968,550.57236181288,653.017481158529,0,0,3,3,6,0,4,NaN,horizontal,horizontal,vertical,horizontal,vertical,none
1a,22,100185,3,24,152,19,F,NA,variable,heterogeneous,5,absent,1.48460698127747,1,vertical,vertical,1,1.01177238117565,red,1,NaN,857.362518857686,848.464366520235,NaN,NaN,857.362518857686,848.464366520235,1054.0296480134,622.224714400653,899.636437764765,365.271262369628,607.549057043193,432.704947607421,581.422338320961,731.334709102064,0,0,4,6,5,3,0,NaN,vertical,vertical,horizontal,horizontal,horizontal,none
1a,22,100185,3,25,153,19,F,NA,variable,heterogeneous,6,present,2.00041103363037,1,horizontal,horizontal,1,0.870593279058283,red,3,1,986.495193912888,426.090418184063,857.362518857686,848.464366520235,857.362518857686,848.464366520235,1043.85771277057,674.554784704298,986.495193912888,426.090418184063,742.637481142314,351.535633479765,556.142287229426,525.445215295702,613.504806087112,773.909581815937,0,6,4,3,3,6,horizontal,vertical,horizontal,horizontal,horizontal,horizontal
1a,22,100185,3,26,154,19,F,NA,variable,heterogeneous,3,present,1.67667603492737,1,vertical,vertical,1,0.800003727999601,green,2,1,887.215136548046,360.378381699593,963.910840470068,795.341332995339,963.910840470068,795.341332995339,887.215136548046,360.378381699593,548.874022981887,644.280285305067,0,0,0,0,0,0,3,4,6,NaN,NaN,NaN,vertical,vertical,vertical,none,none,none
1a,22,100185,3,27,155,19,F,NA,variable,heterogeneous,6,present,0.883109092712402,1,vertical,vertical,1,1.04706715670499,red,2,4,1052.5183575291,635.489140744817,704.475318678942,363.568117085469,895.524681321058,836.431882914531,1052.5183575291,635.489140744817,956.993676208043,399.057257830286,704.475318678942,363.568117085469,547.481642470899,564.510859255183,643.006323791957,800.942742169714,0,4,6,0,5,3,horizontal,vertical,horizontal,vertical,vertical,vertical
1a,22,100185,3,28,156,19,F,NA,variable,heterogeneous,6,absent,1.51068305969238,1,horizontal,horizontal,1,1.07059700705788,green,6,NaN,560.378381699593,687.215136548046,NaN,NaN,755.719714694933,851.125977018113,995.341332995339,763.910840470068,1039.62161830041,512.784863451954,844.280285305067,348.874022981887,604.658667004661,436.089159529932,560.378381699593,687.215136548046,5,5,3,0,6,4,horizontal,vertical,vertical,horizontal,horizontal,horizontal
1a,22,100185,3,29,157,19,F,NA,variable,heterogeneous,4,present,0.856584072113037,1,vertical,vertical,1,0.976477605646307,red,3,2,643.006323791957,399.057257830286,1000.94274216971,443.006323791957,956.993676208043,800.942742169714,1000.94274216971,443.006323791957,643.006323791957,399.057257830286,599.057257830286,756.993676208043,0,0,0,0,0,6,4,0,NaN,NaN,horizontal,vertical,vertical,horizontal,none,none
1a,22,100185,3,30,158,19,F,NA,variable,heterogeneous,4,present,0.938060998916626,1,vertical,vertical,1,0.611764925176447,green,4,1,563.568117085469,504.475318678942,704.475318678942,836.431882914531,704.475318678942,836.431882914531,1036.43188291453,695.524681321058,895.524681321058,363.568117085469,563.568117085469,504.475318678942,0,0,0,0,6,3,0,4,NaN,NaN,vertical,vertical,vertical,vertical,none,none
1a,22,100185,3,31,159,19,F,NA,variable,heterogeneous,4,present,0.911181211471558,1,horizontal,horizontal,1,0.917652979764071,green,1,2,738.309916622085,847.425410200379,1047.42541020038,661.690083377915,738.309916622085,847.425410200379,1047.42541020038,661.690083377915,861.690083377915,352.574589799621,552.574589799621,538.309916622085,0,0,0,0,4,0,3,3,NaN,NaN,horizontal,horizontal,horizontal,horizontal,none,none
1a,22,100185,3,32,160,19,F,NA,variable,heterogeneous,6,present,1.202397108078,1,vertical,vertical,1,1.04706715670499,green,3,6,980.31222920257,419.68777079743,619.68777079743,780.31222920257,865.998856501143,846.311085703712,1046.31108570371,665.998856501143,980.31222920257,419.68777079743,734.001143498857,353.688914296288,553.688914296288,534.001143498857,619.68777079743,780.31222920257,5,3,4,0,6,6,vertical,horizontal,vertical,horizontal,vertical,vertical
1a,22,100185,3,33,161,19,F,NA,variable,heterogeneous,3,present,0.767292976379395,1,horizontal,horizontal,1,1.0235373063521,red,3,2,579.163522034968,727.5,800,345,1020.83647796503,727.5,800,345,579.163522034968,727.5,0,0,0,0,0,0,6,6,4,NaN,NaN,NaN,horizontal,vertical,horizontal,none,none,none
1a,22,100185,3,34,162,19,F,NA,variable,heterogeneous,4,present,0.834984064102173,1,vertical,vertical,1,0.611764925176447,red,1,4,899.636437764765,834.728737630372,565.271262369628,699.636437764765,899.636437764765,834.728737630372,1034.72873763037,500.363562235235,700.363562235235,365.271262369628,565.271262369628,699.636437764765,0,0,0,0,4,3,6,0,NaN,NaN,vertical,horizontal,horizontal,vertical,none,none
1a,22,100185,3,35,163,19,F,NA,variable,heterogeneous,3,present,0.809123992919922,1,vertical,vertical,1,1.05883208188144,green,1,2,639.523300282292,798.172220171528,1051.86052685176,639.890788585259,639.523300282292,798.172220171528,1051.86052685176,639.890788585259,708.616172865948,361.936991243214,0,0,0,0,0,0,4,5,3,NaN,NaN,NaN,vertical,horizontal,vertical,none,none,none
1a,22,100185,3,36,164,19,F,NA,variable,heterogeneous,5,present,1.21295595169067,1,horizontal,horizontal,1,0.976477605646307,green,3,5,1042.51941165526,521.200666434388,557.480588344736,521.200666434388,650.114760665419,806.299333565612,949.885239334581,806.299333565612,1042.51941165526,521.200666434388,800,345,557.480588344736,521.200666434388,0,0,3,0,4,6,5,NaN,vertical,horizontal,horizontal,vertical,vertical,none
1a,22,100185,3,37,165,19,F,NA,variable,heterogeneous,4,absent,0.93681812286377,1,horizontal,horizontal,1,0.764708952470259,green,2,NaN,995.341332995339,763.910840470068,NaN,NaN,636.089159529932,795.341332995339,995.341332995339,763.910840470068,963.910840470068,404.658667004661,604.658667004661,436.089159529932,0,0,0,0,3,4,6,3,NaN,NaN,horizontal,horizontal,horizontal,horizontal,none,none
1a,22,100185,3,38,166,19,F,NA,variable,heterogeneous,3,absent,0.872850894927979,1,horizontal,horizontal,1,0.858828353881836,red,2,NaN,963.910840470068,404.658667004661,NaN,NaN,887.215136548046,839.621618300407,963.910840470068,404.658667004661,548.874022981887,555.719714694933,0,0,0,0,0,0,6,4,0,NaN,NaN,NaN,vertical,horizontal,horizontal,none,none,none
1a,22,100185,3,39,167,19,F,NA,variable,heterogeneous,3,present,0.77122688293457,1,horizontal,horizontal,1,0.835298503528942,green,3,1,561.936991243214,691.383827134052,998.172220171528,760.476699717708,998.172220171528,760.476699717708,839.890788585259,348.13947314824,561.936991243214,691.383827134052,0,0,0,0,0,0,6,0,4,NaN,NaN,NaN,vertical,vertical,horizontal,none,none,none
1a,22,100185,3,40,168,19,F,NA,variable,heterogeneous,5,absent,0.919027090072632,1,horizontal,horizontal,1,0.811768653176048,green,1,NaN,738.309916622085,847.425410200379,NaN,NaN,738.309916622085,847.425410200379,1016.25226451989,735.129412379467,995.341332995339,436.089159529932,704.475318678942,363.568117085469,545.621167183745,617.787900804752,0,0,4,6,6,3,0,NaN,horizontal,horizontal,horizontal,horizontal,vertical,none
1a,22,100185,3,41,169,19,F,NA,variable,heterogeneous,4,absent,0.996756076812744,1,vertical,vertical,1,0.952947755293413,green,3,NaN,804.450363641507,345.03883773512,NaN,NaN,795.549636358493,854.96116226488,1054.96116226488,604.450363641507,804.450363641507,345.03883773512,545.03883773512,595.549636358493,0,0,0,0,3,6,4,5,NaN,NaN,horizontal,vertical,vertical,horizontal,none,none
1a,22,100185,3,42,170,19,F,NA,variable,heterogeneous,5,present,0.87066912651062,1,vertical,vertical,1,0.694119401411577,red,2,1,1052.5183575291,635.489140744817,844.280285305067,851.125977018113,844.280285305067,851.125977018113,1052.5183575291,635.489140744817,911.784642431215,370.807518193712,616.568350913644,422.862115532956,574.848363820974,719.715248510402,0,0,5,4,6,0,5,NaN,horizontal,vertical,horizontal,horizontal,horizontal,none
1a,22,100185,3,43,171,19,F,NA,variable,heterogeneous,6,absent,1.02499890327454,1,vertical,vertical,1,1.03530223152854,green,1,NaN,887.215136548046,839.621618300407,NaN,NaN,887.215136548046,839.621618300407,1051.12597701811,644.280285305067,963.910840470068,404.658667004661,712.784863451954,360.378381699593,548.874022981887,555.719714694933,636.089159529932,795.341332995339,4,0,0,5,6,5,vertical,vertical,horizontal,horizontal,horizontal,horizontal
1a,22,100185,3,44,172,19,F,NA,variable,heterogeneous,6,absent,NaN,0,horizontal,none,0,0.635294775529341,red,4,NaN,704.475318678942,363.568117085469,NaN,NaN,895.524681321058,836.431882914531,1052.5183575291,635.489140744817,956.993676208043,399.057257830286,704.475318678942,363.568117085469,547.481642470899,564.510859255183,643.006323791957,800.942742169714,0,6,5,4,0,6,horizontal,vertical,vertical,horizontal,vertical,vertical
1a,22,100185,3,45,173,19,F,NA,variable,heterogeneous,3,absent,0.733649969100952,1,horizontal,horizontal,1,0.952947755293413,green,1,NaN,967.295052392579,792.450942956807,NaN,NaN,967.295052392579,792.450942956807,883.019879386575,358.892763222174,549.685068220846,648.656293821019,0,0,0,0,0,0,4,0,0,NaN,NaN,NaN,horizontal,horizontal,vertical,none,none,none
1a,22,100185,3,46,174,19,F,NA,variable,heterogeneous,6,absent,1.35873413085938,1,horizontal,horizontal,1,0.705884326588024,red,3,NaN,1016.25226451989,464.870587620533,NaN,NaN,808.899371659138,854.844660889869,1025.15163617903,719.715248510402,1016.25226451989,464.870587620533,791.100628340862,345.155339110131,574.848363820974,480.284751489598,583.747735480111,735.129412379467,6,5,4,6,0,3,vertical,horizontal,horizontal,vertical,horizontal,vertical
1a,22,100185,3,47,175,19,F,NA,variable,heterogeneous,5,absent,0.94766092300415,1,vertical,vertical,1,0.670589551058683,green,2,NaN,1025.15163617903,719.715248510402,NaN,NaN,755.719714694933,851.125977018113,1025.15163617903,719.715248510402,983.431649086356,422.862115532956,688.215357568785,370.807518193712,547.481642470899,635.489140744817,0,0,6,4,6,0,3,NaN,horizontal,vertical,vertical,horizontal,horizontal,none
1a,22,100185,3,48,176,19,F,NA,variable,heterogeneous,6,present,1.38195085525513,1,horizontal,horizontal,1,0.764708952470259,green,1,5,800,855,579.163522034968,472.5,800,855,1020.83647796503,727.5,1020.83647796503,472.5,800,345,579.163522034968,472.5,579.163522034968,727.5,4,0,3,6,0,3,horizontal,horizontal,horizontal,horizontal,horizontal,horizontal
1a,22,100185,3,49,177,19,F,NA,variable,heterogeneous,6,present,1.93960094451904,1,vertical,vertical,1,1.09412685741078,red,3,5,1016.25226451989,464.870587620533,574.848363820974,480.284751489598,808.899371659138,854.844660889869,1025.15163617903,719.715248510402,1016.25226451989,464.870587620533,791.100628340862,345.155339110131,574.848363820974,480.284751489598,583.747735480111,735.129412379467,5,3,4,0,6,3,vertical,vertical,vertical,vertical,vertical,horizontal
1a,22,100185,3,50,178,19,F,NA,variable,heterogeneous,4,absent,0.884944915771484,1,horizontal,horizontal,1,0.929417904940518,red,2,NaN,1000.94274216971,756.993676208043,NaN,NaN,643.006323791957,800.942742169714,1000.94274216971,756.993676208043,956.993676208043,399.057257830286,599.057257830286,443.006323791957,0,0,0,0,6,4,3,0,NaN,NaN,vertical,horizontal,vertical,horizontal,none,none
1a,22,100185,3,51,179,19,F,NA,variable,heterogeneous,5,absent,1.63284015655518,1,vertical,vertical,1,0.894123129411177,red,5,NaN,553.688914296288,534.001143498857,NaN,NaN,661.117046071168,813.860994826083,960.476699717708,798.172220171528,1038.06300875679,508.616172865948,786.654331158049,345.349468637584,553.688914296288,534.001143498857,0,0,6,3,5,6,4,NaN,horizontal,horizontal,vertical,vertical,vertical,none
1a,22,100185,3,52,180,19,F,NA,variable,heterogeneous,6,absent,0.922780990600586,1,vertical,vertical,1,0.658824625882235,red,4,NaN,870.287525733335,354.878267535729,NaN,NaN,729.712474266665,845.121732464271,977.137884467044,783.431649086356,1047.42541020038,538.309916622085,870.287525733335,354.878267535729,622.862115532956,416.568350913644,552.574589799621,661.690083377915,5,6,3,4,3,5,horizontal,vertical,vertical,vertical,vertical,vertical
1a,22,100185,3,53,181,19,F,NA,variable,heterogeneous,3,absent,0.67389178276062,1,horizontal,horizontal,1,1.0235373063521,green,3,NaN,596.34794493794,446.537169096228,NaN,NaN,768.923317431687,853.099268668537,1034.72873763037,500.363562235235,596.34794493794,446.537169096228,0,0,0,0,0,0,0,0,4,NaN,NaN,NaN,vertical,vertical,horizontal,none,none,none
1a,22,100185,3,54,182,19,F,NA,variable,heterogeneous,4,present,0.700641870498657,1,vertical,vertical,1,1.05883208188144,green,1,2,870.287525733335,845.121732464271,1045.12173246427,529.712474266665,870.287525733335,845.121732464271,1045.12173246427,529.712474266665,729.712474266665,354.878267535729,554.878267535729,670.287525733335,0,0,0,0,4,6,3,5,NaN,NaN,vertical,vertical,horizontal,vertical,none,none
1a,22,100185,3,55,183,19,F,NA,variable,heterogeneous,4,present,1.06551003456116,1,horizontal,horizontal,1,0.929417904940518,red,2,3,1023.02802532055,476.373546837184,676.373546837184,376.971974679454,923.626453162816,823.028025320546,1023.02802532055,476.373546837184,676.373546837184,376.971974679454,576.971974679454,723.626453162816,0,0,0,0,0,4,5,3,NaN,NaN,vertical,horizontal,vertical,vertical,none,none
1a,22,100185,3,56,184,19,F,NA,variable,heterogeneous,4,absent,0.732707977294922,1,vertical,vertical,1,0.894123129411177,green,3,NaN,721.200666434388,357.480588344736,NaN,NaN,878.799333565612,842.519411655264,1042.51941165526,521.200666434388,721.200666434388,357.480588344736,557.480588344736,678.799333565612,0,0,0,0,6,0,4,6,NaN,NaN,vertical,vertical,vertical,horizontal,none,none
1a,22,100185,3,57,185,19,F,NA,variable,heterogeneous,6,absent,1.09042310714722,1,horizontal,horizontal,1,0.941182830116966,green,3,NaN,980.31222920257,419.68777079743,NaN,NaN,865.998856501143,846.311085703712,1046.31108570371,665.998856501143,980.31222920257,419.68777079743,734.001143498857,353.688914296288,553.688914296288,534.001143498857,619.68777079743,780.31222920257,6,0,4,5,3,0,vertical,horizontal,horizontal,horizontal,vertical,horizontal
1a,22,100185,3,58,186,19,F,NA,variable,heterogeneous,6,absent,0.998872995376587,1,vertical,vertical,1,0.917652979764071,green,4,NaN,895.524681321058,363.568117085469,NaN,NaN,704.475318678942,836.431882914531,956.993676208043,800.942742169714,1052.5183575291,564.510859255183,895.524681321058,363.568117085469,643.006323791957,399.057257830286,547.481642470899,635.489140744817,3,0,6,4,3,0,vertical,horizontal,horizontal,vertical,vertical,vertical
1a,22,100185,3,59,187,19,F,NA,variable,heterogeneous,6,present,1.00196504592896,1,horizontal,horizontal,1,0.952947755293413,red,3,1,1054.37883281626,582.212099195248,688.215357568785,829.192481806288,688.215357568785,829.192481806288,942.594190385041,811.404581001536,1054.37883281626,582.212099195248,911.784642431215,370.807518193712,657.405809614959,388.595418998464,545.621167183745,617.787900804752,6,5,4,0,5,0,vertical,vertical,horizontal,vertical,vertical,vertical
1a,22,100185,3,60,188,19,F,NA,variable,heterogeneous,3,absent,1.04198694229126,1,vertical,vertical,1,0.788238802823153,green,3,NaN,664.870587620533,383.747735480111,NaN,NaN,680.284751489598,825.151636179026,1054.84466088987,591.100628340862,664.870587620533,383.747735480111,0,0,0,0,0,0,3,0,4,NaN,NaN,NaN,horizontal,vertical,vertical,none,none,none
1a,22,100185,3,61,189,19,F,NA,variable,heterogeneous,3,present,1.24081110954285,1,horizontal,horizontal,1,0.68235447623513,red,3,1,700.363562235235,365.271262369628,646.537169096228,803.65205506206,646.537169096228,803.65205506206,1053.09926866854,631.076682568313,700.363562235235,365.271262369628,0,0,0,0,0,0,5,0,4,NaN,NaN,NaN,vertical,horizontal,horizontal,none,none,none
1a,22,100185,3,62,190,19,F,NA,variable,heterogeneous,3,absent,0.786155939102173,1,vertical,vertical,1,0.623529850352894,red,2,NaN,865.998856501143,353.688914296288,NaN,NaN,980.31222920257,780.31222920257,865.998856501143,353.688914296288,553.688914296288,665.998856501143,0,0,0,0,0,0,0,4,6,NaN,NaN,NaN,horizontal,vertical,vertical,none,none,none
1a,22,100185,3,63,191,19,F,NA,variable,heterogeneous,4,absent,1.18520593643188,1,vertical,vertical,1,0.96471268046986,red,1,NaN,639.523300282292,798.172220171528,NaN,NaN,639.523300282292,798.172220171528,998.172220171528,760.476699717708,960.476699717708,401.827779828472,601.827779828472,439.523300282291,0,0,0,0,4,0,5,6,NaN,NaN,vertical,horizontal,vertical,vertical,none,none
1a,22,100185,3,64,192,19,F,NA,variable,heterogeneous,4,present,1.48820900917053,1,horizontal,horizontal,1,0.96471268046986,red,4,2,568.891514305654,707.767656743878,1031.10848569435,492.232343256122,907.767656743878,831.108485694346,1031.10848569435,492.232343256122,692.232343256122,368.891514305654,568.891514305654,707.767656743878,0,0,0,0,6,5,3,4,NaN,NaN,horizontal,horizontal,horizontal,horizontal,none,none
1a,22,100185,4,1,193,19,F,NA,variable,heterogeneous,6,absent,1.30476689338684,1,horizontal,horizontal,1,0.611764925176447,green,2,NaN,992.450942956807,767.295052392579,NaN,NaN,751.343706178981,850.314931779154,992.450942956807,767.295052392579,1041.10723677783,516.980120613425,848.656293821019,349.685068220846,607.549057043193,432.704947607421,558.892763222174,683.019879386575,6,4,0,0,5,6,vertical,horizontal,vertical,vertical,horizontal,vertical
1a,22,100185,4,2,194,19,F,NA,variable,heterogeneous,6,present,1.0197160243988,1,vertical,vertical,1,1.0235373063521,green,2,3,1020.83647796503,727.5,1020.83647796503,472.5,800,855,1020.83647796503,727.5,1020.83647796503,472.5,800,345,579.163522034968,472.5,579.163522034968,727.5,0,4,5,6,3,5,horizontal,vertical,vertical,horizontal,horizontal,horizontal
1a,22,100185,4,3,195,19,F,NA,variable,heterogeneous,4,absent,0.854286909103394,1,vertical,vertical,1,0.694119401411577,green,3,NaN,817.787900804752,345.621167183745,NaN,NaN,782.212099195248,854.378832816255,1054.37883281626,617.787900804752,817.787900804752,345.621167183745,545.621167183745,582.212099195248,0,0,0,0,3,6,4,0,NaN,NaN,vertical,vertical,vertical,horizontal,none,none
1a,22,100185,4,4,196,19,F,NA,variable,heterogeneous,6,present,0.711679935455322,1,vertical,vertical,1,0.611764925176447,green,2,1,963.910840470068,795.341332995339,712.784863451954,839.621618300407,712.784863451954,839.621618300407,963.910840470068,795.341332995339,1051.12597701811,555.719714694933,887.215136548046,360.378381699593,636.089159529932,404.658667004661,548.874022981887,644.280285305067,0,4,6,5,3,0,horizontal,vertical,horizontal,horizontal,horizontal,horizontal
1a,22,100185,4,5,197,19,F,NA,variable,heterogeneous,5,absent,0.705070018768311,1,vertical,vertical,1,0.952947755293413,green,3,NaN,899.636437764765,365.271262369628,NaN,NaN,857.362518857686,848.464366520235,1054.0296480134,622.224714400653,899.636437764765,365.271262369628,607.549057043193,432.704947607421,581.422338320961,731.334709102064,0,0,0,6,4,3,3,NaN,vertical,vertical,vertical,vertical,horizontal,none
1a,22,100185,4,6,198,19,F,NA,variable,heterogeneous,4,absent,0.943441152572632,1,vertical,vertical,1,1.01177238117565,red,1,NaN,619.68777079743,780.31222920257,NaN,NaN,619.68777079743,780.31222920257,980.31222920257,780.31222920257,980.31222920257,419.68777079743,619.68777079743,419.68777079743,0,0,0,0,4,5,6,3,NaN,NaN,vertical,horizontal,vertical,horizontal,none,none
1a,22,100185,4,7,199,19,F,NA,variable,heterogeneous,6,absent,1.16342091560364,1,vertical,vertical,1,0.635294775529341,green,5,NaN,581.422338320961,468.665290897936,NaN,NaN,795.549636358493,854.96116226488,1018.57766167904,731.334709102064,1023.02802532055,476.373546837184,804.450363641507,345.03883773512,581.422338320961,468.665290897936,576.971974679454,723.626453162816,6,5,0,6,4,3,horizontal,horizontal,horizontal,vertical,vertical,horizontal
1a,22,100185,4,8,200,19,F,NA,variable,heterogeneous,4,present,0.738465785980225,1,vertical,vertical,1,0.776473877646706,red,2,3,1054.0296480134,622.224714400653,822.224714400653,345.970351986605,777.775285599347,854.029648013395,1054.0296480134,622.224714400653,822.224714400653,345.970351986605,545.970351986605,577.775285599347,0,0,0,0,0,4,6,6,NaN,NaN,horizontal,vertical,horizontal,horizontal,none,none
1a,22,100185,4,9,201,19,F,NA,variable,heterogeneous,5,present,1.16850018501282,1,horizontal,horizontal,1,0.741179102117365,green,3,4,1031.10848569435,492.232343256122,768.923317431687,346.900731331463,676.373546837184,823.028025320546,973.909581815937,786.495193912888,1031.10848569435,492.232343256122,768.923317431687,346.900731331463,549.685068220846,551.343706178981,0,0,3,5,4,0,3,NaN,vertical,horizontal,horizontal,vertical,horizontal,none
1a,22,100185,4,10,202,19,F,NA,variable,heterogeneous,5,present,0.902441024780273,1,horizontal,horizontal,1,0.729414176940918,red,4,5,572.793336331966,484.232422566416,619.68777079743,780.31222920257,915.767577433584,827.206663668034,1051.86052685176,560.109211414741,839.890788585259,348.13947314824,572.793336331966,484.232422566416,619.68777079743,780.31222920257,0,0,3,5,0,4,3,NaN,horizontal,horizontal,vertical,horizontal,horizontal,none
1a,22,100185,4,11,203,19,F,NA,variable,heterogeneous,3,absent,0.679306983947754,1,vertical,vertical,1,0.941182830116966,green,1,NaN,946.261991269517,808.883771293693,NaN,NaN,946.261991269517,808.883771293693,907.767656743878,368.891514305654,545.970351986605,622.224714400653,0,0,0,0,0,0,4,5,6,NaN,NaN,NaN,vertical,vertical,vertical,none,none,none
1a,22,100185,4,12,204,19,F,NA,variable,heterogeneous,6,absent,1.01496195793152,1,vertical,vertical,1,0.894123129411177,red,4,NaN,721.200666434388,357.480588344736,NaN,NaN,878.799333565612,842.519411655264,1049.42763818712,653.017481158529,970.628304621509,410.498069503264,721.200666434388,357.480588344736,550.57236181288,546.982518841471,629.371695378491,789.501930496736,0,5,3,4,3,6,vertical,vertical,horizontal,vertical,vertical,vertical
1a,22,100185,4,13,205,19,F,NA,variable,heterogeneous,3,present,1.01106595993042,1,vertical,vertical,1,0.988242530822754,green,3,1,664.870587620533,383.747735480111,680.284751489598,825.151636179026,680.284751489598,825.151636179026,1054.84466088987,591.100628340862,664.870587620533,383.747735480111,0,0,0,0,0,0,6,3,4,NaN,NaN,NaN,horizontal,vertical,vertical,none,none,none
1a,22,100185,4,14,206,19,F,NA,variable,heterogeneous,4,absent,0.97687816619873,1,horizontal,horizontal,1,0.658824625882235,red,2,NaN,1043.85771277057,525.445215295702,NaN,NaN,874.554784704298,843.857712770574,1043.85771277057,525.445215295702,725.445215295702,356.142287229426,556.142287229426,674.554784704298,0,0,0,0,6,4,5,6,NaN,NaN,vertical,horizontal,vertical,horizontal,none,none
1a,22,100185,4,15,207,19,F,NA,variable,heterogeneous,3,present,0.647234916687012,1,horizontal,horizontal,1,0.717649251764471,green,2,3,1053.60308331891,626.654758133252,696.282156015671,367.045908301137,650.114760665419,806.299333565612,1053.60308331891,626.654758133252,696.282156015671,367.045908301137,0,0,0,0,0,0,0,4,5,NaN,NaN,NaN,vertical,horizontal,vertical,none,none,none
1a,22,100185,4,16,208,19,F,NA,variable,heterogeneous,6,absent,1.20414805412292,1,horizontal,horizontal,1,0.6,red,5,NaN,546.900731331463,568.923317431687,NaN,NaN,899.636437764765,834.728737630372,1053.09926866854,631.076682568313,953.462830903772,396.34794493794,700.363562235235,365.271262369628,546.900731331463,568.923317431687,646.537169096228,803.65205506206,3,5,0,6,4,6,horizontal,vertical,horizontal,horizontal,horizontal,vertical
1a,22,100185,4,17,209,19,F,NA,variable,heterogeneous,3,present,0.664685964584351,1,vertical,vertical,1,0.800003727999601,red,3,1,616.568350913644,422.862115532956,738.309916622085,847.425410200379,738.309916622085,847.425410200379,1045.12173246427,529.712474266665,616.568350913644,422.862115532956,0,0,0,0,0,0,0,5,4,NaN,NaN,NaN,horizontal,horizontal,vertical,none,none,none
1a,22,100185,4,18,210,19,F,NA,variable,heterogeneous,3,absent,1.18672585487366,1,vertical,vertical,1,1.0235373063521,red,2,NaN,1041.10723677783,516.980120613425,NaN,NaN,751.343706178981,850.314931779154,1041.10723677783,516.980120613425,607.549057043193,432.704947607421,0,0,0,0,0,0,5,4,3,NaN,NaN,NaN,vertical,vertical,horizontal,none,none,none
1a,22,100185,4,19,211,19,F,NA,variable,heterogeneous,6,present,1.0377950668335,1,vertical,vertical,1,0.764708952470259,red,4,3,676.373546837184,376.971974679454,931.334709102064,381.422338320961,923.626453162816,823.028025320546,1054.96116226488,604.450363641507,931.334709102064,381.422338320961,676.373546837184,376.971974679454,545.03883773512,595.549636358493,668.665290897936,818.577661679039,0,0,3,4,3,5,vertical,vertical,horizontal,vertical,vertical,vertical
1a,22,100185,4,20,212,19,F,NA,variable,heterogeneous,4,present,0.792243003845215,1,vertical,vertical,1,0.870593279058283,red,3,2,861.690083377915,352.574589799621,1047.42541020038,661.690083377915,738.309916622085,847.425410200379,1047.42541020038,661.690083377915,861.690083377915,352.574589799621,552.574589799621,538.309916622085,0,0,0,0,0,6,4,3,NaN,NaN,horizontal,vertical,vertical,vertical,none,none
1a,22,100185,4,21,213,19,F,NA,variable,heterogeneous,3,absent,0.709436893463135,1,horizontal,horizontal,1,0.658824625882235,green,1,NaN,586.139005173917,738.882953928832,NaN,NaN,586.139005173917,738.882953928832,1027.20666366803,715.767577433584,786.654331158049,345.349468637584,0,0,0,0,0,0,4,6,0,NaN,NaN,NaN,horizontal,horizontal,vertical,none,none,none
1a,22,100185,4,22,214,19,F,NA,variable,heterogeneous,6,present,0.821402072906494,1,horizontal,horizontal,1,0.88235820423473,green,4,3,817.787900804752,345.621167183745,1029.19248180629,488.215357568785,782.212099195248,854.378832816255,1011.40458100154,742.594190385041,1029.19248180629,488.215357568785,817.787900804752,345.621167183745,588.595418998464,457.40580961496,570.807518193712,711.784642431215,6,3,0,4,3,6,horizontal,vertical,vertical,horizontal,horizontal,horizontal
1a,22,100185,4,23,215,19,F,NA,variable,heterogeneous,4,present,1.02901697158813,1,horizontal,horizontal,1,0.752944027293812,green,2,3,1006.29933356561,749.885239334581,949.885239334581,393.700666434388,650.114760665419,806.299333565612,1006.29933356561,749.885239334581,949.885239334581,393.700666434388,593.700666434388,450.114760665419,0,0,0,0,5,4,3,3,NaN,NaN,vertical,horizontal,horizontal,vertical,none,none
1a,22,100185,4,24,216,19,F,NA,variable,heterogeneous,6,absent,0.907594919204712,1,vertical,vertical,1,0.894123129411177,red,5,NaN,593.700666434388,450.114760665419,NaN,NaN,773.345241866748,853.60308331891,1006.29933356561,749.885239334581,1032.95409169886,496.282156015671,826.654758133252,346.39691668109,593.700666434388,450.114760665419,567.045908301137,703.717843984329,6,3,0,3,4,6,horizontal,vertical,vertical,vertical,vertical,vertical
1a,22,100185,4,25,217,19,F,NA,variable,heterogeneous,5,absent,0.766952037811279,1,vertical,vertical,1,0.647059700705788,green,2,NaN,1036.43188291453,695.524681321058,NaN,NaN,782.212099195248,854.378832816255,1036.43188291453,695.524681321058,963.910840470068,404.658667004661,664.870587620533,383.747735480111,552.574589799621,661.690083377915,0,0,5,4,6,6,0,NaN,horizontal,vertical,horizontal,vertical,horizontal,none
1a,22,100185,4,26,218,19,F,NA,variable,heterogeneous,6,present,1.361820936203,1,horizontal,horizontal,1,0.764708952470259,red,6,3,583.747735480111,735.129412379467,1016.25226451989,464.870587620533,808.899371659138,854.844660889869,1025.15163617903,719.715248510402,1016.25226451989,464.870587620533,791.100628340862,345.155339110131,574.848363820974,480.284751489598,583.747735480111,735.129412379467,5,0,0,6,5,4,vertical,horizontal,horizontal,vertical,vertical,horizontal
1a,22,100185,4,27,219,19,F,NA,variable,heterogeneous,4,absent,1.05076599121094,1,horizontal,horizontal,1,1.08236193223433,green,3,NaN,646.537169096228,396.34794493794,NaN,NaN,953.462830903772,803.65205506206,1003.65205506206,446.537169096228,646.537169096228,396.34794493794,596.34794493794,753.462830903772,0,0,0,0,5,6,4,6,NaN,NaN,vertical,horizontal,horizontal,vertical,none,none
1a,22,100185,4,28,220,19,F,NA,variable,heterogeneous,5,present,1.19610714912415,1,vertical,vertical,1,1.01177238117565,red,5,4,554.878267535729,670.287525733335,657.405809614959,388.595418998464,791.100628340862,854.844660889869,1039.62161830041,687.215136548046,956.993676208043,399.057257830286,657.405809614959,388.595418998464,554.878267535729,670.287525733335,0,0,3,6,0,6,4,NaN,vertical,horizontal,horizontal,horizontal,vertical,none
1a,22,100185,4,29,221,19,F,NA,variable,heterogeneous,3,present,0.814074993133545,1,horizontal,horizontal,1,1.09412685741078,green,3,2,549.685068220846,551.343706178981,967.295052392579,407.549057043193,883.019879386575,841.107236777826,967.295052392579,407.549057043193,549.685068220846,551.343706178981,0,0,0,0,0,0,0,3,4,NaN,NaN,NaN,vertical,vertical,horizontal,none,none,none
1a,22,100185,4,30,222,19,F,NA,variable,heterogeneous,5,absent,1.33984804153442,1,vertical,vertical,1,0.858828353881836,red,2,NaN,1045.12173246427,529.712474266665,NaN,NaN,942.594190385041,811.404581001536,1045.12173246427,529.712474266665,808.899371659138,345.155339110131,560.378381699593,512.784863451954,643.006323791957,800.942742169714,0,0,5,4,3,6,0,NaN,horizontal,vertical,horizontal,horizontal,vertical,none
1a,22,100185,4,31,223,19,F,NA,variable,heterogeneous,6,present,1.14647603034973,1,horizontal,horizontal,1,0.976477605646307,red,3,2,1039.62161830041,512.784863451954,995.341332995339,763.910840470068,755.719714694933,851.125977018113,995.341332995339,763.910840470068,1039.62161830041,512.784863451954,844.280285305067,348.874022981887,604.658667004661,436.089159529932,560.378381699593,687.215136548046,5,3,4,0,0,6,vertical,horizontal,horizontal,vertical,vertical,horizontal
1a,22,100185,4,32,224,19,F,NA,variable,heterogeneous,5,present,1.01423501968384,1,vertical,vertical,1,1.03530223152854,green,2,1,1008.88377129369,746.261991269517,725.445215295702,843.857712770574,725.445215295702,843.857712770574,1008.88377129369,746.261991269517,1003.65205506206,446.537169096228,716.980120613425,358.892763222174,545.03883773512,604.450363641507,0,0,0,4,3,6,3,NaN,horizontal,vertical,horizontal,horizontal,vertical,none
1a,22,100185,4,33,225,19,F,NA,variable,heterogeneous,3,present,0.987928152084351,1,vertical,vertical,1,0.658824625882235,green,2,3,956.993676208043,399.057257830286,547.481642470899,564.510859255183,895.524681321058,836.431882914531,956.993676208043,399.057257830286,547.481642470899,564.510859255183,0,0,0,0,0,0,6,4,3,NaN,NaN,NaN,vertical,vertical,vertical,none,none,none
1a,22,100185,4,34,226,19,F,NA,variable,heterogeneous,5,present,1.02692413330078,1,vertical,vertical,1,0.752944027293812,red,4,3,639.523300282292,401.827779828472,938.882953928832,386.139005173917,813.345668841951,854.650531362416,1046.31108570371,665.998856501143,938.882953928832,386.139005173917,639.523300282292,401.827779828472,561.936991243214,691.383827134052,0,0,6,3,3,4,0,NaN,horizontal,horizontal,vertical,vertical,horizontal,none
1a,22,100185,4,35,227,19,F,NA,variable,heterogeneous,6,present,1.25924706459045,1,horizontal,horizontal,1,0.788238802823153,green,6,3,547.481642470899,635.489140744817,1052.5183575291,564.510859255183,704.475318678942,836.431882914531,956.993676208043,800.942742169714,1052.5183575291,564.510859255183,895.524681321058,363.568117085469,643.006323791957,399.057257830286,547.481642470899,635.489140744817,5,3,0,6,3,4,vertical,horizontal,horizontal,vertical,horizontal,horizontal
1a,22,100185,4,36,228,19,F,NA,variable,heterogeneous,3,absent,1.36182594299316,1,vertical,vertical,1,0.635294775529341,green,1,NaN,581.422338320961,731.334709102064,NaN,NaN,581.422338320961,731.334709102064,1023.02802532055,723.626453162816,795.549636358493,345.03883773512,0,0,0,0,0,0,4,3,5,NaN,NaN,NaN,vertical,horizontal,vertical,none,none,none
1a,22,100185,4,37,229,19,F,NA,variable,heterogeneous,4,absent,1.80966305732727,1,horizontal,horizontal,1,1.03530223152854,red,1,NaN,973.909581815937,786.495193912888,NaN,NaN,973.909581815937,786.495193912888,986.495193912888,426.090418184063,626.090418184063,413.504806087112,613.504806087112,773.909581815937,0,0,0,0,4,5,6,3,NaN,NaN,horizontal,vertical,vertical,vertical,none,none
1a,22,100185,4,38,230,19,F,NA,variable,heterogeneous,4,present,1.2561628818512,1,vertical,vertical,1,0.717649251764471,green,3,4,946.261991269517,391.116228706307,591.116228706307,453.738008730483,653.738008730483,808.883771293693,1008.88377129369,746.261991269517,946.261991269517,391.116228706307,591.116228706307,453.738008730483,0,0,0,0,3,0,4,5,NaN,NaN,vertical,horizontal,vertical,horizontal,none,none
1a,22,100185,4,39,231,19,F,NA,variable,heterogeneous,4,absent,1.15815901756287,1,vertical,vertical,1,0.623529850352894,red,1,NaN,808.899371659138,854.844660889869,NaN,NaN,808.899371659138,854.844660889869,1054.84466088987,591.100628340862,791.100628340862,345.155339110131,545.155339110131,608.899371659138,0,0,0,0,4,5,0,5,NaN,NaN,vertical,horizontal,horizontal,vertical,none,none
1a,22,100185,4,40,232,19,F,NA,variable,heterogeneous,3,absent,1.49767899513245,1,horizontal,horizontal,1,0.823533578352495,red,3,NaN,688.215357568785,370.807518193712,NaN,NaN,657.405809614959,811.404581001536,1054.37883281626,617.787900804752,688.215357568785,370.807518193712,0,0,0,0,0,0,5,6,4,NaN,NaN,NaN,horizontal,vertical,horizontal,none,none,none
1a,22,100185,4,41,233,19,F,NA,variable,heterogeneous,3,present,1.44279789924622,1,vertical,vertical,1,0.941182830116966,red,2,3,1053.60308331891,626.654758133252,696.282156015671,367.045908301137,650.114760665419,806.299333565612,1053.60308331891,626.654758133252,696.282156015671,367.045908301137,0,0,0,0,0,0,0,4,6,NaN,NaN,NaN,horizontal,vertical,horizontal,none,none,none
1a,22,100185,4,42,234,19,F,NA,variable,heterogeneous,5,present,1.28800892829895,1,horizontal,horizontal,1,0.611764925176447,red,3,1,870.287525733335,354.878267535729,887.215136548046,839.621618300407,887.215136548046,839.621618300407,1054.84466088987,591.100628340862,870.287525733335,354.878267535729,588.595418998464,457.40580961496,599.057257830286,756.993676208043,0,0,5,3,4,6,0,NaN,vertical,vertical,horizontal,vertical,vertical,none
1a,22,100185,4,43,235,19,F,NA,variable,heterogeneous,6,absent,1.00108218193054,1,horizontal,horizontal,1,0.752944027293812,green,3,NaN,1018.57766167904,468.665290897936,NaN,NaN,804.450363641507,854.96116226488,1023.02802532055,723.626453162816,1018.57766167904,468.665290897936,795.549636358493,345.03883773512,576.971974679454,476.373546837184,581.422338320961,731.334709102064,0,3,4,5,6,3,horizontal,vertical,horizontal,horizontal,vertical,horizontal
1a,22,100185,4,44,236,19,F,NA,variable,heterogeneous,3,absent,1.06694102287292,1,horizontal,horizontal,1,0.68235447623513,green,1,NaN,989.501930496736,770.628304621509,NaN,NaN,989.501930496736,770.628304621509,853.017481158529,350.57236181288,557.480588344736,678.799333565612,0,0,0,0,0,0,4,3,0,NaN,NaN,NaN,horizontal,vertical,horizontal,none,none,none
1a,22,100185,4,45,237,19,F,NA,variable,heterogeneous,5,absent,0.814032077789307,1,horizontal,horizontal,1,0.894123129411177,red,2,NaN,989.501930496736,770.628304621509,NaN,NaN,696.282156015671,832.954091698863,989.501930496736,770.628304621509,1020.83647796503,472.5,746.982518841471,350.57236181288,546.39691668109,573.345241866748,0,0,5,4,6,3,6,NaN,vertical,horizontal,horizontal,horizontal,vertical,none
1a,22,100185,4,46,238,19,F,NA,variable,heterogeneous,3,absent,0.761656045913696,1,vertical,vertical,1,0.741179102117365,red,3,NaN,556.142287229426,525.445215295702,NaN,NaN,857.362518857686,848.464366520235,986.495193912888,426.090418184063,556.142287229426,525.445215295702,0,0,0,0,0,0,0,6,4,NaN,NaN,NaN,vertical,vertical,vertical,none,none,none
1a,22,100185,4,47,239,19,F,NA,variable,heterogeneous,3,absent,0.853214025497437,1,horizontal,horizontal,1,0.623529850352894,red,1,NaN,777.775285599347,854.029648013395,NaN,NaN,777.775285599347,854.029648013395,1031.10848569435,492.232343256122,591.116228706307,453.738008730483,0,0,0,0,0,0,4,5,3,NaN,NaN,NaN,horizontal,horizontal,horizontal,none,none,none
1a,22,100185,4,48,240,19,F,NA,variable,heterogeneous,6,absent,0.927480936050415,1,horizontal,horizontal,1,0.858828353881836,red,4,NaN,800,345,NaN,NaN,800,855,1020.83647796503,727.5,1020.83647796503,472.5,800,345,579.163522034968,472.5,579.163522034968,727.5,0,3,5,4,6,0,horizontal,horizontal,horizontal,horizontal,vertical,vertical
1a,22,100185,4,49,241,19,F,NA,variable,heterogeneous,4,present,0.734776020050049,1,horizontal,horizontal,1,0.823533578352495,red,4,3,556.142287229426,674.554784704298,725.445215295702,356.142287229426,874.554784704298,843.857712770574,1043.85771277057,525.445215295702,725.445215295702,356.142287229426,556.142287229426,674.554784704298,0,0,0,0,5,0,6,4,NaN,NaN,horizontal,horizontal,vertical,horizontal,none,none
1a,22,100185,4,50,242,19,F,NA,variable,heterogeneous,3,present,1.14424705505371,1,horizontal,horizontal,1,0.729414176940918,red,2,3,960.476699717708,401.827779828472,548.13947314824,560.109211414741,891.383827134052,838.063008756786,960.476699717708,401.827779828472,548.13947314824,560.109211414741,0,0,0,0,0,0,5,4,6,NaN,NaN,NaN,vertical,horizontal,vertical,none,none,none
1a,22,100185,4,51,243,19,F,NA,variable,heterogeneous,4,absent,1.78947997093201,1,horizontal,horizontal,1,0.905888054587624,green,4,NaN,552.574589799621,661.690083377915,NaN,NaN,861.690083377915,847.425410200379,1047.42541020038,538.309916622085,738.309916622085,352.574589799621,552.574589799621,661.690083377915,0,0,0,0,6,5,3,4,NaN,NaN,vertical,vertical,horizontal,horizontal,none,none
1a,22,100185,4,52,244,19,F,NA,variable,heterogeneous,5,absent,0.699177980422974,1,vertical,vertical,1,0.68235447623513,red,2,NaN,1047.42541020038,538.309916622085,NaN,NaN,935.129412379467,816.252264519889,1047.42541020038,538.309916622085,817.787900804752,345.621167183745,563.568117085469,504.475318678942,636.089159529932,795.341332995339,0,0,0,4,0,3,6,NaN,vertical,vertical,horizontal,horizontal,vertical,none
