experiment,subject,uniqueID,block,trial,trial_cumulative,age,gender,color_cond_blocking,color_history,shape_type,set_size,distractor,rt,acc,target_orient,response_key,response_made,iti,target_color,target_item,distractor_item,target_X,target_Y,distractor_X,distractor_Y,item1_X,item1_Y,item2_X,item2_Y,item3_X,item3_Y,item4_X,item4_Y,item5_X,item5_Y,item6_X,item6_Y,item1_shape,item2_shape,item3_shape,item4_shape,item5_shape,item6_shape,item1_line,item2_line,item3_line,item4_line,item5_line,item6_line
1a,23,100192,1,1,1,19,F,NA,variable,heterogeneous,4,absent,1.20809602737427,1,vertical,vertical,1,0.75293734649132,green,4,NaN,545.03883773512,604.450363641507,NaN,NaN,804.450363641507,854.96116226488,1054.96116226488,595.549636358493,795.549636358493,345.03883773512,545.03883773512,604.450363641507,0,0,0,0,5,3,0,4,NaN,NaN,horizontal,vertical,vertical,vertical,none,none
1a,23,100192,1,2,2,19,F,NA,variable,heterogeneous,5,absent,NaN,0,horizontal,none,0,1.0470476282054,red,5,NaN,610.498069503264,770.628304621509,NaN,NaN,903.717843984329,832.954091698863,1053.60308331891,573.345241866748,853.017481158529,350.57236181288,579.163522034968,472.5,610.498069503264,770.628304621509,0,0,5,0,5,3,4,NaN,horizontal,horizontal,horizontal,horizontal,horizontal,none
1a,23,100192,1,3,3,19,F,NA,variable,heterogeneous,4,present,1.38149189949036,1,horizontal,horizontal,1,0.811759402834136,green,4,2,551.535633479765,542.637481142314,1048.46436652023,657.362518857686,742.637481142314,848.464366520235,1048.46436652023,657.362518857686,857.362518857686,351.535633479765,551.535633479765,542.637481142314,0,0,0,0,5,6,6,4,NaN,NaN,horizontal,vertical,horizontal,horizontal,none,none
1a,23,100192,1,4,4,19,F,NA,variable,heterogeneous,4,absent,1.14093804359436,1,vertical,vertical,1,0.988225571862583,red,2,NaN,1054.37883281626,582.212099195248,NaN,NaN,817.787900804752,854.378832816255,1054.37883281626,582.212099195248,782.212099195248,345.621167183745,545.621167183745,617.787900804752,0,0,0,0,6,4,3,0,NaN,NaN,vertical,vertical,vertical,horizontal,none,none
1a,23,100192,1,5,5,19,F,NA,variable,heterogeneous,4,absent,1.15544486045837,1,horizontal,horizontal,1,0.976461160594019,green,2,NaN,1032.95409169886,496.282156015671,NaN,NaN,903.717843984329,832.954091698863,1032.95409169886,496.282156015671,696.282156015671,367.045908301137,567.045908301137,703.717843984329,0,0,0,0,6,4,5,3,NaN,NaN,vertical,horizontal,vertical,horizontal,none,none
1a,23,100192,1,6,6,19,F,NA,variable,heterogeneous,5,present,1.74455380439758,1,vertical,vertical,1,0.694115290148505,green,1,5,653.738008730483,808.883771293693,556.142287229426,525.445215295702,653.738008730483,808.883771293693,953.462830903772,803.65205506206,1041.10723677783,516.980120613425,795.549636358493,345.03883773512,556.142287229426,525.445215295702,0,0,4,5,3,6,6,NaN,vertical,horizontal,vertical,vertical,horizontal,none
1a,23,100192,1,7,7,19,F,NA,variable,heterogeneous,6,present,1.50988507270813,1,horizontal,horizontal,1,0.905874692982641,green,1,6,712.784863451954,839.621618300407,548.874022981887,644.280285305067,712.784863451954,839.621618300407,963.910840470068,795.341332995339,1051.12597701811,555.719714694933,887.215136548046,360.378381699593,636.089159529932,404.658667004661,548.874022981887,644.280285305067,4,0,3,6,5,3,horizontal,vertical,horizontal,horizontal,horizontal,vertical
1a,23,100192,1,8,8,19,F,NA,variable,heterogeneous,3,absent,1.14676094055176,1,vertical,vertical,1,0.917639104251204,green,2,NaN,1048.46436652023,657.362518857686,NaN,NaN,626.090418184063,786.495193912888,1048.46436652023,657.362518857686,725.445215295702,356.142287229426,0,0,0,0,0,0,0,4,0,NaN,NaN,NaN,horizontal,vertical,vertical,none,none,none
1a,23,100192,1,9,9,19,F,NA,variable,heterogeneous,3,present,1.03065896034241,1,vertical,vertical,1,1.05881203947396,green,1,3,746.982518841471,849.42763818712,610.498069503264,429.371695378491,746.982518841471,849.42763818712,1042.51941165526,521.200666434388,610.498069503264,429.371695378491,0,0,0,0,0,0,4,3,0,NaN,NaN,NaN,vertical,horizontal,vertical,none,none,none
1a,23,100192,1,10,10,19,F,NA,variable,heterogeneous,6,present,0.865752935409546,1,horizontal,horizontal,1,0.705879701417068,red,3,6,986.495193912888,426.090418184063,613.504806087112,773.909581815937,857.362518857686,848.464366520235,1043.85771277057,674.554784704298,986.495193912888,426.090418184063,742.637481142314,351.535633479765,556.142287229426,525.445215295702,613.504806087112,773.909581815937,5,0,4,0,6,3,vertical,vertical,horizontal,horizontal,horizontal,vertical
1a,23,100192,1,11,11,19,F,NA,variable,heterogeneous,5,present,0.951974868774414,1,horizontal,horizontal,1,0.835288225371262,red,3,5,1031.10848569435,492.232343256122,549.685068220846,551.343706178981,676.373546837184,823.028025320546,973.909581815937,786.495193912888,1031.10848569435,492.232343256122,768.923317431687,346.900731331463,549.685068220846,551.343706178981,0,0,6,3,4,6,5,NaN,vertical,horizontal,horizontal,vertical,horizontal,none
1a,23,100192,1,12,12,19,F,NA,variable,heterogeneous,3,absent,0.739879131317139,1,vertical,vertical,1,1.02351880566827,green,2,NaN,911.784642431215,370.807518193712,NaN,NaN,942.594190385041,811.404581001536,911.784642431215,370.807518193712,545.621167183745,617.787900804752,0,0,0,0,0,0,3,4,0,NaN,NaN,NaN,vertical,vertical,vertical,none,none,none
1a,23,100192,1,13,13,19,F,NA,variable,heterogeneous,6,present,1.1680121421814,1,horizontal,horizontal,1,1.05881203947396,red,1,6,791.100628340862,854.844660889869,574.848363820974,719.715248510402,791.100628340862,854.844660889869,1016.25226451989,735.129412379467,1025.15163617903,480.284751489598,808.899371659138,345.155339110131,583.747735480111,464.870587620533,574.848363820974,719.715248510402,4,3,6,5,3,0,horizontal,horizontal,horizontal,horizontal,vertical,vertical
1a,23,100192,1,14,14,19,F,NA,variable,heterogeneous,4,present,0.850024938583374,1,vertical,vertical,1,0.741172935222757,green,2,3,1032.95409169886,703.717843984329,903.717843984329,367.045908301137,696.282156015671,832.954091698863,1032.95409169886,703.717843984329,903.717843984329,367.045908301137,567.045908301137,496.282156015671,0,0,0,0,6,4,3,0,NaN,NaN,horizontal,vertical,vertical,vertical,none,none
1a,23,100192,1,15,15,19,F,NA,variable,heterogeneous,3,absent,1.06321001052856,1,horizontal,horizontal,1,0.776466169028447,red,3,NaN,549.685068220846,648.656293821019,NaN,NaN,967.295052392579,792.450942956807,883.019879386575,358.892763222174,549.685068220846,648.656293821019,0,0,0,0,0,0,3,0,4,NaN,NaN,NaN,horizontal,vertical,horizontal,none,none,none
1a,23,100192,1,16,16,19,F,NA,variable,heterogeneous,3,absent,1.06975793838501,1,vertical,vertical,1,1.05881203947396,red,2,NaN,1047.42541020038,661.690083377915,NaN,NaN,622.862115532956,783.431649086356,1047.42541020038,661.690083377915,729.712474266665,354.878267535729,0,0,0,0,0,0,3,4,6,NaN,NaN,NaN,vertical,vertical,horizontal,none,none,none
1a,23,100192,1,17,17,19,F,NA,variable,heterogeneous,4,present,1.8410530090332,0,vertical,horizontal,1,0.682350878879942,red,4,3,553.688914296288,665.998856501143,734.001143498857,353.688914296288,865.998856501143,846.311085703712,1046.31108570371,534.001143498857,734.001143498857,353.688914296288,553.688914296288,665.998856501143,0,0,0,0,0,6,5,4,NaN,NaN,vertical,vertical,horizontal,vertical,none,none
1a,23,100192,1,18,18,19,F,NA,variable,heterogeneous,4,absent,1.66319918632507,1,horizontal,horizontal,1,0.858817047908388,green,4,NaN,596.34794493794,753.462830903772,NaN,NaN,953.462830903772,803.65205506206,1003.65205506206,446.537169096228,646.537169096228,396.34794493794,596.34794493794,753.462830903772,0,0,0,0,3,5,6,4,NaN,NaN,horizontal,horizontal,vertical,horizontal,none,none
1a,23,100192,1,19,19,19,F,NA,variable,heterogeneous,5,absent,1.45725083351135,1,horizontal,horizontal,1,0.823523814102699,green,4,NaN,795.549636358493,345.03883773512,NaN,NaN,653.738008730483,808.883771293693,953.462830903772,803.65205506206,1041.10723677783,516.980120613425,795.549636358493,345.03883773512,556.142287229426,525.445215295702,0,0,5,3,0,4,6,NaN,horizontal,horizontal,vertical,horizontal,vertical,none
1a,23,100192,1,20,20,19,F,NA,variable,heterogeneous,4,present,0.921590089797974,1,horizontal,horizontal,1,0.964696749325456,green,3,4,895.524681321058,363.568117085469,563.568117085469,504.475318678942,704.475318678942,836.431882914531,1036.43188291453,695.524681321058,895.524681321058,363.568117085469,563.568117085469,504.475318678942,0,0,0,0,0,0,4,5,NaN,NaN,vertical,vertical,horizontal,vertical,none,none
1a,23,100192,1,21,21,19,F,NA,variable,heterogeneous,4,absent,1.2253110408783,1,vertical,vertical,1,1.0470476282054,green,1,NaN,764.510859255183,852.518357529101,NaN,NaN,764.510859255183,852.518357529101,1052.5183575291,635.489140744817,835.489140744817,347.4816424709,547.481642470899,564.510859255183,0,0,0,0,4,0,0,6,NaN,NaN,vertical,horizontal,vertical,vertical,none,none
1a,23,100192,1,22,22,19,F,NA,variable,heterogeneous,5,present,1.21824407577515,1,vertical,vertical,1,0.611764411268563,green,3,2,1003.65205506206,446.537169096228,1008.88377129369,746.261991269517,725.445215295702,843.857712770574,1008.88377129369,746.261991269517,1003.65205506206,446.537169096228,716.980120613425,358.892763222174,545.03883773512,604.450363641507,0,0,6,0,4,5,5,NaN,vertical,horizontal,vertical,horizontal,vertical,none
1a,23,100192,1,23,23,19,F,NA,variable,heterogeneous,6,absent,1.21210098266602,1,vertical,vertical,1,0.870581459176951,red,5,NaN,626.090418184063,413.504806087112,NaN,NaN,725.445215295702,843.857712770574,973.909581815937,786.495193912888,1048.46436652023,542.637481142314,874.554784704298,356.142287229426,626.090418184063,413.504806087112,551.535633479765,657.362518857686,3,5,6,5,4,3,horizontal,vertical,vertical,vertical,vertical,horizontal
1a,23,100192,1,24,24,19,F,NA,variable,heterogeneous,5,absent,1.26248908042908,1,horizontal,horizontal,1,1.09410527327965,red,5,NaN,619.68777079743,780.31222920257,NaN,NaN,915.767577433584,827.206663668034,1051.86052685176,560.109211414741,839.890788585259,348.13947314824,572.793336331966,484.232422566416,619.68777079743,780.31222920257,0,0,6,0,3,6,4,NaN,vertical,vertical,vertical,horizontal,horizontal,none
1a,23,100192,1,25,25,19,F,NA,variable,heterogeneous,4,present,1.35556101799011,1,horizontal,horizontal,1,0.78823058029701,red,1,3,721.200666434388,842.519411655264,878.799333565612,357.480588344736,721.200666434388,842.519411655264,1042.51941165526,678.799333565612,878.799333565612,357.480588344736,557.480588344736,521.200666434388,0,0,0,0,4,0,3,3,NaN,NaN,horizontal,vertical,vertical,vertical,none,none
1a,23,100192,1,26,26,19,F,NA,variable,heterogeneous,5,present,1.44757294654846,1,vertical,vertical,1,0.823523814102699,red,1,4,800,855,650.114760665419,393.700666434388,800,855,1042.51941165526,678.799333565612,949.885239334581,393.700666434388,650.114760665419,393.700666434388,557.480588344736,678.799333565612,0,0,4,6,0,6,5,NaN,vertical,horizontal,vertical,horizontal,vertical,none
1a,23,100192,1,27,27,19,F,NA,variable,heterogeneous,3,present,1.36197805404663,1,horizontal,horizontal,1,0.658822056342816,green,1,2,716.980120613425,841.107236777826,1050.31493177915,551.343706178981,716.980120613425,841.107236777826,1050.31493177915,551.343706178981,632.704947607421,407.549057043193,0,0,0,0,0,0,4,0,6,NaN,NaN,NaN,horizontal,horizontal,horizontal,none,none,none
1a,23,100192,1,28,28,19,F,NA,variable,heterogeneous,5,absent,1.15406918525696,1,vertical,vertical,1,0.835288225371262,red,3,NaN,942.594190385041,388.595418998464,NaN,NaN,808.899371659138,854.844660889869,1045.12173246427,670.287525733335,942.594190385041,388.595418998464,643.006323791957,399.057257830286,560.378381699593,687.215136548046,0,0,5,5,4,6,3,NaN,horizontal,vertical,vertical,horizontal,horizontal,none
1a,23,100192,1,29,29,19,F,NA,variable,heterogeneous,4,present,1.92520713806152,1,vertical,vertical,1,0.799994991565573,red,1,2,791.100628340862,854.844660889869,1054.84466088987,608.899371659138,791.100628340862,854.844660889869,1054.84466088987,608.899371659138,808.899371659138,345.155339110131,545.155339110131,591.100628340862,0,0,0,0,4,0,3,0,NaN,NaN,vertical,horizontal,horizontal,vertical,none,none
1a,23,100192,1,30,30,19,F,NA,variable,heterogeneous,3,absent,1.83788990974426,1,horizontal,horizontal,1,1.09410527327965,green,2,NaN,1029.19248180629,711.784642431215,NaN,NaN,588.595418998464,742.594190385041,1029.19248180629,711.784642431215,782.212099195248,345.621167183745,0,0,0,0,0,0,5,4,3,NaN,NaN,NaN,horizontal,horizontal,vertical,none,none,none
1a,23,100192,1,31,31,19,F,NA,variable,heterogeneous,6,absent,1.21206593513489,1,horizontal,horizontal,1,0.858817047908388,red,3,NaN,960.476699717708,401.827779828472,NaN,NaN,891.383827134052,838.063008756786,1051.86052685176,639.890788585259,960.476699717708,401.827779828472,708.616172865948,361.936991243214,548.13947314824,560.109211414741,639.523300282292,798.172220171528,0,5,4,5,3,0,vertical,vertical,horizontal,horizontal,horizontal,horizontal
1a,23,100192,1,32,32,19,F,NA,variable,heterogeneous,5,absent,NaN,0,vertical,none,0,0.647057645074252,red,4,NaN,742.637481142314,351.535633479765,NaN,NaN,700.363562235235,834.728737630372,992.450942956807,767.295052392579,1018.57766167904,468.665290897936,742.637481142314,351.535633479765,545.970351986605,577.775285599347,0,0,5,5,3,4,0,NaN,horizontal,horizontal,horizontal,vertical,vertical,none
1a,23,100192,1,33,33,19,F,NA,variable,heterogeneous,3,present,1.03287577629089,1,horizontal,horizontal,1,0.75293734649132,red,2,1,1006.29933356561,450.114760665419,826.654758133252,853.60308331891,826.654758133252,853.60308331891,1006.29933356561,450.114760665419,567.045908301137,496.282156015671,0,0,0,0,0,0,0,4,3,NaN,NaN,NaN,horizontal,horizontal,vertical,none,none,none
1a,23,100192,1,34,34,19,F,NA,variable,heterogeneous,4,present,1.46852397918701,1,horizontal,horizontal,1,0.75293734649132,red,1,2,629.371695378491,789.501930496736,989.501930496736,770.628304621509,629.371695378491,789.501930496736,989.501930496736,770.628304621509,970.628304621509,410.498069503264,610.498069503264,429.371695378491,0,0,0,0,4,3,5,6,NaN,NaN,horizontal,horizontal,vertical,horizontal,none,none
1a,23,100192,1,35,35,19,F,NA,variable,heterogeneous,5,absent,1.1754310131073,1,horizontal,horizontal,1,0.670586467611379,green,3,NaN,986.495193912888,426.090418184063,NaN,NaN,751.343706178981,850.314931779154,1023.02802532055,723.626453162816,986.495193912888,426.090418184063,692.232343256122,368.891514305654,546.900731331463,631.076682568313,0,0,6,3,4,0,3,NaN,horizontal,horizontal,horizontal,horizontal,vertical,none
1a,23,100192,1,36,36,19,F,NA,variable,heterogeneous,6,present,1.5151891708374,1,vertical,vertical,1,0.999989983131146,green,6,3,604.658667004661,763.910840470068,995.341332995339,436.089159529932,844.280285305067,851.125977018113,1039.62161830041,687.215136548046,995.341332995339,436.089159529932,755.719714694933,348.874022981887,560.378381699593,512.784863451954,604.658667004661,763.910840470068,3,6,0,0,3,4,vertical,vertical,horizontal,vertical,vertical,vertical
1a,23,100192,1,37,37,19,F,NA,variable,heterogeneous,6,absent,1.92929601669312,1,horizontal,horizontal,1,0.78823058029701,green,2,NaN,1023.02802532055,723.626453162816,NaN,NaN,804.450363641507,854.96116226488,1023.02802532055,723.626453162816,1018.57766167904,468.665290897936,795.549636358493,345.03883773512,576.971974679454,476.373546837184,581.422338320961,731.334709102064,3,4,6,5,5,0,horizontal,horizontal,vertical,horizontal,vertical,horizontal
1a,23,100192,1,38,38,19,F,NA,variable,heterogeneous,6,present,1.48931503295898,0,vertical,horizontal,1,0.658822056342816,green,1,6,742.637481142314,848.464366520235,556.142287229426,674.554784704298,742.637481142314,848.464366520235,986.495193912888,773.909581815937,1043.85771277057,525.445215295702,857.362518857686,351.535633479765,613.504806087112,426.090418184063,556.142287229426,674.554784704298,4,6,0,3,5,0,vertical,horizontal,vertical,vertical,horizontal,horizontal
1a,23,100192,1,39,39,19,F,NA,variable,heterogeneous,5,present,NaN,0,horizontal,none,0,0.635293233805689,red,3,5,977.137884467044,416.568350913644,548.874022981887,644.280285305067,764.510859255183,852.518357529101,1029.19248180629,711.784642431215,977.137884467044,416.568350913644,680.284751489598,374.848363820974,548.874022981887,644.280285305067,0,0,0,5,4,3,0,NaN,vertical,horizontal,horizontal,horizontal,vertical,none
1a,23,100192,1,40,40,19,F,NA,variable,heterogeneous,4,absent,1.1741578578949,1,vertical,vertical,1,0.694115290148505,red,4,NaN,550.57236181288,653.017481158529,NaN,NaN,853.017481158529,849.42763818712,1049.42763818712,546.982518841471,746.982518841471,350.57236181288,550.57236181288,653.017481158529,0,0,0,0,0,0,3,4,NaN,NaN,vertical,vertical,vertical,vertical,none,none
1a,23,100192,1,41,41,19,F,NA,variable,heterogeneous,5,absent,1.66048097610474,1,vertical,vertical,1,0.729408523954194,green,1,NaN,857.362518857686,848.464366520235,NaN,NaN,857.362518857686,848.464366520235,1054.0296480134,622.224714400653,899.636437764765,365.271262369628,607.549057043193,432.704947607421,581.422338320961,731.334709102064,0,0,4,3,6,5,3,NaN,vertical,vertical,horizontal,vertical,vertical,none
1a,23,100192,1,42,42,19,F,NA,variable,heterogeneous,6,absent,1.42561507225037,1,vertical,vertical,1,0.764701757759883,green,1,NaN,861.690083377915,847.425410200379,NaN,NaN,861.690083377915,847.425410200379,1045.12173246427,670.287525733335,983.431649086356,422.862115532956,738.309916622085,352.574589799621,554.878267535729,529.712474266665,616.568350913644,777.137884467044,4,6,0,3,6,0,vertical,horizontal,horizontal,horizontal,vertical,horizontal
1a,23,100192,1,43,43,19,F,NA,variable,heterogeneous,3,absent,1.4915030002594,1,horizontal,horizontal,1,0.882345870445514,green,2,NaN,923.626453162816,376.971974679454,NaN,NaN,931.334709102064,818.577661679039,923.626453162816,376.971974679454,545.03883773512,604.450363641507,0,0,0,0,0,0,3,4,5,NaN,NaN,NaN,vertical,horizontal,horizontal,none,none,none
1a,23,100192,1,44,44,19,F,NA,variable,heterogeneous,3,absent,1.14705801010132,1,vertical,vertical,1,0.682350878879942,red,3,NaN,558.892763222174,683.019879386575,NaN,NaN,992.450942956807,767.295052392579,848.656293821019,349.685068220846,558.892763222174,683.019879386575,0,0,0,0,0,0,0,6,4,NaN,NaN,NaN,vertical,horizontal,vertical,none,none,none
1a,23,100192,1,45,45,19,F,NA,variable,heterogeneous,3,present,NaN,0,vertical,none,0,1.0470476282054,green,1,3,865.998856501143,846.311085703712,553.688914296288,534.001143498857,865.998856501143,846.311085703712,980.31222920257,419.68777079743,553.688914296288,534.001143498857,0,0,0,0,0,0,4,5,6,NaN,NaN,NaN,vertical,vertical,vertical,none,none,none
1a,23,100192,1,46,46,19,F,NA,variable,heterogeneous,3,present,1.51340699195862,1,vertical,vertical,1,0.694115290148505,red,2,3,1051.12597701811,644.280285305067,712.784863451954,360.378381699593,636.089159529932,795.341332995339,1051.12597701811,644.280285305067,712.784863451954,360.378381699593,0,0,0,0,0,0,5,4,0,NaN,NaN,NaN,horizontal,vertical,vertical,none,none,none
1a,23,100192,1,47,47,19,F,NA,variable,heterogeneous,3,present,0.760413885116577,1,horizontal,horizontal,1,1.03528321693683,green,2,1,891.383827134052,361.936991243214,960.476699717708,798.172220171528,960.476699717708,798.172220171528,891.383827134052,361.936991243214,548.13947314824,639.890788585259,0,0,0,0,0,0,5,4,3,NaN,NaN,NaN,vertical,horizontal,horizontal,none,none,none
1a,23,100192,1,48,48,19,F,NA,variable,heterogeneous,6,present,NaN,0,vertical,none,0,0.647057645074252,red,2,5,1053.09926866854,631.076682568313,546.900731331463,568.923317431687,899.636437764765,834.728737630372,1053.09926866854,631.076682568313,953.462830903772,396.34794493794,700.363562235235,365.271262369628,546.900731331463,568.923317431687,646.537169096228,803.65205506206,3,4,5,3,5,6,horizontal,vertical,vertical,vertical,horizontal,vertical
1a,23,100192,1,49,49,19,F,NA,variable,heterogeneous,6,absent,NaN,0,vertical,none,0,1.08234086201109,green,1,NaN,725.445215295702,843.857712770574,NaN,NaN,725.445215295702,843.857712770574,973.909581815937,786.495193912888,1048.46436652023,542.637481142314,874.554784704298,356.142287229426,626.090418184063,413.504806087112,551.535633479765,657.362518857686,4,3,3,6,5,0,vertical,horizontal,vertical,horizontal,horizontal,horizontal
1a,23,100192,1,50,50,19,F,NA,variable,heterogeneous,3,absent,1.42858386039734,1,horizontal,horizontal,1,1.09410527327965,red,1,NaN,586.139005173917,738.882953928832,NaN,NaN,586.139005173917,738.882953928832,1027.20666366803,715.767577433584,786.654331158049,345.349468637584,0,0,0,0,0,0,4,0,3,NaN,NaN,NaN,horizontal,vertical,vertical,none,none,none
1a,23,100192,1,51,51,19,F,NA,variable,heterogeneous,5,absent,1.91493988037109,1,vertical,vertical,1,0.670586467611379,green,5,NaN,556.142287229426,525.445215295702,NaN,NaN,653.738008730483,808.883771293693,953.462830903772,803.65205506206,1041.10723677783,516.980120613425,795.549636358493,345.03883773512,556.142287229426,525.445215295702,0,0,5,0,3,5,4,NaN,horizontal,horizontal,horizontal,horizontal,vertical,none
1a,23,100192,1,52,52,19,F,NA,variable,heterogeneous,6,absent,NaN,0,horizontal,none,0,1.0470476282054,red,2,NaN,1018.57766167904,731.334709102064,NaN,NaN,795.549636358493,854.96116226488,1018.57766167904,731.334709102064,1023.02802532055,476.373546837184,804.450363641507,345.03883773512,581.422338320961,468.665290897936,576.971974679454,723.626453162816,3,4,6,0,5,0,vertical,horizontal,horizontal,vertical,vertical,vertical
1a,23,100192,1,53,53,19,F,NA,variable,heterogeneous,6,present,NaN,0,horizontal,none,0,0.658822056342816,green,5,6,668.665290897936,381.422338320961,545.03883773512,604.450363641507,676.373546837184,823.028025320546,931.334709102064,818.577661679039,1054.96116226488,595.549636358493,923.626453162816,376.971974679454,668.665290897936,381.422338320961,545.03883773512,604.450363641507,0,6,0,5,4,6,vertical,vertical,vertical,horizontal,horizontal,vertical
1a,23,100192,1,54,54,19,F,NA,variable,heterogeneous,3,present,0.984918117523193,1,vertical,vertical,1,1.03528321693683,red,2,3,927.5,379.163522034968,545,600,927.5,820.836477965032,927.5,379.163522034968,545,600,0,0,0,0,0,0,6,4,3,NaN,NaN,NaN,vertical,vertical,vertical,none,none,none
1a,23,100192,1,55,55,19,F,NA,variable,heterogeneous,3,present,1.16600012779236,1,horizontal,horizontal,1,1.07057645074252,red,2,3,1054.96116226488,595.549636358493,668.665290897936,381.422338320961,676.373546837184,823.028025320546,1054.96116226488,595.549636358493,668.665290897936,381.422338320961,0,0,0,0,0,0,0,4,0,NaN,NaN,NaN,vertical,horizontal,vertical,none,none,none
1a,23,100192,1,56,56,19,F,NA,variable,heterogeneous,5,present,1.13734412193298,1,vertical,vertical,1,0.78823058029701,red,1,3,755.719714694933,851.125977018113,983.431649086356,422.862115532956,755.719714694933,851.125977018113,1025.15163617903,719.715248510402,983.431649086356,422.862115532956,688.215357568785,370.807518193712,547.481642470899,635.489140744817,0,0,4,5,6,6,0,NaN,vertical,horizontal,vertical,horizontal,horizontal,none
1a,23,100192,1,57,57,19,F,NA,variable,heterogeneous,6,present,1.51384496688843,1,vertical,vertical,1,0.682350878879942,red,1,6,899.636437764765,834.728737630372,646.537169096228,803.65205506206,899.636437764765,834.728737630372,1053.09926866854,631.076682568313,953.462830903772,396.34794493794,700.363562235235,365.271262369628,546.900731331463,568.923317431687,646.537169096228,803.65205506206,4,5,6,0,3,3,vertical,vertical,horizontal,vertical,horizontal,horizontal
1a,23,100192,1,58,58,19,F,NA,variable,heterogeneous,5,present,NaN,0,horizontal,none,0,0.75293734649132,green,5,3,558.892763222174,683.019879386575,946.261991269517,391.116228706307,804.450363641507,854.96116226488,1043.85771277057,674.554784704298,946.261991269517,391.116228706307,646.537169096228,396.34794493794,558.892763222174,683.019879386575,0,0,5,0,3,6,4,NaN,horizontal,vertical,vertical,vertical,horizontal,none
1a,23,100192,1,59,59,19,F,NA,variable,heterogeneous,6,absent,NaN,0,horizontal,none,0,1.03528321693683,green,4,NaN,746.982518841471,350.57236181288,NaN,NaN,853.017481158529,849.42763818712,1042.51941165526,678.799333565612,989.501930496736,429.371695378491,746.982518841471,350.57236181288,557.480588344736,521.200666434388,610.498069503264,770.628304621509,6,3,3,4,5,5,horizontal,horizontal,vertical,horizontal,vertical,vertical
1a,23,100192,1,60,60,19,F,NA,variable,heterogeneous,4,present,1.50843095779419,1,vertical,vertical,1,0.78823058029701,green,3,1,835.489140744817,347.4816424709,764.510859255183,852.518357529101,764.510859255183,852.518357529101,1052.5183575291,635.489140744817,835.489140744817,347.4816424709,547.481642470899,564.510859255183,0,0,0,0,5,3,4,0,NaN,NaN,vertical,vertical,vertical,vertical,none,none
1a,23,100192,1,61,61,19,F,NA,variable,heterogeneous,4,absent,0.953068017959595,1,horizontal,horizontal,1,0.917639104251204,red,3,NaN,853.017481158529,350.57236181288,NaN,NaN,746.982518841471,849.42763818712,1049.42763818712,653.017481158529,853.017481158529,350.57236181288,550.57236181288,546.982518841471,0,0,0,0,0,0,4,6,NaN,NaN,horizontal,vertical,horizontal,vertical,none,none
1a,23,100192,1,62,62,19,F,NA,variable,heterogeneous,5,present,1.633131980896,1,horizontal,horizontal,1,1.03528321693683,green,1,3,923.626453162816,823.028025320546,831.076682568313,346.900731331463,923.626453162816,823.028025320546,1050.31493177915,551.343706178981,831.076682568313,346.900731331463,568.891514305654,492.232343256122,626.090418184063,786.495193912888,0,0,4,0,5,3,6,NaN,horizontal,horizontal,vertical,vertical,vertical,none
1a,23,100192,1,63,63,19,F,NA,variable,heterogeneous,4,absent,1.07145404815674,1,horizontal,horizontal,1,0.894110281714078,red,2,NaN,1038.06300875679,508.616172865948,NaN,NaN,891.383827134052,838.063008756786,1038.06300875679,508.616172865948,708.616172865948,361.936991243214,561.936991243214,691.383827134052,0,0,0,0,0,4,6,5,NaN,NaN,vertical,horizontal,horizontal,vertical,none,none
1a,23,100192,1,64,64,19,F,NA,variable,heterogeneous,6,absent,NaN,0,vertical,none,0,0.717644112685631,red,6,NaN,650.114760665419,806.299333565612,NaN,NaN,903.717843984329,832.954091698863,1053.60308331891,626.654758133252,949.885239334581,393.700666434388,696.282156015671,367.045908301137,546.39691668109,573.345241866748,650.114760665419,806.299333565612,0,3,5,5,6,4,vertical,vertical,vertical,horizontal,vertical,vertical
1a,23,100192,2,1,65,19,F,NA,variable,heterogeneous,5,absent,1.33361005783081,1,horizontal,horizontal,1,0.811759402834136,green,4,NaN,639.523300282292,401.827779828472,NaN,NaN,813.345668841951,854.650531362416,1046.31108570371,665.998856501143,938.882953928832,386.139005173917,639.523300282292,401.827779828472,561.936991243214,691.383827134052,0,0,5,6,3,4,0,NaN,horizontal,horizontal,vertical,horizontal,horizontal,none
1a,23,100192,2,2,66,19,F,NA,variable,heterogeneous,5,absent,0.88869309425354,1,horizontal,horizontal,1,0.623528822537126,red,3,NaN,1011.40458100154,457.40580961496,NaN,NaN,712.784863451954,839.621618300407,1000.94274216971,756.993676208043,1011.40458100154,457.40580961496,729.712474266665,354.878267535729,545.155339110131,591.100628340862,0,0,3,6,4,3,5,NaN,vertical,vertical,horizontal,vertical,vertical,none
1a,23,100192,2,3,67,19,F,NA,variable,heterogeneous,3,absent,1.33039903640747,1,horizontal,horizontal,1,0.976461160594019,red,2,NaN,1048.46436652023,657.362518857686,NaN,NaN,626.090418184063,786.495193912888,1048.46436652023,657.362518857686,725.445215295702,356.142287229426,0,0,0,0,0,0,6,4,5,NaN,NaN,NaN,horizontal,horizontal,horizontal,none,none,none
1a,23,100192,2,4,68,19,F,NA,variable,heterogeneous,6,present,NaN,0,vertical,none,0,0.658822056342816,green,3,4,956.993676208043,399.057257830286,704.475318678942,363.568117085469,895.524681321058,836.431882914531,1052.5183575291,635.489140744817,956.993676208043,399.057257830286,704.475318678942,363.568117085469,547.481642470899,564.510859255183,643.006323791957,800.942742169714,6,6,4,3,3,5,horizontal,vertical,vertical,vertical,vertical,horizontal
1a,23,100192,2,5,69,19,F,NA,variable,heterogeneous,6,present,1.64140105247498,0,vertical,horizontal,1,0.94116792678833,red,1,2,804.450363641507,854.96116226488,1023.02802532055,723.626453162816,804.450363641507,854.96116226488,1023.02802532055,723.626453162816,1018.57766167904,468.665290897936,795.549636358493,345.03883773512,576.971974679454,476.373546837184,581.422338320961,731.334709102064,4,5,3,6,5,0,vertical,horizontal,horizontal,vertical,horizontal,vertical
1a,23,100192,2,6,70,19,F,NA,variable,heterogeneous,4,present,1.3835620880127,1,horizontal,horizontal,1,0.658822056342816,green,2,4,1042.51941165526,678.799333565612,557.480588344736,521.200666434388,721.200666434388,842.519411655264,1042.51941165526,678.799333565612,878.799333565612,357.480588344736,557.480588344736,521.200666434388,0,0,0,0,0,4,3,6,NaN,NaN,horizontal,horizontal,horizontal,vertical,none,none
1a,23,100192,2,7,71,19,F,NA,variable,heterogeneous,3,present,0.645294904708862,1,horizontal,horizontal,1,0.694115290148505,green,2,3,1041.10723677783,516.980120613425,607.549057043193,432.704947607421,751.343706178981,850.314931779154,1041.10723677783,516.980120613425,607.549057043193,432.704947607421,0,0,0,0,0,0,6,4,5,NaN,NaN,NaN,vertical,horizontal,vertical,none,none,none
1a,23,100192,2,8,72,19,F,NA,variable,heterogeneous,3,present,1.19595694541931,1,horizontal,horizontal,1,0.682350878879942,red,1,2,865.998856501143,846.311085703712,980.31222920257,419.68777079743,865.998856501143,846.311085703712,980.31222920257,419.68777079743,553.688914296288,534.001143498857,0,0,0,0,0,0,4,0,6,NaN,NaN,NaN,horizontal,horizontal,horizontal,none,none,none
1a,23,100192,2,9,73,19,F,NA,variable,heterogeneous,6,present,NaN,0,horizontal,none,0,0.952932338056893,green,1,6,911.784642431215,829.192481806288,657.405809614959,811.404581001536,911.784642431215,829.192481806288,1054.37883281626,617.787900804752,942.594190385041,388.595418998464,688.215357568785,370.807518193712,545.621167183745,582.212099195248,657.405809614959,811.404581001536,4,3,5,3,0,6,horizontal,vertical,horizontal,horizontal,horizontal,horizontal
1a,23,100192,2,10,74,19,F,NA,variable,heterogeneous,3,absent,1.32081389427185,1,vertical,vertical,1,1.07057645074252,green,2,NaN,1050.31493177915,551.343706178981,NaN,NaN,716.980120613425,841.107236777826,1050.31493177915,551.343706178981,632.704947607421,407.549057043193,0,0,0,0,0,0,6,4,3,NaN,NaN,NaN,vertical,vertical,horizontal,none,none,none
1a,23,100192,2,11,75,19,F,NA,variable,heterogeneous,3,absent,1.65913391113281,1,horizontal,horizontal,1,0.988225571862583,green,1,NaN,721.200666434388,842.519411655264,NaN,NaN,721.200666434388,842.519411655264,1049.42763818712,546.982518841471,629.371695378491,410.498069503264,0,0,0,0,0,0,4,6,3,NaN,NaN,NaN,horizontal,horizontal,horizontal,none,none,none
1a,23,100192,2,12,76,19,F,NA,variable,heterogeneous,3,present,1.58656406402588,1,vertical,vertical,1,0.705879701417068,green,3,2,729.712474266665,354.878267535729,1047.42541020038,661.690083377915,622.862115532956,783.431649086356,1047.42541020038,661.690083377915,729.712474266665,354.878267535729,0,0,0,0,0,0,0,3,4,NaN,NaN,NaN,vertical,vertical,vertical,none,none,none
1a,23,100192,2,13,77,19,F,NA,variable,heterogeneous,4,present,1.23051190376282,1,vertical,vertical,1,0.6,red,4,3,579.163522034968,727.5,672.5,379.163522034968,927.5,820.836477965032,1020.83647796503,472.5,672.5,379.163522034968,579.163522034968,727.5,0,0,0,0,0,0,3,4,NaN,NaN,horizontal,horizontal,vertical,vertical,none,none
1a,23,100192,2,14,78,19,F,NA,variable,heterogeneous,3,absent,0.934065103530884,1,horizontal,horizontal,1,0.94116792678833,red,3,NaN,551.535633479765,542.637481142314,NaN,NaN,874.554784704298,843.857712770574,973.909581815937,413.504806087112,551.535633479765,542.637481142314,0,0,0,0,0,0,5,6,4,NaN,NaN,NaN,vertical,horizontal,horizontal,none,none,none
1a,23,100192,2,15,79,19,F,NA,variable,heterogeneous,4,absent,1.18240308761597,1,horizontal,horizontal,1,1.08234086201109,green,3,NaN,899.636437764765,365.271262369628,NaN,NaN,700.363562235235,834.728737630372,1034.72873763037,699.636437764765,899.636437764765,365.271262369628,565.271262369628,500.363562235235,0,0,0,0,6,3,4,6,NaN,NaN,vertical,horizontal,horizontal,horizontal,none,none
1a,23,100192,2,16,80,19,F,NA,variable,heterogeneous,4,present,0.927479982376099,1,horizontal,horizontal,1,1.05881203947396,red,3,1,960.476699717708,401.827779828472,639.523300282292,798.172220171528,639.523300282292,798.172220171528,998.172220171528,760.476699717708,960.476699717708,401.827779828472,601.827779828472,439.523300282291,0,0,0,0,3,5,4,0,NaN,NaN,horizontal,horizontal,horizontal,vertical,none,none
1a,23,100192,2,17,81,19,F,NA,variable,heterogeneous,5,present,1.43527603149414,1,horizontal,horizontal,1,0.658822056342816,green,4,3,568.891514305654,492.232343256122,831.076682568313,346.900731331463,923.626453162816,823.028025320546,1050.31493177915,551.343706178981,831.076682568313,346.900731331463,568.891514305654,492.232343256122,626.090418184063,786.495193912888,0,0,5,6,6,4,5,NaN,horizontal,horizontal,horizontal,horizontal,horizontal,none
1a,23,100192,2,18,82,19,F,NA,variable,heterogeneous,5,present,1.70649003982544,1,horizontal,horizontal,1,0.705879701417068,red,4,2,643.006323791957,399.057257830286,1045.12173246427,670.287525733335,808.899371659138,854.844660889869,1045.12173246427,670.287525733335,942.594190385041,388.595418998464,643.006323791957,399.057257830286,560.378381699593,687.215136548046,0,0,3,5,5,4,3,NaN,horizontal,horizontal,vertical,horizontal,vertical,none
1a,23,100192,2,19,83,19,F,NA,variable,heterogeneous,3,absent,0.934776782989502,1,vertical,vertical,1,1.09410527327965,red,1,NaN,581.422338320961,731.334709102064,NaN,NaN,581.422338320961,731.334709102064,1023.02802532055,723.626453162816,795.549636358493,345.03883773512,0,0,0,0,0,0,4,5,0,NaN,NaN,NaN,vertical,vertical,horizontal,none,none,none
1a,23,100192,2,20,84,19,F,NA,variable,heterogeneous,6,absent,1.14838910102844,1,vertical,vertical,1,0.741172935222757,red,4,NaN,853.017481158529,350.57236181288,NaN,NaN,746.982518841471,849.42763818712,989.501930496736,770.628304621509,1042.51941165526,521.200666434388,853.017481158529,350.57236181288,610.498069503264,429.371695378491,557.480588344736,678.799333565612,3,3,5,4,5,6,horizontal,vertical,vertical,vertical,vertical,vertical
1a,23,100192,2,21,85,19,F,NA,variable,heterogeneous,6,absent,1.46608710289001,1,horizontal,horizontal,1,0.929403515519767,red,3,NaN,1047.42541020038,538.309916622085,NaN,NaN,729.712474266665,845.121732464271,977.137884467044,783.431649086356,1047.42541020038,538.309916622085,870.287525733335,354.878267535729,622.862115532956,416.568350913644,552.574589799621,661.690083377915,0,3,4,6,5,5,horizontal,vertical,horizontal,vertical,horizontal,horizontal
1a,23,100192,2,22,86,19,F,NA,variable,heterogeneous,6,present,1.23324584960938,1,horizontal,horizontal,1,0.682350878879942,green,4,5,835.489140744817,347.4816424709,599.057257830286,443.006323791957,764.510859255183,852.518357529101,1000.94274216971,756.993676208043,1036.43188291453,504.475318678942,835.489140744817,347.4816424709,599.057257830286,443.006323791957,563.568117085469,695.524681321058,3,6,3,4,0,6,vertical,horizontal,vertical,horizontal,horizontal,vertical
1a,23,100192,2,23,87,19,F,NA,variable,heterogeneous,6,absent,0.971223831176758,1,horizontal,horizontal,1,1.05881203947396,red,4,NaN,696.282156015671,367.045908301137,NaN,NaN,903.717843984329,832.954091698863,1053.60308331891,626.654758133252,949.885239334581,393.700666434388,696.282156015671,367.045908301137,546.39691668109,573.345241866748,650.114760665419,806.299333565612,3,5,5,4,3,6,vertical,horizontal,vertical,horizontal,horizontal,horizontal
1a,23,100192,2,24,88,19,F,NA,variable,heterogeneous,5,present,1.42766308784485,1,vertical,vertical,1,0.847052636639825,green,5,2,551.535633479765,657.362518857686,1034.72873763037,699.636437764765,777.775285599347,854.029648013395,1034.72873763037,699.636437764765,967.295052392579,407.549057043193,668.665290897936,381.422338320961,551.535633479765,657.362518857686,0,0,6,0,0,5,4,NaN,vertical,horizontal,horizontal,horizontal,vertical,none
1a,23,100192,2,25,89,19,F,NA,variable,heterogeneous,5,absent,1.33482909202576,1,vertical,vertical,1,0.729408523954194,green,5,NaN,619.68777079743,780.31222920257,NaN,NaN,915.767577433584,827.206663668034,1051.86052685176,560.109211414741,839.890788585259,348.13947314824,572.793336331966,484.232422566416,619.68777079743,780.31222920257,0,0,5,0,5,3,4,NaN,horizontal,vertical,vertical,vertical,vertical,none
1a,23,100192,2,26,90,19,F,NA,variable,heterogeneous,6,present,NaN,0,horizontal,none,0,0.6,red,2,3,989.501930496736,770.628304621509,1042.51941165526,521.200666434388,746.982518841471,849.42763818712,989.501930496736,770.628304621509,1042.51941165526,521.200666434388,853.017481158529,350.57236181288,610.498069503264,429.371695378491,557.480588344736,678.799333565612,3,4,5,5,0,6,vertical,horizontal,horizontal,vertical,horizontal,vertical
1a,23,100192,2,27,91,19,F,NA,variable,heterogeneous,4,present,1.05395603179932,1,vertical,vertical,1,0.799994991565573,green,2,3,992.450942956807,432.704947607421,632.704947607421,407.549057043193,967.295052392579,792.450942956807,992.450942956807,432.704947607421,632.704947607421,407.549057043193,607.549057043193,767.295052392579,0,0,0,0,6,4,5,0,NaN,NaN,horizontal,vertical,horizontal,horizontal,none,none
1a,23,100192,2,28,92,19,F,NA,variable,heterogeneous,4,absent,1.42677211761475,1,vertical,vertical,1,0.976461160594019,green,1,NaN,804.450363641507,854.96116226488,NaN,NaN,804.450363641507,854.96116226488,1054.96116226488,595.549636358493,795.549636358493,345.03883773512,545.03883773512,604.450363641507,0,0,0,0,4,5,3,5,NaN,NaN,vertical,horizontal,horizontal,vertical,none,none
1a,23,100192,2,29,93,19,F,NA,variable,heterogeneous,5,absent,1.25760006904602,1,horizontal,horizontal,1,0.894110281714078,green,2,NaN,1020.83647796503,727.5,NaN,NaN,746.982518841471,849.42763818712,1020.83647796503,727.5,989.501930496736,429.371695378491,696.282156015671,367.045908301137,546.39691668109,626.654758133252,0,0,6,4,0,3,3,NaN,horizontal,horizontal,horizontal,horizontal,horizontal,none
1a,23,100192,2,30,94,19,F,NA,variable,heterogeneous,3,present,1.51145792007446,1,vertical,vertical,1,0.835288225371262,red,2,1,1051.12597701811,644.280285305067,636.089159529932,795.341332995339,636.089159529932,795.341332995339,1051.12597701811,644.280285305067,712.784863451954,360.378381699593,0,0,0,0,0,0,6,4,3,NaN,NaN,NaN,horizontal,vertical,horizontal,none,none,none
1a,23,100192,2,31,95,19,F,NA,variable,heterogeneous,6,present,1.73176503181458,1,vertical,vertical,1,0.894110281714078,green,1,2,861.690083377915,847.425410200379,1045.12173246427,670.287525733335,861.690083377915,847.425410200379,1045.12173246427,670.287525733335,983.431649086356,422.862115532956,738.309916622085,352.574589799621,554.878267535729,529.712474266665,616.568350913644,777.137884467044,4,5,5,0,3,6,vertical,horizontal,horizontal,horizontal,horizontal,horizontal
1a,23,100192,2,32,96,19,F,NA,variable,heterogeneous,5,present,NaN,0,vertical,none,0,0.776466169028447,red,1,5,684.232422566416,827.206663668034,548.13947314824,560.109211414741,684.232422566416,827.206663668034,980.31222920257,780.31222920257,1027.20666366803,484.232422566416,760.109211414741,348.13947314824,548.13947314824,560.109211414741,0,0,4,3,0,5,0,NaN,vertical,vertical,vertical,horizontal,vertical,none
1a,23,100192,2,33,97,19,F,NA,variable,heterogeneous,6,present,1.42323398590088,1,horizontal,horizontal,1,1.03528321693683,red,3,2,967.295052392579,407.549057043193,1050.31493177915,648.656293821019,883.019879386575,841.107236777826,1050.31493177915,648.656293821019,967.295052392579,407.549057043193,716.980120613425,358.892763222174,549.685068220846,551.343706178981,632.704947607421,792.450942956807,6,0,4,5,3,3,vertical,vertical,horizontal,vertical,horizontal,vertical
1a,23,100192,2,34,98,19,F,NA,variable,heterogeneous,5,absent,1.49076294898987,1,vertical,vertical,1,0.929403515519767,green,1,NaN,938.882953928832,813.860994826083,NaN,NaN,938.882953928832,813.860994826083,1046.31108570371,534.001143498857,813.345668841951,345.349468637584,561.936991243214,508.616172865948,639.523300282292,798.172220171528,0,0,4,3,5,6,0,NaN,vertical,vertical,vertical,horizontal,horizontal,none
1a,23,100192,2,35,99,19,F,NA,variable,heterogeneous,3,absent,1.8882851600647,1,vertical,vertical,1,0.78823058029701,green,1,NaN,865.998856501143,846.311085703712,NaN,NaN,865.998856501143,846.311085703712,980.31222920257,419.68777079743,553.688914296288,534.001143498857,0,0,0,0,0,0,4,6,0,NaN,NaN,NaN,vertical,vertical,horizontal,none,none,none
1a,23,100192,2,36,100,19,F,NA,variable,heterogeneous,4,absent,0.851116895675659,1,horizontal,horizontal,1,1.0470476282054,red,3,NaN,911.784642431215,370.807518193712,NaN,NaN,688.215357568785,829.192481806288,1029.19248180629,711.784642431215,911.784642431215,370.807518193712,570.807518193712,488.215357568785,0,0,0,0,6,5,4,3,NaN,NaN,horizontal,vertical,horizontal,horizontal,none,none
1a,23,100192,2,37,101,19,F,NA,variable,heterogeneous,4,present,1.07614994049072,1,horizontal,horizontal,1,0.988225571862583,red,4,2,570.807518193712,711.784642431215,1029.19248180629,488.215357568785,911.784642431215,829.192481806288,1029.19248180629,488.215357568785,688.215357568785,370.807518193712,570.807518193712,711.784642431215,0,0,0,0,0,3,5,4,NaN,NaN,horizontal,vertical,horizontal,horizontal,none,none
1a,23,100192,2,38,102,19,F,NA,variable,heterogeneous,3,present,1.12262916564941,1,horizontal,horizontal,1,0.647057645074252,green,1,3,953.462830903772,803.65205506206,546.900731331463,631.076682568313,953.462830903772,803.65205506206,899.636437764765,365.271262369628,546.900731331463,631.076682568313,0,0,0,0,0,0,4,3,0,NaN,NaN,NaN,horizontal,vertical,vertical,none,none,none
1a,23,100192,2,39,103,19,F,NA,variable,heterogeneous,3,present,1.82987689971924,1,vertical,vertical,1,0.835288225371262,red,1,2,601.827779828472,760.476699717708,1038.06300875679,691.383827134052,601.827779828472,760.476699717708,1038.06300875679,691.383827134052,760.109211414741,348.13947314824,0,0,0,0,0,0,4,3,0,NaN,NaN,NaN,vertical,horizontal,horizontal,none,none,none
1a,23,100192,2,40,104,19,F,NA,variable,heterogeneous,6,absent,1.84985494613647,1,horizontal,horizontal,1,0.75293734649132,green,3,NaN,1032.95409169886,496.282156015671,NaN,NaN,773.345241866748,853.60308331891,1006.29933356561,749.885239334581,1032.95409169886,496.282156015671,826.654758133252,346.39691668109,593.700666434388,450.114760665419,567.045908301137,703.717843984329,3,6,4,5,0,5,horizontal,horizontal,horizontal,horizontal,vertical,vertical
1a,23,100192,2,41,105,19,F,NA,variable,heterogeneous,4,absent,NaN,0,horizontal,none,0,0.776466169028447,red,4,NaN,619.68777079743,780.31222920257,NaN,NaN,980.31222920257,780.31222920257,980.31222920257,419.68777079743,619.68777079743,419.68777079743,619.68777079743,780.31222920257,0,0,0,0,6,6,3,4,NaN,NaN,vertical,vertical,horizontal,horizontal,none,none
1a,23,100192,2,42,106,19,F,NA,variable,heterogeneous,4,absent,0.997270822525024,1,vertical,vertical,1,0.717644112685631,red,2,NaN,1042.51941165526,678.799333565612,NaN,NaN,721.200666434388,842.519411655264,1042.51941165526,678.799333565612,878.799333565612,357.480588344736,557.480588344736,521.200666434388,0,0,0,0,6,4,0,6,NaN,NaN,vertical,vertical,horizontal,vertical,none,none
1a,23,100192,2,43,107,19,F,NA,variable,heterogeneous,5,absent,1.65119600296021,1,horizontal,horizontal,1,0.882345870445514,red,3,NaN,1000.94274216971,443.006323791957,NaN,NaN,729.712474266665,845.121732464271,1011.40458100154,742.594190385041,1000.94274216971,443.006323791957,712.784863451954,360.378381699593,545.155339110131,608.899371659138,0,0,6,5,4,6,0,NaN,vertical,vertical,horizontal,vertical,vertical,none
1a,23,100192,2,44,108,19,F,NA,variable,heterogeneous,3,present,1.28177285194397,1,vertical,vertical,1,0.870581459176951,green,1,3,700.363562235235,834.728737630372,646.537169096228,396.34794493794,700.363562235235,834.728737630372,1053.09926866854,568.923317431687,646.537169096228,396.34794493794,0,0,0,0,0,0,4,6,6,NaN,NaN,NaN,vertical,horizontal,horizontal,none,none,none
1a,23,100192,2,45,109,19,F,NA,variable,heterogeneous,5,present,NaN,0,vertical,none,0,0.823523814102699,green,1,3,817.787900804752,854.378832816255,935.129412379467,383.747735480111,817.787900804752,854.378832816255,1047.42541020038,661.690083377915,935.129412379467,383.747735480111,636.089159529932,404.658667004661,563.568117085469,695.524681321058,0,0,4,0,5,3,6,NaN,vertical,horizontal,horizontal,horizontal,horizontal,none
1a,23,100192,2,46,110,19,F,NA,variable,heterogeneous,6,present,1.10660600662231,1,vertical,vertical,1,0.917639104251204,red,1,4,839.890788585259,851.86052685176,760.109211414741,348.13947314824,839.890788585259,851.86052685176,1038.06300875679,691.383827134052,998.172220171528,439.523300282291,760.109211414741,348.13947314824,561.936991243214,508.616172865948,601.827779828472,760.476699717708,4,6,0,5,3,6,vertical,vertical,vertical,horizontal,horizontal,horizontal
1a,23,100192,2,47,111,19,F,NA,variable,heterogeneous,5,present,1.02779293060303,1,horizontal,horizontal,1,0.729408523954194,green,2,1,1051.12597701811,644.280285305067,835.489140744817,852.518357529101,835.489140744817,852.518357529101,1051.12597701811,644.280285305067,919.715248510402,374.848363820974,622.862115532956,416.568350913644,570.807518193712,711.784642431215,0,0,6,4,5,0,6,NaN,horizontal,horizontal,horizontal,horizontal,vertical,none
1a,23,100192,2,48,112,19,F,NA,variable,heterogeneous,6,absent,1.47787499427795,1,vertical,vertical,1,0.882345870445514,green,1,NaN,874.554784704298,843.857712770574,NaN,NaN,874.554784704298,843.857712770574,1048.46436652023,657.362518857686,973.909581815937,413.504806087112,725.445215295702,356.142287229426,551.535633479765,542.637481142314,626.090418184063,786.495193912888,4,5,5,3,0,6,vertical,horizontal,vertical,vertical,vertical,horizontal
1a,23,100192,2,49,113,19,F,NA,variable,heterogeneous,4,present,1.39847707748413,1,vertical,vertical,1,0.741172935222757,red,1,3,773.345241866748,853.60308331891,826.654758133252,346.39691668109,773.345241866748,853.60308331891,1053.60308331891,626.654758133252,826.654758133252,346.39691668109,546.39691668109,573.345241866748,0,0,0,0,4,5,3,0,NaN,NaN,vertical,vertical,vertical,horizontal,none,none
1a,23,100192,2,50,114,19,F,NA,variable,heterogeneous,4,present,1.44428706169128,1,horizontal,horizontal,1,1.07057645074252,green,4,1,554.878267535729,529.712474266665,729.712474266665,845.121732464271,729.712474266665,845.121732464271,1045.12173246427,670.287525733335,870.287525733335,354.878267535729,554.878267535729,529.712474266665,0,0,0,0,3,0,3,4,NaN,NaN,horizontal,horizontal,vertical,horizontal,none,none
1a,23,100192,2,51,115,19,F,NA,variable,heterogeneous,4,absent,1.829185962677,1,vertical,vertical,1,0.999989983131146,red,4,NaN,546.900731331463,568.923317431687,NaN,NaN,768.923317431687,853.099268668537,1053.09926866854,631.076682568313,831.076682568313,346.900731331463,546.900731331463,568.923317431687,0,0,0,0,5,3,3,4,NaN,NaN,horizontal,horizontal,vertical,vertical,none,none
1a,23,100192,2,52,116,19,F,NA,variable,heterogeneous,5,absent,1.21003413200378,1,vertical,vertical,1,0.999989983131146,red,2,NaN,1045.12173246427,529.712474266665,NaN,NaN,942.594190385041,811.404581001536,1045.12173246427,529.712474266665,808.899371659138,345.155339110131,560.378381699593,512.784863451954,643.006323791957,800.942742169714,0,0,6,4,6,3,0,NaN,horizontal,vertical,vertical,horizontal,vertical,none
1a,23,100192,2,53,117,19,F,NA,variable,heterogeneous,6,absent,1.73566198348999,1,horizontal,horizontal,1,0.670586467611379,green,4,NaN,903.717843984329,367.045908301137,NaN,NaN,696.282156015671,832.954091698863,949.885239334581,806.299333565612,1053.60308331891,573.345241866748,903.717843984329,367.045908301137,650.114760665419,393.700666434388,546.39691668109,626.654758133252,0,6,3,4,3,0,vertical,vertical,vertical,horizontal,horizontal,horizontal
1a,23,100192,2,54,118,19,F,NA,variable,heterogeneous,5,present,NaN,0,vertical,none,0,1.01175439439971,red,3,5,919.715248510402,374.848363820974,570.807518193712,711.784642431215,835.489140744817,852.518357529101,1051.12597701811,644.280285305067,919.715248510402,374.848363820974,622.862115532956,416.568350913644,570.807518193712,711.784642431215,0,0,3,0,4,5,0,NaN,vertical,vertical,vertical,vertical,vertical,none
1a,23,100192,2,55,119,19,F,NA,variable,heterogeneous,4,present,NaN,0,vertical,none,0,0.75293734649132,green,1,4,742.637481142314,848.464366520235,551.535633479765,542.637481142314,742.637481142314,848.464366520235,1048.46436652023,657.362518857686,857.362518857686,351.535633479765,551.535633479765,542.637481142314,0,0,0,0,4,0,0,3,NaN,NaN,vertical,vertical,vertical,vertical,none,none
1a,23,100192,2,56,120,19,F,NA,variable,heterogeneous,5,present,1.72497296333313,1,horizontal,horizontal,1,0.929403515519767,red,4,1,619.68777079743,419.68777079743,839.890788585259,851.86052685176,839.890788585259,851.86052685176,1051.86052685176,639.890788585259,915.767577433584,372.793336331966,619.68777079743,419.68777079743,572.793336331966,715.767577433584,0,0,5,6,5,4,3,NaN,vertical,vertical,horizontal,horizontal,vertical,none
1a,23,100192,2,57,121,19,F,NA,variable,heterogeneous,3,absent,NaN,0,vertical,none,0,0.611764411268563,red,1,NaN,764.510859255183,852.518357529101,NaN,NaN,764.510859255183,852.518357529101,1036.43188291453,504.475318678942,599.057257830286,443.006323791957,0,0,0,0,0,0,4,6,5,NaN,NaN,NaN,vertical,vertical,vertical,none,none,none
1a,23,100192,2,58,122,19,F,NA,variable,heterogeneous,3,present,1.16704893112183,1,horizontal,horizontal,1,0.94116792678833,red,1,3,599.057257830286,756.993676208043,764.510859255183,347.4816424709,599.057257830286,756.993676208043,1036.43188291453,695.524681321058,764.510859255183,347.4816424709,0,0,0,0,0,0,4,0,5,NaN,NaN,NaN,horizontal,vertical,horizontal,none,none,none
1a,23,100192,2,59,123,19,F,NA,variable,heterogeneous,6,absent,NaN,0,vertical,none,0,0.717644112685631,green,1,NaN,839.890788585259,851.86052685176,NaN,NaN,839.890788585259,851.86052685176,1038.06300875679,691.383827134052,998.172220171528,439.523300282291,760.109211414741,348.13947314824,561.936991243214,508.616172865948,601.827779828472,760.476699717708,4,5,3,0,6,6,vertical,horizontal,horizontal,vertical,vertical,vertical
1a,23,100192,2,60,124,19,F,NA,variable,heterogeneous,3,absent,1.7510838508606,1,horizontal,horizontal,1,0.894110281714078,green,2,NaN,1032.95409169886,496.282156015671,NaN,NaN,773.345241866748,853.60308331891,1032.95409169886,496.282156015671,593.700666434388,450.114760665419,0,0,0,0,0,0,3,4,6,NaN,NaN,NaN,vertical,horizontal,vertical,none,none,none
1a,23,100192,2,61,125,19,F,NA,variable,heterogeneous,4,absent,1.2028820514679,1,vertical,vertical,1,0.635293233805689,green,3,NaN,664.870587620533,383.747735480111,NaN,NaN,935.129412379467,816.252264519889,1016.25226451989,464.870587620533,664.870587620533,383.747735480111,583.747735480111,735.129412379467,0,0,0,0,0,5,4,5,NaN,NaN,horizontal,vertical,vertical,horizontal,none,none
1a,23,100192,2,62,126,19,F,NA,variable,heterogeneous,4,absent,1.26829481124878,1,horizontal,horizontal,1,0.858817047908388,green,1,NaN,808.899371659138,854.844660889869,NaN,NaN,808.899371659138,854.844660889869,1054.84466088987,591.100628340862,791.100628340862,345.155339110131,545.155339110131,608.899371659138,0,0,0,0,4,5,3,0,NaN,NaN,horizontal,vertical,horizontal,vertical,none,none
1a,23,100192,2,63,127,19,F,NA,variable,heterogeneous,5,absent,1.44963884353638,1,vertical,vertical,1,1.01175439439971,red,3,NaN,923.626453162816,376.971974679454,NaN,NaN,831.076682568313,853.099268668537,1050.31493177915,648.656293821019,923.626453162816,376.971974679454,626.090418184063,413.504806087112,568.891514305654,707.767656743878,0,0,6,0,4,3,3,NaN,horizontal,horizontal,vertical,vertical,horizontal,none
1a,23,100192,2,64,128,19,F,NA,variable,heterogeneous,6,absent,NaN,0,vertical,none,0,0.717644112685631,red,6,NaN,616.568350913644,777.137884467044,NaN,NaN,861.690083377915,847.425410200379,1045.12173246427,670.287525733335,983.431649086356,422.862115532956,738.309916622085,352.574589799621,554.878267535729,529.712474266665,616.568350913644,777.137884467044,5,6,3,0,3,4,horizontal,vertical,vertical,vertical,vertical,vertical
1a,23,100192,3,1,129,19,F,NA,variable,heterogeneous,6,absent,NaN,0,horizontal,none,0,0.611764411268563,green,3,NaN,1054.84466088987,591.100628340862,NaN,NaN,680.284751489598,825.151636179026,935.129412379467,816.252264519889,1054.84466088987,591.100628340862,919.715248510402,374.848363820974,664.870587620533,383.747735480111,545.155339110131,608.899371659138,5,6,4,5,6,0,horizontal,vertical,horizontal,vertical,vertical,horizontal
1a,23,100192,3,2,130,19,F,NA,variable,heterogeneous,5,absent,1.40556383132935,1,horizontal,horizontal,1,0.823523814102699,green,1,NaN,650.114760665419,806.299333565612,NaN,NaN,650.114760665419,806.299333565612,949.885239334581,806.299333565612,1042.51941165526,521.200666434388,800,345,557.480588344736,521.200666434388,0,0,4,6,6,5,5,NaN,horizontal,vertical,horizontal,horizontal,horizontal,none
1a,23,100192,3,3,131,19,F,NA,variable,heterogeneous,5,present,1.27755403518677,1,horizontal,horizontal,1,0.988225571862583,red,5,4,550.57236181288,546.982518841471,773.345241866748,346.39691668109,672.5,820.836477965032,970.628304621509,789.501930496736,1032.95409169886,496.282156015671,773.345241866748,346.39691668109,550.57236181288,546.982518841471,0,0,3,5,6,5,4,NaN,vertical,vertical,horizontal,horizontal,horizontal,none
1a,23,100192,3,4,132,19,F,NA,variable,heterogeneous,6,absent,1.38629794120789,1,vertical,vertical,1,0.75293734649132,green,6,NaN,639.523300282292,798.172220171528,NaN,NaN,891.383827134052,838.063008756786,1051.86052685176,639.890788585259,960.476699717708,401.827779828472,708.616172865948,361.936991243214,548.13947314824,560.109211414741,639.523300282292,798.172220171528,0,0,3,5,6,4,horizontal,vertical,horizontal,vertical,vertical,vertical
1a,23,100192,3,5,133,19,F,NA,variable,heterogeneous,5,absent,NaN,0,horizontal,none,0,0.623528822537126,red,4,NaN,583.747735480111,464.870587620533,NaN,NaN,895.524681321058,836.431882914531,1054.37883281626,582.212099195248,861.690083377915,352.574589799621,583.747735480111,464.870587620533,604.658667004661,763.910840470068,0,0,3,0,6,4,5,NaN,horizontal,horizontal,vertical,horizontal,horizontal,none
1a,23,100192,3,6,134,19,F,NA,variable,heterogeneous,6,absent,1.74685788154602,1,horizontal,horizontal,1,0.999989983131146,red,2,NaN,1039.62161830041,687.215136548046,NaN,NaN,844.280285305067,851.125977018113,1039.62161830041,687.215136548046,995.341332995339,436.089159529932,755.719714694933,348.874022981887,560.378381699593,512.784863451954,604.658667004661,763.910840470068,3,4,6,0,5,0,vertical,horizontal,vertical,horizontal,vertical,horizontal
1a,23,100192,3,7,135,19,F,NA,variable,heterogeneous,6,absent,1.25933194160461,1,vertical,vertical,1,0.870581459176951,red,6,NaN,619.68777079743,780.31222920257,NaN,NaN,865.998856501143,846.311085703712,1046.31108570371,665.998856501143,980.31222920257,419.68777079743,734.001143498857,353.688914296288,553.688914296288,534.001143498857,619.68777079743,780.31222920257,0,6,3,3,0,4,horizontal,horizontal,vertical,vertical,vertical,vertical
1a,23,100192,3,8,136,19,F,NA,variable,heterogeneous,3,absent,0.949136018753052,1,horizontal,horizontal,1,0.623528822537126,red,3,NaN,795.549636358493,345.03883773512,NaN,NaN,581.422338320961,731.334709102064,1023.02802532055,723.626453162816,795.549636358493,345.03883773512,0,0,0,0,0,0,3,5,4,NaN,NaN,NaN,vertical,horizontal,horizontal,none,none,none
1a,23,100192,3,9,137,19,F,NA,variable,heterogeneous,4,present,0.844115018844604,1,horizontal,horizontal,1,0.999989983131146,red,3,4,887.215136548046,360.378381699593,560.378381699593,512.784863451954,712.784863451954,839.621618300407,1039.62161830041,687.215136548046,887.215136548046,360.378381699593,560.378381699593,512.784863451954,0,0,0,0,3,0,4,5,NaN,NaN,vertical,vertical,horizontal,horizontal,none,none
1a,23,100192,3,10,138,19,F,NA,variable,heterogeneous,3,absent,0.624234914779663,1,horizontal,horizontal,1,0.741172935222757,red,2,NaN,919.715248510402,374.848363820974,NaN,NaN,935.129412379467,816.252264519889,919.715248510402,374.848363820974,545.155339110131,608.899371659138,0,0,0,0,0,0,5,4,5,NaN,NaN,NaN,vertical,horizontal,horizontal,none,none,none
1a,23,100192,3,11,139,19,F,NA,variable,heterogeneous,3,absent,0.879733085632324,1,horizontal,horizontal,1,0.741172935222757,green,1,NaN,636.089159529932,795.341332995339,NaN,NaN,636.089159529932,795.341332995339,1051.12597701811,644.280285305067,712.784863451954,360.378381699593,0,0,0,0,0,0,4,0,6,NaN,NaN,NaN,horizontal,horizontal,vertical,none,none,none
1a,23,100192,3,12,140,19,F,NA,variable,heterogeneous,4,present,1.25189709663391,1,horizontal,horizontal,1,0.929403515519767,green,4,3,546.900731331463,568.923317431687,831.076682568313,346.900731331463,768.923317431687,853.099268668537,1053.09926866854,631.076682568313,831.076682568313,346.900731331463,546.900731331463,568.923317431687,0,0,0,0,3,0,5,4,NaN,NaN,vertical,vertical,vertical,horizontal,none,none
1a,23,100192,3,13,141,19,F,NA,variable,heterogeneous,3,present,0.857700109481812,1,vertical,vertical,1,0.623528822537126,green,3,1,626.090418184063,413.504806087112,725.445215295702,843.857712770574,725.445215295702,843.857712770574,1048.46436652023,542.637481142314,626.090418184063,413.504806087112,0,0,0,0,0,0,3,5,4,NaN,NaN,NaN,horizontal,horizontal,vertical,none,none,none
1a,23,100192,3,14,142,19,F,NA,variable,heterogeneous,4,absent,1.04020214080811,1,horizontal,horizontal,1,1.05881203947396,red,1,NaN,742.637481142314,848.464366520235,NaN,NaN,742.637481142314,848.464366520235,1048.46436652023,657.362518857686,857.362518857686,351.535633479765,551.535633479765,542.637481142314,0,0,0,0,4,5,6,3,NaN,NaN,horizontal,vertical,vertical,horizontal,none,none
1a,23,100192,3,15,143,19,F,NA,variable,heterogeneous,5,absent,NaN,0,vertical,none,0,0.75293734649132,red,4,NaN,791.100628340862,345.155339110131,NaN,NaN,657.405809614959,811.404581001536,956.993676208043,800.942742169714,1039.62161830041,512.784863451954,791.100628340862,345.155339110131,554.878267535729,529.712474266665,0,0,0,3,6,4,5,NaN,horizontal,vertical,vertical,vertical,vertical,none
1a,23,100192,3,16,144,19,F,NA,variable,heterogeneous,6,present,1.24973797798157,1,horizontal,horizontal,1,0.858817047908388,green,3,6,1020.83647796503,472.5,579.163522034968,727.5,800,855,1020.83647796503,727.5,1020.83647796503,472.5,800,345,579.163522034968,472.5,579.163522034968,727.5,6,0,4,3,3,0,vertical,horizontal,horizontal,vertical,horizontal,vertical
1a,23,100192,3,17,145,19,F,NA,variable,heterogeneous,5,present,NaN,0,vertical,none,0,0.78823058029701,green,2,3,1054.37883281626,582.212099195248,861.690083377915,352.574589799621,895.524681321058,836.431882914531,1054.37883281626,582.212099195248,861.690083377915,352.574589799621,583.747735480111,464.870587620533,604.658667004661,763.910840470068,0,0,3,4,6,3,0,NaN,vertical,vertical,horizontal,vertical,horizontal,none
1a,23,100192,3,18,146,19,F,NA,variable,heterogeneous,3,present,0.900696992874146,1,horizontal,horizontal,1,0.682350878879942,red,2,3,835.489140744817,347.4816424709,563.568117085469,695.524681321058,1000.94274216971,756.993676208043,835.489140744817,347.4816424709,563.568117085469,695.524681321058,0,0,0,0,0,0,0,4,5,NaN,NaN,NaN,vertical,horizontal,horizontal,none,none,none
1a,23,100192,3,19,147,19,F,NA,variable,heterogeneous,5,absent,1.04145312309265,1,vertical,vertical,1,0.729408523954194,green,3,NaN,907.767656743878,368.891514305654,NaN,NaN,848.656293821019,850.314931779154,1053.09926866854,631.076682568313,907.767656743878,368.891514305654,613.504806087112,426.090418184063,576.971974679454,723.626453162816,0,0,0,5,4,3,3,NaN,horizontal,horizontal,vertical,vertical,horizontal,none
1a,23,100192,3,20,148,19,F,NA,variable,heterogeneous,5,absent,1.45795798301697,1,vertical,vertical,1,0.776466169028447,green,1,NaN,813.345668841951,854.650531362416,NaN,NaN,813.345668841951,854.650531362416,1046.31108570371,665.998856501143,938.882953928832,386.139005173917,639.523300282292,401.827779828472,561.936991243214,691.383827134052,0,0,4,5,6,3,0,NaN,vertical,horizontal,horizontal,horizontal,horizontal,none
1a,23,100192,3,21,149,19,F,NA,variable,heterogeneous,6,absent,0.645678997039795,1,vertical,vertical,1,0.717644112685631,green,4,NaN,808.899371659138,345.155339110131,NaN,NaN,791.100628340862,854.844660889869,1016.25226451989,735.129412379467,1025.15163617903,480.284751489598,808.899371659138,345.155339110131,583.747735480111,464.870587620533,574.848363820974,719.715248510402,0,6,6,4,3,0,horizontal,horizontal,horizontal,vertical,vertical,vertical
1a,23,100192,3,22,150,19,F,NA,variable,heterogeneous,4,absent,0.74763298034668,1,horizontal,horizontal,1,0.823523814102699,green,3,NaN,973.909581815937,413.504806087112,NaN,NaN,626.090418184063,786.495193912888,986.495193912888,773.909581815937,973.909581815937,413.504806087112,613.504806087112,426.090418184063,0,0,0,0,5,3,4,0,NaN,NaN,horizontal,horizontal,horizontal,horizontal,none,none
1a,23,100192,3,23,151,19,F,NA,variable,heterogeneous,6,present,NaN,0,horizontal,none,0,1.02351880566827,red,4,2,861.690083377915,352.574589799621,983.431649086356,777.137884467044,738.309916622085,847.425410200379,983.431649086356,777.137884467044,1045.12173246427,529.712474266665,861.690083377915,352.574589799621,616.568350913644,422.862115532956,554.878267535729,670.287525733335,0,3,5,4,6,0,horizontal,vertical,vertical,horizontal,horizontal,vertical
1a,23,100192,3,24,152,19,F,NA,variable,heterogeneous,3,present,1.46515798568726,1,vertical,vertical,1,0.894110281714078,red,1,2,804.450363641507,854.96116226488,1018.57766167904,468.665290897936,804.450363641507,854.96116226488,1018.57766167904,468.665290897936,576.971974679454,476.373546837184,0,0,0,0,0,0,4,6,5,NaN,NaN,NaN,vertical,horizontal,horizontal,none,none,none
1a,23,100192,3,25,153,19,F,NA,variable,heterogeneous,6,present,1.68072009086609,0,horizontal,vertical,1,0.705879701417068,green,5,6,546.900731331463,568.923317431687,646.537169096228,803.65205506206,899.636437764765,834.728737630372,1053.09926866854,631.076682568313,953.462830903772,396.34794493794,700.363562235235,365.271262369628,546.900731331463,568.923317431687,646.537169096228,803.65205506206,5,0,6,0,4,5,vertical,vertical,vertical,horizontal,horizontal,vertical
1a,23,100192,3,26,154,19,F,NA,variable,heterogeneous,4,present,1.29994320869446,1,vertical,vertical,1,1.08234086201109,green,4,3,560.378381699593,687.215136548046,712.784863451954,360.378381699593,887.215136548046,839.621618300407,1039.62161830041,512.784863451954,712.784863451954,360.378381699593,560.378381699593,687.215136548046,0,0,0,0,6,5,3,4,NaN,NaN,horizontal,horizontal,vertical,vertical,none,none
1a,23,100192,3,27,155,19,F,NA,variable,heterogeneous,4,absent,1.04318904876709,1,vertical,vertical,1,0.847052636639825,green,2,NaN,1027.20666366803,484.232422566416,NaN,NaN,915.767577433584,827.206663668034,1027.20666366803,484.232422566416,684.232422566416,372.793336331966,572.793336331966,715.767577433584,0,0,0,0,6,4,5,5,NaN,NaN,horizontal,vertical,horizontal,horizontal,none,none
1a,23,100192,3,28,156,19,F,NA,variable,heterogeneous,4,absent,1.07708406448364,1,vertical,vertical,1,0.847052636639825,red,1,NaN,927.5,820.836477965032,NaN,NaN,927.5,820.836477965032,1020.83647796503,472.5,672.5,379.163522034968,579.163522034968,727.5,0,0,0,0,4,0,5,3,NaN,NaN,vertical,horizontal,horizontal,horizontal,none,none
1a,23,100192,3,29,157,19,F,NA,variable,heterogeneous,6,present,1.75385189056396,0,vertical,horizontal,1,0.952932338056893,green,1,5,700.363562235235,834.728737630372,646.537169096228,396.34794493794,700.363562235235,834.728737630372,953.462830903772,803.65205506206,1053.09926866854,568.923317431687,899.636437764765,365.271262369628,646.537169096228,396.34794493794,546.900731331463,631.076682568313,4,6,3,5,0,6,vertical,vertical,horizontal,vertical,vertical,vertical
1a,23,100192,3,30,158,19,F,NA,variable,heterogeneous,5,present,1.06120014190674,1,vertical,vertical,1,0.999989983131146,green,4,5,650.114760665419,393.700666434388,557.480588344736,678.799333565612,800,855,1042.51941165526,678.799333565612,949.885239334581,393.700666434388,650.114760665419,393.700666434388,557.480588344736,678.799333565612,0,0,5,6,3,4,3,NaN,horizontal,vertical,vertical,vertical,horizontal,none
1a,23,100192,3,31,159,19,F,NA,variable,heterogeneous,5,present,1.21414709091187,1,horizontal,horizontal,1,0.776466169028447,green,2,3,1041.10723677783,683.019879386575,953.462830903772,396.34794493794,795.549636358493,854.96116226488,1041.10723677783,683.019879386575,953.462830903772,396.34794493794,653.738008730483,391.116228706307,556.142287229426,674.554784704298,0,0,0,4,6,6,3,NaN,horizontal,horizontal,horizontal,horizontal,horizontal,none
1a,23,100192,3,32,160,19,F,NA,variable,heterogeneous,3,absent,1.80449104309082,1,vertical,vertical,1,0.682350878879942,red,3,NaN,567.045908301137,496.282156015671,NaN,NaN,826.654758133252,853.60308331891,1006.29933356561,450.114760665419,567.045908301137,496.282156015671,0,0,0,0,0,0,6,5,4,NaN,NaN,NaN,horizontal,horizontal,vertical,none,none,none
1a,23,100192,3,33,161,19,F,NA,variable,heterogeneous,3,present,1.21514987945557,1,horizontal,horizontal,1,0.729408523954194,green,3,2,616.568350913644,422.862115532956,1045.12173246427,529.712474266665,738.309916622085,847.425410200379,1045.12173246427,529.712474266665,616.568350913644,422.862115532956,0,0,0,0,0,0,0,6,4,NaN,NaN,NaN,horizontal,vertical,horizontal,none,none,none
1a,23,100192,3,34,162,19,F,NA,variable,heterogeneous,3,absent,1.29646706581116,1,vertical,vertical,1,1.0470476282054,green,3,NaN,558.892763222174,683.019879386575,NaN,NaN,992.450942956807,767.295052392579,848.656293821019,349.685068220846,558.892763222174,683.019879386575,0,0,0,0,0,0,5,6,4,NaN,NaN,NaN,horizontal,vertical,vertical,none,none,none
1a,23,100192,3,35,163,19,F,NA,variable,heterogeneous,6,present,0.967038154602051,1,vertical,vertical,1,0.823523814102699,green,2,4,1053.60308331891,626.654758133252,696.282156015671,367.045908301137,903.717843984329,832.954091698863,1053.60308331891,626.654758133252,949.885239334581,393.700666434388,696.282156015671,367.045908301137,546.39691668109,573.345241866748,650.114760665419,806.299333565612,6,4,0,0,5,6,horizontal,vertical,horizontal,vertical,horizontal,vertical
1a,23,100192,3,36,164,19,F,NA,variable,heterogeneous,4,present,0.809570074081421,1,vertical,vertical,1,0.94116792678833,red,4,2,546.39691668109,626.654758133252,1053.60308331891,573.345241866748,826.654758133252,853.60308331891,1053.60308331891,573.345241866748,773.345241866748,346.39691668109,546.39691668109,626.654758133252,0,0,0,0,5,5,0,4,NaN,NaN,vertical,vertical,horizontal,vertical,none,none
1a,23,100192,3,37,165,19,F,NA,variable,heterogeneous,5,absent,NaN,0,horizontal,none,0,0.729408523954194,red,3,NaN,1008.88377129369,453.738008730483,NaN,NaN,716.980120613425,841.107236777826,1003.65205506206,753.462830903772,1008.88377129369,453.738008730483,725.445215295702,356.142287229426,545.03883773512,595.549636358493,0,0,5,3,4,6,5,NaN,horizontal,vertical,horizontal,vertical,horizontal,none
1a,23,100192,3,38,166,19,F,NA,variable,heterogeneous,4,present,0.920628070831299,1,vertical,vertical,1,0.999989983131146,red,2,4,1020.83647796503,727.5,579.163522034968,472.5,672.5,820.836477965032,1020.83647796503,727.5,927.5,379.163522034968,579.163522034968,472.5,0,0,0,0,0,4,5,3,NaN,NaN,horizontal,vertical,vertical,horizontal,none,none
1a,23,100192,3,39,167,19,F,NA,variable,heterogeneous,4,absent,1.60122108459473,1,horizontal,horizontal,1,0.894110281714078,red,3,NaN,786.654331158049,345.349468637584,NaN,NaN,813.345668841951,854.650531362416,1054.65053136242,586.654331158049,786.654331158049,345.349468637584,545.349468637584,613.345668841951,0,0,0,0,3,6,4,6,NaN,NaN,vertical,vertical,horizontal,vertical,none,none
1a,23,100192,3,40,168,19,F,NA,variable,heterogeneous,6,present,0.824654102325439,1,vertical,vertical,1,0.764701757759883,red,4,2,878.799333565612,357.480588344736,970.628304621509,789.501930496736,721.200666434388,842.519411655264,970.628304621509,789.501930496736,1049.42763818712,546.982518841471,878.799333565612,357.480588344736,629.371695378491,410.498069503264,550.57236181288,653.017481158529,6,5,0,4,3,6,vertical,vertical,horizontal,vertical,vertical,horizontal
1a,23,100192,3,41,169,19,F,NA,variable,heterogeneous,3,absent,0.659183979034424,1,vertical,vertical,1,0.682350878879942,green,2,NaN,967.295052392579,407.549057043193,NaN,NaN,883.019879386575,841.107236777826,967.295052392579,407.549057043193,549.685068220846,551.343706178981,0,0,0,0,0,0,6,4,3,NaN,NaN,NaN,horizontal,vertical,vertical,none,none,none
1a,23,100192,3,42,170,19,F,NA,variable,heterogeneous,6,absent,NaN,0,vertical,none,0,1.05881203947396,red,1,NaN,800,855,NaN,NaN,800,855,1020.83647796503,727.5,1020.83647796503,472.5,800,345,579.163522034968,472.5,579.163522034968,727.5,4,0,6,0,3,5,vertical,horizontal,horizontal,vertical,vertical,vertical
1a,23,100192,3,43,171,19,F,NA,variable,heterogeneous,6,present,NaN,0,horizontal,none,0,0.658822056342816,red,5,1,545.621167183745,582.212099195248,911.784642431215,829.192481806288,911.784642431215,829.192481806288,1054.37883281626,617.787900804752,942.594190385041,388.595418998464,688.215357568785,370.807518193712,545.621167183745,582.212099195248,657.405809614959,811.404581001536,5,6,3,5,4,3,horizontal,horizontal,vertical,horizontal,horizontal,horizontal
1a,23,100192,3,44,172,19,F,NA,variable,heterogeneous,4,present,1.17038178443909,1,vertical,vertical,1,0.94116792678833,green,1,2,938.882953928832,813.860994826083,1013.86099482608,461.117046071168,938.882953928832,813.860994826083,1013.86099482608,461.117046071168,661.117046071168,386.139005173917,586.139005173917,738.882953928832,0,0,0,0,4,6,0,5,NaN,NaN,vertical,vertical,horizontal,vertical,none,none
1a,23,100192,3,45,173,19,F,NA,variable,heterogeneous,6,absent,1.49829506874084,1,horizontal,horizontal,1,0.823523814102699,green,6,NaN,586.139005173917,738.882953928832,NaN,NaN,813.345668841951,854.650531362416,1027.20666366803,715.767577433584,1013.86099482608,461.117046071168,786.654331158049,345.349468637584,572.793336331966,484.232422566416,586.139005173917,738.882953928832,6,3,5,6,3,4,horizontal,vertical,horizontal,horizontal,vertical,horizontal
1a,23,100192,3,46,174,19,F,NA,variable,heterogeneous,5,present,1.1643750667572,1,horizontal,horizontal,1,0.988225571862583,green,5,2,561.936991243214,691.383827134052,1046.31108570371,665.998856501143,813.345668841951,854.650531362416,1046.31108570371,665.998856501143,938.882953928832,386.139005173917,639.523300282292,401.827779828472,561.936991243214,691.383827134052,0,0,6,0,6,5,4,NaN,vertical,horizontal,horizontal,vertical,horizontal,none
1a,23,100192,3,47,175,19,F,NA,variable,heterogeneous,5,present,NaN,0,vertical,none,0,0.705879701417068,red,4,5,574.848363820974,480.284751489598,616.568350913644,777.137884467044,911.784642431215,829.192481806288,1052.5183575291,564.510859255183,844.280285305067,348.874022981887,574.848363820974,480.284751489598,616.568350913644,777.137884467044,0,0,0,5,5,4,6,NaN,vertical,vertical,vertical,vertical,horizontal,none
1a,23,100192,3,48,176,19,F,NA,variable,heterogeneous,4,present,1.72575688362122,0,horizontal,vertical,1,0.776466169028447,red,4,3,591.116228706307,746.261991269517,653.738008730483,391.116228706307,946.261991269517,808.883771293693,1008.88377129369,453.738008730483,653.738008730483,391.116228706307,591.116228706307,746.261991269517,0,0,0,0,6,5,0,4,NaN,NaN,horizontal,horizontal,vertical,horizontal,none,none
1a,23,100192,3,49,177,19,F,NA,variable,heterogeneous,6,absent,1.9418420791626,0,horizontal,vertical,1,1.07057645074252,red,1,NaN,870.287525733335,845.121732464271,NaN,NaN,870.287525733335,845.121732464271,1047.42541020038,661.690083377915,977.137884467044,416.568350913644,729.712474266665,354.878267535729,552.574589799621,538.309916622085,622.862115532956,783.431649086356,4,3,0,6,5,3,horizontal,vertical,vertical,vertical,horizontal,vertical
1a,23,100192,3,50,178,19,F,NA,variable,heterogeneous,3,absent,NaN,0,vertical,none,0,0.705879701417068,red,2,NaN,1046.31108570371,534.001143498857,NaN,NaN,734.001143498857,846.311085703712,1046.31108570371,534.001143498857,619.68777079743,419.68777079743,0,0,0,0,0,0,6,4,5,NaN,NaN,NaN,vertical,vertical,vertical,none,none,none
1a,23,100192,3,51,179,19,F,NA,variable,heterogeneous,4,absent,0.961154937744141,1,horizontal,horizontal,1,0.694115290148505,green,2,NaN,998.172220171528,760.476699717708,NaN,NaN,639.523300282292,798.172220171528,998.172220171528,760.476699717708,960.476699717708,401.827779828472,601.827779828472,439.523300282291,0,0,0,0,0,4,0,3,NaN,NaN,horizontal,horizontal,horizontal,horizontal,none,none
1a,23,100192,3,52,180,19,F,NA,variable,heterogeneous,4,present,1.62418699264526,1,horizontal,horizontal,1,0.78823058029701,green,1,3,795.549636358493,854.96116226488,804.450363641507,345.03883773512,795.549636358493,854.96116226488,1054.96116226488,604.450363641507,804.450363641507,345.03883773512,545.03883773512,595.549636358493,0,0,0,0,4,6,5,5,NaN,NaN,horizontal,vertical,vertical,horizontal,none,none
1a,23,100192,3,53,181,19,F,NA,variable,heterogeneous,3,absent,0.776906967163086,1,horizontal,horizontal,1,0.78823058029701,green,1,NaN,857.362518857686,848.464366520235,NaN,NaN,857.362518857686,848.464366520235,986.495193912888,426.090418184063,556.142287229426,525.445215295702,0,0,0,0,0,0,4,0,3,NaN,NaN,NaN,horizontal,horizontal,vertical,none,none,none
1a,23,100192,3,54,182,19,F,NA,variable,heterogeneous,5,present,1.95327997207642,0,vertical,horizontal,1,0.835288225371262,red,2,1,989.501930496736,770.628304621509,696.282156015671,832.954091698863,696.282156015671,832.954091698863,989.501930496736,770.628304621509,1020.83647796503,472.5,746.982518841471,350.57236181288,546.39691668109,573.345241866748,0,0,5,4,3,5,6,NaN,horizontal,vertical,vertical,horizontal,horizontal,none
1a,23,100192,3,55,183,19,F,NA,variable,heterogeneous,3,present,1.59060907363892,1,vertical,vertical,1,1.09410527327965,red,1,3,768.923317431687,853.099268668537,596.34794493794,446.537169096228,768.923317431687,853.099268668537,1034.72873763037,500.363562235235,596.34794493794,446.537169096228,0,0,0,0,0,0,4,0,6,NaN,NaN,NaN,vertical,vertical,horizontal,none,none,none
1a,23,100192,3,56,184,19,F,NA,variable,heterogeneous,3,present,0.745507001876831,1,vertical,vertical,1,0.94116792678833,green,1,3,911.784642431215,829.192481806288,545.621167183745,582.212099195248,911.784642431215,829.192481806288,942.594190385041,388.595418998464,545.621167183745,582.212099195248,0,0,0,0,0,0,4,6,6,NaN,NaN,NaN,vertical,horizontal,horizontal,none,none,none
1a,23,100192,3,57,185,19,F,NA,variable,heterogeneous,4,absent,1.01008296012878,1,vertical,vertical,1,0.870581459176951,green,2,NaN,989.501930496736,429.371695378491,NaN,NaN,970.628304621509,789.501930496736,989.501930496736,429.371695378491,629.371695378491,410.498069503264,610.498069503264,770.628304621509,0,0,0,0,6,4,5,3,NaN,NaN,vertical,vertical,horizontal,vertical,none,none
1a,23,100192,3,58,186,19,F,NA,variable,heterogeneous,5,absent,0.995142936706543,1,horizontal,horizontal,1,0.635293233805689,green,2,NaN,1031.10848569435,707.767656743878,NaN,NaN,768.923317431687,853.099268668537,1031.10848569435,707.767656743878,973.909581815937,413.504806087112,676.373546837184,376.971974679454,549.685068220846,648.656293821019,0,0,6,4,3,6,0,NaN,vertical,horizontal,horizontal,vertical,vertical,none
1a,23,100192,3,59,187,19,F,NA,variable,heterogeneous,6,present,1.96944093704224,0,vertical,horizontal,1,0.929403515519767,red,4,1,891.383827134052,361.936991243214,708.616172865948,838.063008756786,708.616172865948,838.063008756786,960.476699717708,798.172220171528,1051.86052685176,560.109211414741,891.383827134052,361.936991243214,639.523300282292,401.827779828472,548.13947314824,639.890788585259,5,6,0,4,5,3,horizontal,horizontal,horizontal,vertical,horizontal,horizontal
1a,23,100192,3,60,188,19,F,NA,variable,heterogeneous,3,present,0.825989961624146,1,horizontal,horizontal,1,0.847052636639825,red,3,1,742.637481142314,351.535633479765,613.504806087112,773.909581815937,613.504806087112,773.909581815937,1043.85771277057,674.554784704298,742.637481142314,351.535633479765,0,0,0,0,0,0,6,0,4,NaN,NaN,NaN,vertical,vertical,horizontal,none,none,none
1a,23,100192,3,61,189,19,F,NA,variable,heterogeneous,5,present,1.83914399147034,0,horizontal,vertical,1,1.02351880566827,red,4,1,643.006323791957,399.057257830286,808.899371659138,854.844660889869,808.899371659138,854.844660889869,1045.12173246427,670.287525733335,942.594190385041,388.595418998464,643.006323791957,399.057257830286,560.378381699593,687.215136548046,0,0,5,3,5,4,6,NaN,horizontal,vertical,vertical,horizontal,vertical,none
1a,23,100192,3,62,190,19,F,NA,variable,heterogeneous,4,absent,1.90332698822021,1,vertical,vertical,1,0.952932338056893,red,3,NaN,891.383827134052,361.936991243214,NaN,NaN,708.616172865948,838.063008756786,1038.06300875679,691.383827134052,891.383827134052,361.936991243214,561.936991243214,508.616172865948,0,0,0,0,5,3,4,3,NaN,NaN,horizontal,vertical,vertical,horizontal,none,none
1a,23,100192,3,63,191,19,F,NA,variable,heterogeneous,3,present,1.54768896102905,1,horizontal,horizontal,1,0.905874692982641,green,1,3,588.595418998464,742.594190385041,782.212099195248,345.621167183745,588.595418998464,742.594190385041,1029.19248180629,711.784642431215,782.212099195248,345.621167183745,0,0,0,0,0,0,4,6,5,NaN,NaN,NaN,horizontal,horizontal,vertical,none,none,none
1a,23,100192,3,64,192,19,F,NA,variable,heterogeneous,5,absent,1.50394701957703,1,vertical,vertical,1,0.658822056342816,red,2,NaN,998.172220171528,760.476699717708,NaN,NaN,708.616172865948,838.063008756786,998.172220171528,760.476699717708,1013.86099482608,461.117046071168,734.001143498857,353.688914296288,545.349468637584,586.654331158049,0,0,0,4,6,6,0,NaN,vertical,vertical,horizontal,vertical,vertical,none
1a,23,100192,4,1,193,19,F,NA,variable,heterogeneous,4,present,1.00619387626648,1,horizontal,horizontal,1,0.94116792678833,red,2,3,1000.94274216971,443.006323791957,643.006323791957,399.057257830286,956.993676208043,800.942742169714,1000.94274216971,443.006323791957,643.006323791957,399.057257830286,599.057257830286,756.993676208043,0,0,0,0,0,4,0,5,NaN,NaN,horizontal,horizontal,vertical,vertical,none,none
1a,23,100192,4,2,194,19,F,NA,variable,heterogeneous,4,present,1.44332408905029,1,vertical,vertical,1,1.0470476282054,green,1,4,622.862115532956,783.431649086356,616.568350913644,422.862115532956,622.862115532956,783.431649086356,983.431649086356,777.137884467044,977.137884467044,416.568350913644,616.568350913644,422.862115532956,0,0,0,0,4,6,5,3,NaN,NaN,vertical,vertical,horizontal,vertical,none,none
1a,23,100192,4,3,195,19,F,NA,variable,heterogeneous,5,present,0.816550970077515,1,horizontal,horizontal,1,0.811759402834136,green,2,5,1053.09926866854,568.923317431687,613.504806087112,773.909581815937,907.767656743878,831.108485694346,1053.09926866854,568.923317431687,848.656293821019,349.685068220846,576.971974679454,476.373546837184,613.504806087112,773.909581815937,0,0,5,4,0,3,3,NaN,vertical,horizontal,vertical,vertical,vertical,none
1a,23,100192,4,4,196,19,F,NA,variable,heterogeneous,5,present,0.959630012512207,1,vertical,vertical,1,0.729408523954194,red,4,1,646.537169096228,396.34794493794,804.450363641507,854.96116226488,804.450363641507,854.96116226488,1043.85771277057,674.554784704298,946.261991269517,391.116228706307,646.537169096228,396.34794493794,558.892763222174,683.019879386575,0,0,5,6,0,4,5,NaN,vertical,vertical,horizontal,vertical,horizontal,none
1a,23,100192,4,5,197,19,F,NA,variable,heterogeneous,6,absent,0.844003915786743,1,horizontal,horizontal,1,0.847052636639825,green,3,NaN,956.993676208043,399.057257830286,NaN,NaN,895.524681321058,836.431882914531,1052.5183575291,635.489140744817,956.993676208043,399.057257830286,704.475318678942,363.568117085469,547.481642470899,564.510859255183,643.006323791957,800.942742169714,5,6,4,0,3,5,vertical,vertical,horizontal,horizontal,horizontal,horizontal
1a,23,100192,4,6,198,19,F,NA,variable,heterogeneous,3,present,0.761694192886353,1,horizontal,horizontal,1,0.835288225371262,red,2,1,1036.43188291453,504.475318678942,764.510859255183,852.518357529101,764.510859255183,852.518357529101,1036.43188291453,504.475318678942,599.057257830286,443.006323791957,0,0,0,0,0,0,0,4,0,NaN,NaN,NaN,horizontal,horizontal,vertical,none,none,none
1a,23,100192,4,7,199,19,F,NA,variable,heterogeneous,4,absent,1.67749094963074,1,horizontal,horizontal,1,0.823523814102699,red,3,NaN,931.334709102064,381.422338320961,NaN,NaN,668.665290897936,818.577661679039,1018.57766167904,731.334709102064,931.334709102064,381.422338320961,581.422338320961,468.665290897936,0,0,0,0,3,5,4,5,NaN,NaN,horizontal,vertical,horizontal,horizontal,none,none
1a,23,100192,4,8,200,19,F,NA,variable,heterogeneous,4,present,1.23965191841125,1,vertical,vertical,1,0.835288225371262,red,4,2,550.57236181288,546.982518841471,1049.42763818712,653.017481158529,746.982518841471,849.42763818712,1049.42763818712,653.017481158529,853.017481158529,350.57236181288,550.57236181288,546.982518841471,0,0,0,0,5,0,3,4,NaN,NaN,horizontal,vertical,horizontal,vertical,none,none
1a,23,100192,4,9,201,19,F,NA,variable,heterogeneous,5,present,1.70485186576843,1,horizontal,horizontal,1,0.799994991565573,red,4,1,672.5,379.163522034968,773.345241866748,853.60308331891,773.345241866748,853.60308331891,1032.95409169886,703.717843984329,970.628304621509,410.498069503264,672.5,379.163522034968,550.57236181288,653.017481158529,0,0,0,6,5,4,0,NaN,vertical,horizontal,horizontal,horizontal,horizontal,none
1a,23,100192,4,10,202,19,F,NA,variable,heterogeneous,3,absent,0.818827152252197,1,vertical,vertical,1,0.976461160594019,red,3,NaN,610.498069503264,429.371695378491,NaN,NaN,746.982518841471,849.42763818712,1042.51941165526,521.200666434388,610.498069503264,429.371695378491,0,0,0,0,0,0,6,3,4,NaN,NaN,NaN,horizontal,vertical,vertical,none,none,none
1a,23,100192,4,11,203,19,F,NA,variable,heterogeneous,6,present,1.13793897628784,1,vertical,vertical,1,0.929403515519767,red,4,5,887.215136548046,360.378381699593,636.089159529932,404.658667004661,712.784863451954,839.621618300407,963.910840470068,795.341332995339,1051.12597701811,555.719714694933,887.215136548046,360.378381699593,636.089159529932,404.658667004661,548.874022981887,644.280285305067,0,6,6,4,5,5,horizontal,horizontal,horizontal,vertical,horizontal,vertical
1a,23,100192,4,12,204,19,F,NA,variable,heterogeneous,5,absent,1.83206510543823,1,horizontal,horizontal,1,0.764701757759883,green,1,NaN,721.200666434388,842.519411655264,NaN,NaN,721.200666434388,842.519411655264,1006.29933356561,749.885239334581,1006.29933356561,450.114760665419,721.200666434388,357.480588344736,545,600,0,0,4,3,0,5,6,NaN,horizontal,vertical,vertical,vertical,vertical,none
1a,23,100192,4,13,205,19,F,NA,variable,heterogeneous,5,present,1.73084783554077,1,vertical,vertical,1,0.905874692982641,green,1,4,919.715248510402,825.151636179026,570.807518193712,488.215357568785,919.715248510402,825.151636179026,1051.12597701811,555.719714694933,835.489140744817,347.4816424709,570.807518193712,488.215357568785,622.862115532956,783.431649086356,0,0,4,5,6,0,6,NaN,vertical,vertical,horizontal,horizontal,horizontal,none
1a,23,100192,4,14,206,19,F,NA,variable,heterogeneous,5,absent,1.19110989570618,1,vertical,vertical,1,0.670586467611379,red,5,NaN,546.900731331463,568.923317431687,NaN,NaN,692.232343256122,831.108485694346,986.495193912888,773.909581815937,1023.02802532055,476.373546837184,751.343706178981,349.685068220846,546.900731331463,568.923317431687,0,0,3,5,6,5,4,NaN,vertical,vertical,horizontal,horizontal,vertical,none
1a,23,100192,4,15,207,19,F,NA,variable,heterogeneous,6,absent,1.50984311103821,1,horizontal,horizontal,1,0.929403515519767,green,6,NaN,583.747735480111,735.129412379467,NaN,NaN,808.899371659138,854.844660889869,1025.15163617903,719.715248510402,1016.25226451989,464.870587620533,791.100628340862,345.155339110131,574.848363820974,480.284751489598,583.747735480111,735.129412379467,3,6,0,0,5,4,horizontal,vertical,horizontal,vertical,vertical,horizontal
1a,23,100192,4,16,208,19,F,NA,variable,heterogeneous,5,absent,NaN,0,horizontal,none,0,0.858817047908388,red,2,NaN,1031.10848569435,707.767656743878,NaN,NaN,768.923317431687,853.099268668537,1031.10848569435,707.767656743878,973.909581815937,413.504806087112,676.373546837184,376.971974679454,549.685068220846,648.656293821019,0,0,0,4,6,5,0,NaN,horizontal,horizontal,horizontal,horizontal,vertical,none
1a,23,100192,4,17,209,19,F,NA,variable,heterogeneous,6,absent,1.55782699584961,1,horizontal,horizontal,1,0.811759402834136,red,6,NaN,599.057257830286,756.993676208043,NaN,NaN,835.489140744817,852.518357529101,1036.43188291453,695.524681321058,1000.94274216971,443.006323791957,764.510859255183,347.4816424709,563.568117085469,504.475318678942,599.057257830286,756.993676208043,3,5,3,0,6,4,vertical,vertical,horizontal,horizontal,vertical,horizontal
1a,23,100192,4,18,210,19,F,NA,variable,heterogeneous,3,absent,0.738720178604126,1,horizontal,horizontal,1,0.870581459176951,red,2,NaN,977.137884467044,416.568350913644,NaN,NaN,870.287525733335,845.121732464271,977.137884467044,416.568350913644,552.574589799621,538.309916622085,0,0,0,0,0,0,0,4,6,NaN,NaN,NaN,vertical,horizontal,horizontal,none,none,none
1a,23,100192,4,19,211,19,F,NA,variable,heterogeneous,4,absent,1.31702399253845,1,vertical,vertical,1,0.976461160594019,green,2,NaN,1054.65053136242,613.345668841951,NaN,NaN,786.654331158049,854.650531362416,1054.65053136242,613.345668841951,813.345668841951,345.349468637584,545.349468637584,586.654331158049,0,0,0,0,6,4,3,3,NaN,NaN,vertical,vertical,vertical,horizontal,none,none
1a,23,100192,4,20,212,19,F,NA,variable,heterogeneous,5,absent,0.981622934341431,1,vertical,vertical,1,0.894110281714078,green,2,NaN,983.431649086356,777.137884467044,NaN,NaN,688.215357568785,829.192481806288,983.431649086356,777.137884467044,1025.15163617903,480.284751489598,755.719714694933,348.874022981887,547.481642470899,564.510859255183,0,0,5,4,3,5,0,NaN,vertical,vertical,horizontal,vertical,horizontal,none
1a,23,100192,4,21,213,19,F,NA,variable,heterogeneous,3,present,0.599998950958252,0,vertical,horizontal,1,0.729408523954194,red,3,1,721.200666434388,357.480588344736,629.371695378491,789.501930496736,629.371695378491,789.501930496736,1049.42763818712,653.017481158529,721.200666434388,357.480588344736,0,0,0,0,0,0,6,0,4,NaN,NaN,NaN,vertical,vertical,vertical,none,none,none
1a,23,100192,4,22,214,19,F,NA,variable,heterogeneous,5,absent,1.14164113998413,1,horizontal,horizontal,1,1.07057645074252,green,3,NaN,1034.72873763037,500.363562235235,NaN,NaN,668.665290897936,818.577661679039,967.295052392579,792.450942956807,1034.72873763037,500.363562235235,777.775285599347,345.970351986605,551.535633479765,542.637481142314,0,0,0,3,4,5,3,NaN,vertical,vertical,horizontal,vertical,horizontal,none
1a,23,100192,4,23,215,19,F,NA,variable,heterogeneous,6,present,1.45184087753296,1,vertical,vertical,1,0.75293734649132,green,1,3,672.5,820.836477965032,1055,600,672.5,820.836477965032,927.5,820.836477965032,1055,600,927.5,379.163522034968,672.5,379.163522034968,545,600,4,0,5,5,0,3,vertical,horizontal,horizontal,horizontal,horizontal,vertical
1a,23,100192,4,24,216,19,F,NA,variable,heterogeneous,4,absent,0.781958818435669,1,vertical,vertical,1,0.658822056342816,green,4,NaN,547.481642470899,564.510859255183,NaN,NaN,764.510859255183,852.518357529101,1052.5183575291,635.489140744817,835.489140744817,347.4816424709,547.481642470899,564.510859255183,0,0,0,0,5,0,0,4,NaN,NaN,vertical,horizontal,vertical,vertical,none,none
1a,23,100192,4,25,217,19,F,NA,variable,heterogeneous,5,present,0.771578073501587,1,horizontal,horizontal,1,1.07057645074252,red,4,1,729.712474266665,354.878267535729,712.784863451954,839.621618300407,712.784863451954,839.621618300407,1000.94274216971,756.993676208043,1011.40458100154,457.40580961496,729.712474266665,354.878267535729,545.155339110131,591.100628340862,0,0,3,5,6,4,0,NaN,vertical,horizontal,vertical,horizontal,vertical,none
1a,23,100192,4,26,218,19,F,NA,variable,heterogeneous,3,present,NaN,0,horizontal,none,0,0.717644112685631,green,1,2,755.719714694933,851.125977018113,1039.62161830041,512.784863451954,755.719714694933,851.125977018113,1039.62161830041,512.784863451954,604.658667004661,436.089159529932,0,0,0,0,0,0,4,5,3,NaN,NaN,NaN,horizontal,vertical,vertical,none,none,none
1a,23,100192,4,27,219,19,F,NA,variable,heterogeneous,5,absent,NaN,0,vertical,none,0,0.976461160594019,red,3,NaN,899.636437764765,365.271262369628,NaN,NaN,857.362518857686,848.464366520235,1054.0296480134,622.224714400653,899.636437764765,365.271262369628,607.549057043193,432.704947607421,581.422338320961,731.334709102064,0,0,0,6,4,5,0,NaN,vertical,horizontal,vertical,vertical,vertical,none
1a,23,100192,4,28,220,19,F,NA,variable,heterogeneous,6,absent,1.3709568977356,1,vertical,vertical,1,1.08234086201109,green,4,NaN,768.923317431687,346.900731331463,NaN,NaN,831.076682568313,853.099268668537,1034.72873763037,699.636437764765,1003.65205506206,446.537169096228,768.923317431687,346.900731331463,565.271262369628,500.363562235235,596.34794493794,753.462830903772,5,3,6,4,5,6,vertical,horizontal,vertical,vertical,horizontal,vertical
1a,23,100192,4,29,221,19,F,NA,variable,heterogeneous,4,absent,1.48719000816345,1,horizontal,horizontal,1,0.635293233805689,green,1,NaN,870.287525733335,845.121732464271,NaN,NaN,870.287525733335,845.121732464271,1045.12173246427,529.712474266665,729.712474266665,354.878267535729,554.878267535729,670.287525733335,0,0,0,0,4,6,0,5,NaN,NaN,horizontal,vertical,vertical,vertical,none,none
1a,23,100192,4,30,222,19,F,NA,variable,heterogeneous,6,absent,1.05734181404114,1,horizontal,horizontal,1,0.799994991565573,red,4,NaN,865.998856501143,353.688914296288,NaN,NaN,734.001143498857,846.311085703712,980.31222920257,780.31222920257,1046.31108570371,534.001143498857,865.998856501143,353.688914296288,619.68777079743,419.68777079743,553.688914296288,665.998856501143,3,0,6,4,3,5,horizontal,horizontal,horizontal,horizontal,horizontal,vertical
1a,23,100192,4,31,223,19,F,NA,variable,heterogeneous,6,present,1.11001300811768,1,horizontal,horizontal,1,0.764701757759883,green,3,5,1039.62161830041,512.784863451954,604.658667004661,436.089159529932,755.719714694933,851.125977018113,995.341332995339,763.910840470068,1039.62161830041,512.784863451954,844.280285305067,348.874022981887,604.658667004661,436.089159529932,560.378381699593,687.215136548046,5,3,4,3,0,0,horizontal,horizontal,horizontal,vertical,horizontal,horizontal
1a,23,100192,4,32,224,19,F,NA,variable,heterogeneous,4,present,1.01829409599304,1,horizontal,horizontal,1,0.894110281714078,red,4,2,591.116228706307,453.738008730483,1008.88377129369,746.261991269517,653.738008730483,808.883771293693,1008.88377129369,746.261991269517,946.261991269517,391.116228706307,591.116228706307,453.738008730483,0,0,0,0,5,5,6,4,NaN,NaN,vertical,horizontal,horizontal,horizontal,none,none
1a,23,100192,4,33,225,19,F,NA,variable,heterogeneous,3,present,0.871887922286987,1,horizontal,horizontal,1,1.05881203947396,green,2,3,1029.19248180629,711.784642431215,782.212099195248,345.621167183745,588.595418998464,742.594190385041,1029.19248180629,711.784642431215,782.212099195248,345.621167183745,0,0,0,0,0,0,5,4,0,NaN,NaN,NaN,horizontal,horizontal,horizontal,none,none,none
1a,23,100192,4,34,226,19,F,NA,variable,heterogeneous,6,present,1.26196193695068,1,vertical,vertical,1,0.823523814102699,red,2,6,1055,600,672.5,820.836477965032,927.5,820.836477965032,1055,600,927.5,379.163522034968,672.5,379.163522034968,545,600,672.5,820.836477965032,0,4,5,6,0,3,horizontal,vertical,horizontal,horizontal,horizontal,horizontal
1a,23,100192,4,35,227,19,F,NA,variable,heterogeneous,4,absent,1.29600596427917,1,horizontal,horizontal,1,1.02351880566827,green,4,NaN,607.549057043193,767.295052392579,NaN,NaN,967.295052392579,792.450942956807,992.450942956807,432.704947607421,632.704947607421,407.549057043193,607.549057043193,767.295052392579,0,0,0,0,3,6,5,4,NaN,NaN,horizontal,vertical,horizontal,horizontal,none,none
1a,23,100192,4,36,228,19,F,NA,variable,heterogeneous,5,present,1.29172706604004,1,vertical,vertical,1,0.682350878879942,red,3,1,923.626453162816,376.971974679454,831.076682568313,853.099268668537,831.076682568313,853.099268668537,1050.31493177915,648.656293821019,923.626453162816,376.971974679454,626.090418184063,413.504806087112,568.891514305654,707.767656743878,0,0,6,6,4,3,5,NaN,horizontal,vertical,vertical,vertical,horizontal,none
1a,23,100192,4,37,229,19,F,NA,variable,heterogeneous,3,absent,1.80951285362244,1,horizontal,horizontal,1,0.78823058029701,green,1,NaN,804.450363641507,854.96116226488,NaN,NaN,804.450363641507,854.96116226488,1018.57766167904,468.665290897936,576.971974679454,476.373546837184,0,0,0,0,0,0,4,5,6,NaN,NaN,NaN,horizontal,horizontal,horizontal,none,none,none
1a,23,100192,4,38,230,19,F,NA,variable,heterogeneous,6,absent,0.734261989593506,1,vertical,vertical,1,0.823523814102699,red,4,NaN,768.923317431687,346.900731331463,NaN,NaN,831.076682568313,853.099268668537,1034.72873763037,699.636437764765,1003.65205506206,446.537169096228,768.923317431687,346.900731331463,565.271262369628,500.363562235235,596.34794493794,753.462830903772,3,6,6,4,5,5,horizontal,horizontal,vertical,vertical,vertical,vertical
1a,23,100192,4,39,231,19,F,NA,variable,heterogeneous,6,absent,1.75441193580627,0,vertical,horizontal,1,0.670586467611379,red,3,NaN,1043.85771277057,525.445215295702,NaN,NaN,742.637481142314,848.464366520235,986.495193912888,773.909581815937,1043.85771277057,525.445215295702,857.362518857686,351.535633479765,613.504806087112,426.090418184063,556.142287229426,674.554784704298,0,3,4,6,5,3,vertical,horizontal,vertical,horizontal,vertical,horizontal
1a,23,100192,4,40,232,19,F,NA,variable,heterogeneous,3,absent,0.673557996749878,1,vertical,vertical,1,0.988225571862583,red,3,NaN,786.654331158049,345.349468637584,NaN,NaN,586.139005173917,738.882953928832,1027.20666366803,715.767577433584,786.654331158049,345.349468637584,0,0,0,0,0,0,3,0,4,NaN,NaN,NaN,vertical,vertical,vertical,none,none,none
1a,23,100192,4,41,233,19,F,NA,variable,heterogeneous,4,present,1.47450304031372,1,horizontal,horizontal,1,0.964696749325456,green,3,1,970.628304621509,410.498069503264,629.371695378491,789.501930496736,629.371695378491,789.501930496736,989.501930496736,770.628304621509,970.628304621509,410.498069503264,610.498069503264,429.371695378491,0,0,0,0,3,5,4,6,NaN,NaN,horizontal,horizontal,horizontal,horizontal,none,none
1a,23,100192,4,42,234,19,F,NA,variable,heterogeneous,6,absent,1.22793412208557,1,vertical,vertical,1,0.988225571862583,green,3,NaN,1054.65053136242,586.654331158049,NaN,NaN,684.232422566416,827.206663668034,938.882953928832,813.860994826083,1054.65053136242,586.654331158049,915.767577433584,372.793336331966,661.117046071168,386.139005173917,545.349468637584,613.345668841951,3,5,4,0,0,6,horizontal,horizontal,vertical,vertical,horizontal,vertical
1a,23,100192,4,43,235,19,F,NA,variable,heterogeneous,3,present,1.78608894348145,1,horizontal,horizontal,1,1.07057645074252,red,3,1,548.874022981887,644.280285305067,963.910840470068,795.341332995339,963.910840470068,795.341332995339,887.215136548046,360.378381699593,548.874022981887,644.280285305067,0,0,0,0,0,0,6,3,4,NaN,NaN,NaN,horizontal,horizontal,horizontal,none,none,none
1a,23,100192,4,44,236,19,F,NA,variable,heterogeneous,4,present,0.869917869567871,1,vertical,vertical,1,0.799994991565573,green,3,4,973.909581815937,413.504806087112,613.504806087112,426.090418184063,626.090418184063,786.495193912888,986.495193912888,773.909581815937,973.909581815937,413.504806087112,613.504806087112,426.090418184063,0,0,0,0,0,6,4,3,NaN,NaN,horizontal,horizontal,vertical,horizontal,none,none
1a,23,100192,4,45,237,19,F,NA,variable,heterogeneous,4,present,NaN,0,horizontal,none,0,0.823523814102699,green,4,3,547.481642470899,635.489140744817,764.510859255183,347.4816424709,835.489140744817,852.518357529101,1052.5183575291,564.510859255183,764.510859255183,347.4816424709,547.481642470899,635.489140744817,0,0,0,0,5,5,0,4,NaN,NaN,vertical,horizontal,vertical,horizontal,none,none
1a,23,100192,4,46,238,19,F,NA,variable,heterogeneous,3,present,0.885670900344849,1,vertical,vertical,1,1.05881203947396,red,2,1,931.334709102064,381.422338320961,923.626453162816,823.028025320546,923.626453162816,823.028025320546,931.334709102064,381.422338320961,545.03883773512,595.549636358493,0,0,0,0,0,0,5,4,3,NaN,NaN,NaN,vertical,vertical,horizontal,none,none,none
1a,23,100192,4,47,239,19,F,NA,variable,heterogeneous,5,present,NaN,0,horizontal,none,0,1.07057645074252,green,4,2,619.68777079743,419.68777079743,1051.86052685176,639.890788585259,839.890788585259,851.86052685176,1051.86052685176,639.890788585259,915.767577433584,372.793336331966,619.68777079743,419.68777079743,572.793336331966,715.767577433584,0,0,6,3,3,4,5,NaN,vertical,horizontal,vertical,horizontal,vertical,none
1a,23,100192,4,48,240,19,F,NA,variable,heterogeneous,3,absent,1.24288988113403,1,horizontal,horizontal,1,0.682350878879942,red,3,NaN,558.892763222174,683.019879386575,NaN,NaN,992.450942956807,767.295052392579,848.656293821019,349.685068220846,558.892763222174,683.019879386575,0,0,0,0,0,0,0,0,4,NaN,NaN,NaN,vertical,horizontal,horizontal,none,none,none
1a,23,100192,4,49,241,19,F,NA,variable,heterogeneous,4,absent,0.979355096817017,1,vertical,vertical,1,0.976461160594019,red,2,NaN,1038.06300875679,508.616172865948,NaN,NaN,891.383827134052,838.063008756786,1038.06300875679,508.616172865948,708.616172865948,361.936991243214,561.936991243214,691.383827134052,0,0,0,0,3,4,0,3,NaN,NaN,horizontal,vertical,vertical,horizontal,none,none
1a,23,100192,4,50,242,19,F,NA,variable,heterogeneous,6,present,1.99491214752197,1,horizontal,horizontal,1,0.78823058029701,red,1,6,746.982518841471,849.42763818712,557.480588344736,678.799333565612,746.982518841471,849.42763818712,989.501930496736,770.628304621509,1042.51941165526,521.200666434388,853.017481158529,350.57236181288,610.498069503264,429.371695378491,557.480588344736,678.799333565612,4,3,0,6,3,0,horizontal,vertical,horizontal,horizontal,vertical,horizontal
1a,23,100192,4,51,243,19,F,NA,variable,heterogeneous,6,present,1.5230278968811,1,vertical,vertical,1,0.6,green,2,4,1016.25226451989,735.129412379467,808.899371659138,345.155339110131,791.100628340862,854.844660889869,1016.25226451989,735.129412379467,1025.15163617903,480.284751489598,808.899371659138,345.155339110131,583.747735480111,464.870587620533,574.848363820974,719.715248510402,6,4,5,3,5,3,horizontal,vertical,horizontal,horizontal,horizontal,horizontal
1a,23,100192,4,52,244,19,F,NA,variable,heterogeneous,3,present,0.897199869155884,1,vertical,vertical,1,0.976461160594019,green,2,1,804.450363641507,345.03883773512,1018.57766167904,731.334709102064,1018.57766167904,731.334709102064,804.450363641507,345.03883773512,576.971974679454,723.626453162816,0,0,0,0,0,0,5,4,0,NaN,NaN,NaN,vertical,vertical,horizontal,none,none,none
1a,23,100192,4,53,245,19,F,NA,variable,heterogeneous,3,absent,0.784576892852783,1,horizontal,horizontal,1,0.670586467611379,green,2,NaN,1008.88377129369,453.738008730483,NaN,NaN,822.224714400653,854.029648013395,1008.88377129369,453.738008730483,568.891514305654,492.232343256122,0,0,0,0,0,0,6,4,3,NaN,NaN,NaN,vertical,horizontal,vertical,none,none,none
