experiment,subject,uniqueID,block,trial,trial_cumulative,age,gender,color_cond_blocking,color_history,shape_type,set_size,distractor,rt,acc,target_orient,response_key,response_made,iti,target_color,target_item,distractor_item,target_X,target_Y,distractor_X,distractor_Y,item1_X,item1_Y,item2_X,item2_Y,item3_X,item3_Y,item4_X,item4_Y,item5_X,item5_Y,item6_X,item6_Y,item1_shape,item2_shape,item3_shape,item4_shape,item5_shape,item6_shape,item1_line,item2_line,item3_line,item4_line,item5_line,item6_line
1a,24,100193,1,1,1,18,F,NA,variable,heterogeneous,4,present,NaN,0,horizontal,none,0,0.717646351195218,red,1,4,911.784642431215,829.192481806288,570.807518193712,711.784642431215,911.784642431215,829.192481806288,1029.19248180629,488.215357568785,688.215357568785,370.807518193712,570.807518193712,711.784642431215,0,0,0,0,4,6,6,5,NaN,NaN,horizontal,horizontal,vertical,horizontal,none,none
1a,24,100193,1,2,2,18,F,NA,variable,heterogeneous,4,present,1.09693193435669,0,horizontal,vertical,1,0.894115877988046,red,3,2,895.524681321058,363.568117085469,1036.43188291453,695.524681321058,704.475318678942,836.431882914531,1036.43188291453,695.524681321058,895.524681321058,363.568117085469,563.568117085469,504.475318678942,0,0,0,0,3,6,4,0,NaN,NaN,vertical,horizontal,horizontal,vertical,none,none
1a,24,100193,1,3,3,18,F,NA,variable,heterogeneous,3,absent,1.48492908477783,1,horizontal,horizontal,1,0.905880513107568,green,2,NaN,848.656293821019,349.685068220846,NaN,NaN,992.450942956807,767.295052392579,848.656293821019,349.685068220846,558.892763222174,683.019879386575,0,0,0,0,0,0,0,4,5,NaN,NaN,NaN,vertical,horizontal,horizontal,none,none,none
1a,24,100193,1,4,4,18,F,NA,variable,heterogeneous,4,absent,1.485671043396,1,horizontal,horizontal,1,0.952939053585655,red,4,NaN,545.621167183745,617.787900804752,NaN,NaN,817.787900804752,854.378832816255,1054.37883281626,582.212099195248,782.212099195248,345.621167183745,545.621167183745,617.787900804752,0,0,0,0,0,0,5,4,NaN,NaN,vertical,vertical,vertical,horizontal,none,none
1a,24,100193,1,5,5,18,F,NA,variable,heterogeneous,3,present,1.46872591972351,1,horizontal,horizontal,1,0.85882197262948,red,3,2,557.480588344736,521.200666434388,989.501930496736,429.371695378491,853.017481158529,849.42763818712,989.501930496736,429.371695378491,557.480588344736,521.200666434388,0,0,0,0,0,0,6,6,4,NaN,NaN,NaN,horizontal,horizontal,horizontal,none,none,none
1a,24,100193,1,6,6,18,F,NA,variable,heterogeneous,4,present,1.57615900039673,0,vertical,horizontal,1,1.09411467501992,red,1,2,963.910840470068,795.341332995339,995.341332995339,436.089159529932,963.910840470068,795.341332995339,995.341332995339,436.089159529932,636.089159529932,404.658667004661,604.658667004661,763.910840470068,0,0,0,0,4,5,3,0,NaN,NaN,vertical,horizontal,vertical,vertical,none,none
1a,24,100193,1,7,7,18,F,NA,variable,heterogeneous,3,present,1.27215790748596,1,vertical,vertical,1,0.811763432151393,red,2,3,1031.10848569435,707.767656743878,777.775285599347,345.970351986605,591.116228706307,746.261991269517,1031.10848569435,707.767656743878,777.775285599347,345.970351986605,0,0,0,0,0,0,6,4,5,NaN,NaN,NaN,horizontal,vertical,vertical,none,none,none
1a,24,100193,1,8,8,18,F,NA,variable,heterogeneous,3,absent,1.2350001335144,1,horizontal,horizontal,1,1.05882076966135,red,1,NaN,983.431649086356,777.137884467044,NaN,NaN,983.431649086356,777.137884467044,861.690083377915,352.574589799621,554.878267535729,670.287525733335,0,0,0,0,0,0,4,0,6,NaN,NaN,NaN,horizontal,vertical,horizontal,none,none,none
1a,24,100193,1,9,9,18,F,NA,variable,heterogeneous,4,absent,1.1006920337677,1,vertical,vertical,1,1.04705613454183,green,3,NaN,692.232343256122,368.891514305654,NaN,NaN,907.767656743878,831.108485694346,1031.10848569435,492.232343256122,692.232343256122,368.891514305654,568.891514305654,707.767656743878,0,0,0,0,5,6,4,3,NaN,NaN,horizontal,horizontal,vertical,vertical,none,none
1a,24,100193,1,10,10,18,F,NA,variable,heterogeneous,3,absent,1.87607192993164,1,vertical,vertical,1,1.04705613454183,red,2,NaN,983.431649086356,422.862115532956,NaN,NaN,861.690083377915,847.425410200379,983.431649086356,422.862115532956,554.878267535729,529.712474266665,0,0,0,0,0,0,3,4,6,NaN,NaN,NaN,vertical,vertical,horizontal,none,none,none
1a,24,100193,1,11,11,18,F,NA,variable,heterogeneous,3,present,1.72734689712524,1,vertical,vertical,1,1.08235003990039,green,2,1,1054.65053136242,586.654331158049,684.232422566416,827.206663668034,684.232422566416,827.206663668034,1054.65053136242,586.654331158049,661.117046071168,386.139005173917,0,0,0,0,0,0,3,4,0,NaN,NaN,NaN,horizontal,vertical,horizontal,none,none,none
1a,24,100193,1,12,12,18,F,NA,variable,heterogeneous,5,absent,NaN,0,horizontal,none,0,0.670587810717131,green,1,NaN,946.261991269517,808.883771293693,NaN,NaN,946.261991269517,808.883771293693,1043.85771277057,525.445215295702,804.450363641507,345.03883773512,558.892763222174,516.980120613425,646.537169096228,803.65205506206,0,0,4,0,5,0,6,NaN,horizontal,vertical,horizontal,vertical,horizontal,none
1a,24,100193,1,13,13,18,F,NA,variable,heterogeneous,6,present,1.40685510635376,1,vertical,vertical,1,0.964703688705177,red,6,1,653.738008730483,808.883771293693,907.767656743878,831.108485694346,907.767656743878,831.108485694346,1054.0296480134,622.224714400653,946.261991269517,391.116228706307,692.232343256122,368.891514305654,545.970351986605,577.775285599347,653.738008730483,808.883771293693,0,3,0,3,6,4,vertical,vertical,vertical,horizontal,vertical,vertical
1a,24,100193,1,14,14,18,F,NA,variable,heterogeneous,6,present,1.35794687271118,1,horizontal,horizontal,1,0.941174418466133,green,6,3,545.349468637584,613.345668841951,1054.65053136242,586.654331158049,684.232422566416,827.206663668034,938.882953928832,813.860994826083,1054.65053136242,586.654331158049,915.767577433584,372.793336331966,661.117046071168,386.139005173917,545.349468637584,613.345668841951,6,3,6,5,0,4,horizontal,vertical,horizontal,horizontal,vertical,horizontal
1a,24,100193,1,15,15,18,F,NA,variable,heterogeneous,5,absent,1.51532220840454,0,horizontal,vertical,1,0.894115877988046,red,4,NaN,751.343706178981,349.685068220846,NaN,NaN,692.232343256122,831.108485694346,986.495193912888,773.909581815937,1023.02802532055,476.373546837184,751.343706178981,349.685068220846,546.900731331463,568.923317431687,0,0,3,3,5,4,0,NaN,horizontal,horizontal,horizontal,horizontal,horizontal,none
1a,24,100193,1,16,16,18,F,NA,variable,heterogeneous,4,absent,1.01789402961731,1,vertical,vertical,1,0.611764635119522,green,3,NaN,853.017481158529,350.57236181288,NaN,NaN,746.982518841471,849.42763818712,1049.42763818712,653.017481158529,853.017481158529,350.57236181288,550.57236181288,546.982518841471,0,0,0,0,6,5,4,0,NaN,NaN,horizontal,horizontal,vertical,vertical,none,none
1a,24,100193,1,17,17,18,F,NA,variable,heterogeneous,5,absent,1.26639199256897,1,horizontal,horizontal,1,0.999997594063742,green,3,NaN,923.626453162816,376.971974679454,NaN,NaN,831.076682568313,853.099268668537,1050.31493177915,648.656293821019,923.626453162816,376.971974679454,626.090418184063,413.504806087112,568.891514305654,707.767656743878,0,0,3,0,4,5,5,NaN,vertical,vertical,horizontal,vertical,vertical,none
1a,24,100193,1,18,18,18,F,NA,variable,heterogeneous,4,present,1.56761407852173,0,vertical,horizontal,1,0.98823295894422,green,2,3,1050.31493177915,648.656293821019,848.656293821019,349.685068220846,751.343706178981,850.314931779154,1050.31493177915,648.656293821019,848.656293821019,349.685068220846,549.685068220846,551.343706178981,0,0,0,0,6,4,6,5,NaN,NaN,horizontal,vertical,vertical,horizontal,none,none
1a,24,100193,1,19,19,18,F,NA,variable,heterogeneous,5,absent,NaN,0,vertical,none,0,0.952939053585655,red,3,NaN,813.345668841951,345.349468637584,NaN,NaN,938.882953928832,813.860994826083,1046.31108570371,534.001143498857,813.345668841951,345.349468637584,561.936991243214,508.616172865948,639.523300282292,798.172220171528,0,0,5,6,4,0,3,NaN,vertical,horizontal,vertical,horizontal,vertical,none
1a,24,100193,1,20,20,18,F,NA,variable,heterogeneous,6,absent,1.53528499603271,1,horizontal,horizontal,1,0.835292702390437,green,3,NaN,956.993676208043,399.057257830286,NaN,NaN,895.524681321058,836.431882914531,1052.5183575291,635.489140744817,956.993676208043,399.057257830286,704.475318678942,363.568117085469,547.481642470899,564.510859255183,643.006323791957,800.942742169714,6,3,4,6,3,5,vertical,horizontal,horizontal,horizontal,vertical,horizontal
1a,24,100193,1,21,21,18,F,NA,variable,heterogeneous,5,present,1.06562209129333,1,horizontal,horizontal,1,0.976468323824699,green,1,4,870.287525733335,845.121732464271,599.057257830286,443.006323791957,870.287525733335,845.121732464271,1054.84466088987,608.899371659138,887.215136548046,360.378381699593,599.057257830286,443.006323791957,588.595418998464,742.594190385041,0,0,4,6,5,3,0,NaN,horizontal,vertical,vertical,vertical,horizontal,none
1a,24,100193,1,22,22,18,F,NA,variable,heterogeneous,6,present,1.42097115516663,0,horizontal,vertical,1,0.894115877988046,red,4,5,692.232343256122,368.891514305654,545.970351986605,577.775285599347,907.767656743878,831.108485694346,1054.0296480134,622.224714400653,946.261991269517,391.116228706307,692.232343256122,368.891514305654,545.970351986605,577.775285599347,653.738008730483,808.883771293693,6,6,0,4,5,0,vertical,vertical,horizontal,horizontal,vertical,vertical
1a,24,100193,1,23,23,18,F,NA,variable,heterogeneous,4,absent,1.5349109172821,1,vertical,vertical,1,0.670587810717131,red,4,NaN,548.13947314824,639.890788585259,NaN,NaN,839.890788585259,851.86052685176,1051.86052685176,560.109211414741,760.109211414741,348.13947314824,548.13947314824,639.890788585259,0,0,0,0,0,6,3,4,NaN,NaN,vertical,horizontal,horizontal,vertical,none,none
1a,24,100193,1,24,24,18,F,NA,variable,heterogeneous,3,present,1.64738392829895,1,horizontal,horizontal,1,0.682352445836653,red,1,2,861.690083377915,847.425410200379,983.431649086356,422.862115532956,861.690083377915,847.425410200379,983.431649086356,422.862115532956,554.878267535729,529.712474266665,0,0,0,0,0,0,4,5,5,NaN,NaN,NaN,horizontal,horizontal,horizontal,none,none,none
1a,24,100193,1,25,25,18,F,NA,variable,heterogeneous,4,absent,1.57083487510681,1,horizontal,horizontal,1,0.705881716075696,green,3,NaN,813.345668841951,345.349468637584,NaN,NaN,786.654331158049,854.650531362416,1054.65053136242,613.345668841951,813.345668841951,345.349468637584,545.349468637584,586.654331158049,0,0,0,0,3,3,4,0,NaN,NaN,vertical,horizontal,horizontal,vertical,none,none
1a,24,100193,1,26,26,18,F,NA,variable,heterogeneous,6,present,1.43808794021606,0,vertical,horizontal,1,0.98823295894422,green,6,2,545,600,927.5,820.836477965032,672.5,820.836477965032,927.5,820.836477965032,1055,600,927.5,379.163522034968,672.5,379.163522034968,545,600,5,3,6,5,6,4,horizontal,horizontal,horizontal,vertical,horizontal,vertical
1a,24,100193,1,27,27,18,F,NA,variable,heterogeneous,6,absent,1.71905994415283,1,vertical,vertical,1,0.799998797031871,red,5,NaN,560.378381699593,512.784863451954,NaN,NaN,844.280285305067,851.125977018113,1039.62161830041,687.215136548046,995.341332995339,436.089159529932,755.719714694933,348.874022981887,560.378381699593,512.784863451954,604.658667004661,763.910840470068,6,5,0,3,4,6,horizontal,vertical,vertical,horizontal,vertical,vertical
1a,24,100193,1,28,28,18,F,NA,variable,heterogeneous,3,absent,1.2959041595459,0,vertical,horizontal,1,0.917645148227089,green,3,NaN,545.970351986605,577.775285599347,NaN,NaN,907.767656743878,831.108485694346,946.261991269517,391.116228706307,545.970351986605,577.775285599347,0,0,0,0,0,0,6,5,4,NaN,NaN,NaN,vertical,vertical,vertical,none,none,none
1a,24,100193,1,29,29,18,F,NA,variable,heterogeneous,4,present,1.83488512039185,1,vertical,vertical,1,1.03529149942231,green,2,3,1042.51941165526,678.799333565612,878.799333565612,357.480588344736,721.200666434388,842.519411655264,1042.51941165526,678.799333565612,878.799333565612,357.480588344736,557.480588344736,521.200666434388,0,0,0,0,3,4,5,3,NaN,NaN,vertical,vertical,vertical,vertical,none,none
1a,24,100193,1,30,30,18,F,NA,variable,heterogeneous,6,present,1.97658705711365,1,vertical,vertical,1,0.635293905358565,green,4,5,734.001143498857,353.688914296288,553.688914296288,534.001143498857,865.998856501143,846.311085703712,1046.31108570371,665.998856501143,980.31222920257,419.68777079743,734.001143498857,353.688914296288,553.688914296288,534.001143498857,619.68777079743,780.31222920257,0,5,6,4,6,3,horizontal,vertical,vertical,vertical,vertical,horizontal
1a,24,100193,1,31,31,18,F,NA,variable,heterogeneous,6,absent,1.28900098800659,0,vertical,horizontal,1,0.635293905358565,red,2,NaN,1006.29933356561,749.885239334581,NaN,NaN,773.345241866748,853.60308331891,1006.29933356561,749.885239334581,1032.95409169886,496.282156015671,826.654758133252,346.39691668109,593.700666434388,450.114760665419,567.045908301137,703.717843984329,5,4,6,3,6,5,vertical,vertical,horizontal,horizontal,vertical,horizontal
1a,24,100193,1,32,32,18,F,NA,variable,heterogeneous,5,absent,1.38175702095032,1,vertical,vertical,1,0.741175621434262,green,2,NaN,1036.43188291453,695.524681321058,NaN,NaN,782.212099195248,854.378832816255,1036.43188291453,695.524681321058,963.910840470068,404.658667004661,664.870587620533,383.747735480111,552.574589799621,661.690083377915,0,0,5,4,5,0,6,NaN,horizontal,vertical,horizontal,vertical,horizontal,none
1a,24,100193,1,33,33,18,F,NA,variable,heterogeneous,5,present,1.45421600341797,0,horizontal,vertical,1,1.03529149942231,red,4,1,692.232343256122,368.891514305654,751.343706178981,850.314931779154,751.343706178981,850.314931779154,1023.02802532055,723.626453162816,986.495193912888,426.090418184063,692.232343256122,368.891514305654,546.900731331463,631.076682568313,0,0,0,5,6,4,3,NaN,horizontal,vertical,horizontal,horizontal,vertical,none
1a,24,100193,1,34,34,18,F,NA,variable,heterogeneous,5,absent,NaN,0,vertical,none,0,0.788234161912349,green,3,NaN,870.287525733335,354.878267535729,NaN,NaN,887.215136548046,839.621618300407,1054.84466088987,591.100628340862,870.287525733335,354.878267535729,588.595418998464,457.40580961496,599.057257830286,756.993676208043,0,0,6,0,4,5,5,NaN,vertical,horizontal,vertical,vertical,horizontal,none
1a,24,100193,1,35,35,18,F,NA,variable,heterogeneous,3,absent,1.06898593902588,1,horizontal,horizontal,1,1.07058540478087,red,3,NaN,567.045908301137,703.717843984329,NaN,NaN,1006.29933356561,749.885239334581,826.654758133252,346.39691668109,567.045908301137,703.717843984329,0,0,0,0,0,0,0,6,4,NaN,NaN,NaN,horizontal,horizontal,horizontal,none,none,none
1a,24,100193,1,36,36,18,F,NA,variable,heterogeneous,3,present,1.23704791069031,1,vertical,vertical,1,0.72941098631474,green,2,1,1054.84466088987,591.100628340862,680.284751489598,825.151636179026,680.284751489598,825.151636179026,1054.84466088987,591.100628340862,664.870587620533,383.747735480111,0,0,0,0,0,0,3,4,6,NaN,NaN,NaN,horizontal,vertical,horizontal,none,none,none
1a,24,100193,1,37,37,18,F,NA,variable,heterogeneous,3,present,1.39908504486084,0,horizontal,vertical,1,0.847057337509958,green,3,2,591.116228706307,453.738008730483,1031.10848569435,492.232343256122,777.775285599347,854.029648013395,1031.10848569435,492.232343256122,591.116228706307,453.738008730483,0,0,0,0,0,0,3,0,4,NaN,NaN,NaN,vertical,vertical,horizontal,none,none,none
1a,24,100193,1,38,38,18,F,NA,variable,heterogeneous,3,absent,1.13073492050171,1,horizontal,horizontal,1,0.776469526792827,green,3,NaN,545.03883773512,604.450363641507,NaN,NaN,931.334709102064,818.577661679039,923.626453162816,376.971974679454,545.03883773512,604.450363641507,0,0,0,0,0,0,6,3,4,NaN,NaN,NaN,horizontal,vertical,horizontal,none,none,none
1a,24,100193,1,39,39,18,F,NA,variable,heterogeneous,4,absent,1.85657095909119,1,horizontal,horizontal,1,0.741175621434262,green,2,NaN,1051.86052685176,639.890788585259,NaN,NaN,760.109211414741,851.86052685176,1051.86052685176,639.890788585259,839.890788585259,348.13947314824,548.13947314824,560.109211414741,0,0,0,0,5,4,5,6,NaN,NaN,vertical,horizontal,vertical,horizontal,none,none
1a,24,100193,1,40,40,18,F,NA,variable,heterogeneous,5,absent,1.9912121295929,0,horizontal,vertical,1,0.694117080956175,red,1,NaN,870.287525733335,845.121732464271,NaN,NaN,870.287525733335,845.121732464271,1054.84466088987,608.899371659138,887.215136548046,360.378381699593,599.057257830286,443.006323791957,588.595418998464,742.594190385041,0,0,4,5,6,6,0,NaN,horizontal,horizontal,horizontal,horizontal,vertical,none
1a,24,100193,1,41,41,18,F,NA,variable,heterogeneous,3,absent,1.44809603691101,1,vertical,vertical,1,0.623529270239044,red,1,NaN,704.475318678942,836.431882914531,NaN,NaN,704.475318678942,836.431882914531,1052.5183575291,564.510859255183,643.006323791957,399.057257830286,0,0,0,0,0,0,4,6,6,NaN,NaN,NaN,vertical,horizontal,vertical,none,none,none
1a,24,100193,1,42,42,18,F,NA,variable,heterogeneous,4,absent,NaN,0,vertical,none,0,0.611764635119522,red,4,NaN,550.57236181288,546.982518841471,NaN,NaN,746.982518841471,849.42763818712,1049.42763818712,653.017481158529,853.017481158529,350.57236181288,550.57236181288,546.982518841471,0,0,0,0,0,3,6,4,NaN,NaN,vertical,horizontal,vertical,vertical,none,none
1a,24,100193,1,43,43,18,F,NA,variable,heterogeneous,5,present,1.97615480422974,0,horizontal,vertical,1,0.717646351195218,red,5,2,553.688914296288,534.001143498857,960.476699717708,798.172220171528,661.117046071168,813.860994826083,960.476699717708,798.172220171528,1038.06300875679,508.616172865948,786.654331158049,345.349468637584,553.688914296288,534.001143498857,0,0,6,3,3,5,4,NaN,horizontal,horizontal,vertical,horizontal,horizontal,none
1a,24,100193,1,44,44,18,F,NA,variable,heterogeneous,6,present,NaN,0,horizontal,none,0,0.929409783346611,green,5,3,626.090418184063,413.504806087112,1048.46436652023,542.637481142314,725.445215295702,843.857712770574,973.909581815937,786.495193912888,1048.46436652023,542.637481142314,874.554784704298,356.142287229426,626.090418184063,413.504806087112,551.535633479765,657.362518857686,3,5,0,0,4,3,horizontal,vertical,horizontal,vertical,horizontal,horizontal
1a,24,100193,1,45,45,18,F,NA,variable,heterogeneous,5,present,1.28819799423218,1,vertical,vertical,1,0.670587810717131,green,1,4,835.489140744817,852.518357529101,622.862115532956,416.568350913644,835.489140744817,852.518357529101,1051.12597701811,644.280285305067,919.715248510402,374.848363820974,622.862115532956,416.568350913644,570.807518193712,711.784642431215,0,0,4,0,5,6,6,NaN,vertical,horizontal,horizontal,vertical,vertical,none
1a,24,100193,1,46,46,18,F,NA,variable,heterogeneous,6,absent,1.80202412605286,0,horizontal,vertical,1,0.799998797031871,red,6,NaN,548.874022981887,644.280285305067,NaN,NaN,712.784863451954,839.621618300407,963.910840470068,795.341332995339,1051.12597701811,555.719714694933,887.215136548046,360.378381699593,636.089159529932,404.658667004661,548.874022981887,644.280285305067,5,3,5,0,0,4,vertical,horizontal,horizontal,vertical,horizontal,horizontal
1a,24,100193,1,47,47,18,F,NA,variable,heterogeneous,3,present,1.06038093566895,1,vertical,vertical,1,0.705881716075696,red,2,3,1054.37883281626,617.787900804752,688.215357568785,370.807518193712,657.405809614959,811.404581001536,1054.37883281626,617.787900804752,688.215357568785,370.807518193712,0,0,0,0,0,0,6,4,0,NaN,NaN,NaN,horizontal,vertical,horizontal,none,none,none
1a,24,100193,1,48,48,18,F,NA,variable,heterogeneous,4,present,1.74993205070496,1,horizontal,horizontal,1,0.799998797031871,green,3,4,874.554784704298,356.142287229426,556.142287229426,525.445215295702,725.445215295702,843.857712770574,1043.85771277057,674.554784704298,874.554784704298,356.142287229426,556.142287229426,525.445215295702,0,0,0,0,5,6,4,5,NaN,NaN,horizontal,horizontal,horizontal,vertical,none,none
1a,24,100193,1,49,49,18,F,NA,variable,heterogeneous,6,absent,1.87753796577454,0,vertical,horizontal,1,0.823528067270915,green,1,NaN,923.626453162816,823.028025320546,NaN,NaN,923.626453162816,823.028025320546,1054.96116226488,604.450363641507,931.334709102064,381.422338320961,676.373546837184,376.971974679454,545.03883773512,595.549636358493,668.665290897936,818.577661679039,4,5,3,5,6,6,vertical,vertical,vertical,vertical,vertical,horizontal
1a,24,100193,1,50,50,18,F,NA,variable,heterogeneous,4,present,1.74576306343079,1,vertical,vertical,1,0.72941098631474,red,3,4,786.654331158049,345.349468637584,545.349468637584,613.345668841951,813.345668841951,854.650531362416,1054.65053136242,586.654331158049,786.654331158049,345.349468637584,545.349468637584,613.345668841951,0,0,0,0,6,3,4,5,NaN,NaN,horizontal,horizontal,vertical,horizontal,none,none
1a,24,100193,1,51,51,18,F,NA,variable,heterogeneous,6,absent,1.16424083709717,0,horizontal,vertical,1,0.764704891673306,green,6,NaN,572.793336331966,715.767577433584,NaN,NaN,786.654331158049,854.650531362416,1013.86099482608,738.882953928832,1027.20666366803,484.232422566416,813.345668841951,345.349468637584,586.139005173917,461.117046071168,572.793336331966,715.767577433584,5,6,5,6,3,4,horizontal,horizontal,horizontal,vertical,horizontal,horizontal
1a,24,100193,1,52,52,18,F,NA,variable,heterogeneous,5,absent,1.01883602142334,1,vertical,vertical,1,0.952939053585655,red,5,NaN,616.568350913644,777.137884467044,NaN,NaN,911.784642431215,829.192481806288,1052.5183575291,564.510859255183,844.280285305067,348.874022981887,574.848363820974,480.284751489598,616.568350913644,777.137884467044,0,0,3,6,3,0,4,NaN,vertical,horizontal,horizontal,vertical,vertical,none
1a,24,100193,1,53,53,18,F,NA,variable,heterogeneous,6,absent,0.854363203048706,1,horizontal,horizontal,1,0.741175621434262,red,6,NaN,657.405809614959,811.404581001536,NaN,NaN,911.784642431215,829.192481806288,1054.37883281626,617.787900804752,942.594190385041,388.595418998464,688.215357568785,370.807518193712,545.621167183745,582.212099195248,657.405809614959,811.404581001536,6,6,5,3,5,4,vertical,vertical,horizontal,horizontal,vertical,horizontal
1a,24,100193,1,54,54,18,F,NA,variable,heterogeneous,4,absent,0.775240898132324,1,horizontal,horizontal,1,1.01176222918326,red,4,NaN,613.504806087112,773.909581815937,NaN,NaN,973.909581815937,786.495193912888,986.495193912888,426.090418184063,626.090418184063,413.504806087112,613.504806087112,773.909581815937,0,0,0,0,3,0,6,4,NaN,NaN,vertical,horizontal,vertical,horizontal,none,none
1a,24,100193,1,55,55,18,F,NA,variable,heterogeneous,6,absent,1.91481399536133,0,vertical,horizontal,1,0.776469526792827,green,2,NaN,986.495193912888,773.909581815937,NaN,NaN,742.637481142314,848.464366520235,986.495193912888,773.909581815937,1043.85771277057,525.445215295702,857.362518857686,351.535633479765,613.504806087112,426.090418184063,556.142287229426,674.554784704298,5,4,5,0,3,0,horizontal,vertical,horizontal,vertical,horizontal,vertical
1a,24,100193,1,56,56,18,F,NA,variable,heterogeneous,5,present,1.02715086936951,1,vertical,vertical,1,0.682352445836653,green,1,5,907.767656743878,831.108485694346,613.504806087112,773.909581815937,907.767656743878,831.108485694346,1053.09926866854,568.923317431687,848.656293821019,349.685068220846,576.971974679454,476.373546837184,613.504806087112,773.909581815937,0,0,4,3,0,6,3,NaN,vertical,vertical,vertical,horizontal,horizontal,none
1a,24,100193,1,57,57,18,F,NA,variable,heterogeneous,5,present,1.71006298065186,1,vertical,vertical,1,0.905880513107568,red,2,1,1042.51941165526,521.200666434388,949.885239334581,806.299333565612,949.885239334581,806.299333565612,1042.51941165526,521.200666434388,800,345,557.480588344736,521.200666434388,650.114760665419,806.299333565612,0,0,3,4,0,5,6,NaN,horizontal,vertical,vertical,horizontal,vertical,none
1a,24,100193,1,58,58,18,F,NA,variable,heterogeneous,4,present,1.78423690795898,1,horizontal,horizontal,1,0.799998797031871,green,4,1,565.271262369628,500.363562235235,700.363562235235,834.728737630372,700.363562235235,834.728737630372,1034.72873763037,699.636437764765,899.636437764765,365.271262369628,565.271262369628,500.363562235235,0,0,0,0,0,3,0,4,NaN,NaN,horizontal,vertical,vertical,horizontal,none,none
1a,24,100193,1,59,59,18,F,NA,variable,heterogeneous,6,present,1.7670419216156,1,horizontal,horizontal,1,0.741175621434262,red,3,1,935.129412379467,383.747735480111,919.715248510402,825.151636179026,919.715248510402,825.151636179026,1054.84466088987,608.899371659138,935.129412379467,383.747735480111,680.284751489598,374.848363820974,545.155339110131,591.100628340862,664.870587620533,816.252264519889,6,6,4,3,5,3,horizontal,horizontal,horizontal,vertical,vertical,vertical
1a,24,100193,1,60,60,18,F,NA,variable,heterogeneous,5,present,1.76359391212463,1,horizontal,horizontal,1,0.658823175597609,green,1,5,684.232422566416,827.206663668034,548.13947314824,560.109211414741,684.232422566416,827.206663668034,980.31222920257,780.31222920257,1027.20666366803,484.232422566416,760.109211414741,348.13947314824,548.13947314824,560.109211414741,0,0,4,0,6,3,5,NaN,horizontal,vertical,vertical,vertical,horizontal,none
1a,24,100193,1,61,61,18,F,NA,variable,heterogeneous,6,present,1.81808805465698,1,vertical,vertical,1,0.952939053585655,red,2,3,1011.40458100154,742.594190385041,1029.19248180629,488.215357568785,782.212099195248,854.378832816255,1011.40458100154,742.594190385041,1029.19248180629,488.215357568785,817.787900804752,345.621167183745,588.595418998464,457.40580961496,570.807518193712,711.784642431215,3,4,5,3,0,6,horizontal,vertical,vertical,vertical,horizontal,horizontal
1a,24,100193,1,62,62,18,F,NA,variable,heterogeneous,5,present,NaN,0,vertical,none,0,0.929409783346611,red,1,3,773.345241866748,853.60308331891,970.628304621509,410.498069503264,773.345241866748,853.60308331891,1032.95409169886,703.717843984329,970.628304621509,410.498069503264,672.5,379.163522034968,550.57236181288,653.017481158529,0,0,4,3,5,6,0,NaN,vertical,vertical,horizontal,horizontal,vertical,none
1a,24,100193,1,63,63,18,F,NA,variable,heterogeneous,3,present,1.81768012046814,1,horizontal,horizontal,1,0.788234161912349,green,2,1,857.362518857686,351.535633479765,986.495193912888,773.909581815937,986.495193912888,773.909581815937,857.362518857686,351.535633479765,556.142287229426,674.554784704298,0,0,0,0,0,0,5,4,5,NaN,NaN,NaN,horizontal,horizontal,vertical,none,none,none
1a,24,100193,1,64,64,18,F,NA,variable,heterogeneous,3,absent,1.41176390647888,1,vertical,vertical,1,0.694117080956175,green,1,NaN,1003.65205506206,753.462830903772,NaN,NaN,1003.65205506206,753.462830903772,831.076682568313,346.900731331463,565.271262369628,699.636437764765,0,0,0,0,0,0,4,3,3,NaN,NaN,NaN,vertical,vertical,horizontal,none,none,none
1a,24,100193,2,1,65,18,F,NA,variable,heterogeneous,6,absent,1.90407299995422,1,horizontal,horizontal,1,1.04705613454183,green,1,NaN,716.980120613425,841.107236777826,NaN,NaN,716.980120613425,841.107236777826,967.295052392579,792.450942956807,1050.31493177915,551.343706178981,883.019879386575,358.892763222174,632.704947607421,407.549057043193,549.685068220846,648.656293821019,4,6,3,3,5,0,horizontal,horizontal,horizontal,vertical,vertical,vertical
1a,24,100193,2,2,66,18,F,NA,variable,heterogeneous,6,absent,NaN,0,vertical,none,0,0.611764635119522,green,1,NaN,911.784642431215,829.192481806288,NaN,NaN,911.784642431215,829.192481806288,1054.37883281626,617.787900804752,942.594190385041,388.595418998464,688.215357568785,370.807518193712,545.621167183745,582.212099195248,657.405809614959,811.404581001536,4,5,0,5,3,6,vertical,vertical,vertical,vertical,horizontal,vertical
1a,24,100193,2,3,67,18,F,NA,variable,heterogeneous,5,absent,NaN,0,vertical,none,0,0.647058540478087,green,5,NaN,556.142287229426,525.445215295702,NaN,NaN,653.738008730483,808.883771293693,953.462830903772,803.65205506206,1041.10723677783,516.980120613425,795.549636358493,345.03883773512,556.142287229426,525.445215295702,0,0,0,3,5,6,4,NaN,horizontal,horizontal,horizontal,vertical,vertical,none
1a,24,100193,2,4,68,18,F,NA,variable,heterogeneous,3,absent,1.42821502685547,1,horizontal,horizontal,1,0.999997594063742,green,1,NaN,777.775285599347,854.029648013395,NaN,NaN,777.775285599347,854.029648013395,1031.10848569435,492.232343256122,591.116228706307,453.738008730483,0,0,0,0,0,0,4,3,6,NaN,NaN,NaN,horizontal,horizontal,vertical,none,none,none
1a,24,100193,2,5,69,18,F,NA,variable,heterogeneous,6,absent,NaN,0,vertical,none,0,0.72941098631474,green,1,NaN,895.524681321058,836.431882914531,NaN,NaN,895.524681321058,836.431882914531,1052.5183575291,635.489140744817,956.993676208043,399.057257830286,704.475318678942,363.568117085469,547.481642470899,564.510859255183,643.006323791957,800.942742169714,4,5,5,6,3,0,vertical,horizontal,vertical,vertical,vertical,vertical
1a,24,100193,2,6,70,18,F,NA,variable,heterogeneous,5,present,NaN,0,vertical,none,0,0.788234161912349,red,1,2,878.799333565612,842.519411655264,1055,600,878.799333565612,842.519411655264,1055,600,878.799333565612,357.480588344736,593.700666434388,450.114760665419,593.700666434388,749.885239334581,0,0,4,3,6,3,0,NaN,vertical,horizontal,vertical,horizontal,vertical,none
1a,24,100193,2,7,71,18,F,NA,variable,heterogeneous,6,absent,NaN,0,vertical,none,0,1.03529149942231,red,5,NaN,570.807518193712,488.215357568785,NaN,NaN,817.787900804752,854.378832816255,1029.19248180629,711.784642431215,1011.40458100154,457.40580961496,782.212099195248,345.621167183745,570.807518193712,488.215357568785,588.595418998464,742.594190385041,6,0,6,0,4,5,horizontal,vertical,horizontal,vertical,vertical,vertical
1a,24,100193,2,8,72,18,F,NA,variable,heterogeneous,5,present,NaN,0,horizontal,none,0,1.09411467501992,green,5,1,545.349468637584,613.345668841951,734.001143498857,846.311085703712,734.001143498857,846.311085703712,1013.86099482608,738.882953928832,998.172220171528,439.523300282291,708.616172865948,361.936991243214,545.349468637584,613.345668841951,0,0,0,3,6,5,4,NaN,horizontal,horizontal,horizontal,horizontal,horizontal,none
1a,24,100193,2,9,73,18,F,NA,variable,heterogeneous,5,present,1.10770606994629,0,vertical,horizontal,1,0.647058540478087,green,2,3,992.450942956807,767.295052392579,1018.57766167904,468.665290897936,700.363562235235,834.728737630372,992.450942956807,767.295052392579,1018.57766167904,468.665290897936,742.637481142314,351.535633479765,545.970351986605,577.775285599347,0,0,3,4,0,6,5,NaN,vertical,vertical,horizontal,vertical,horizontal,none
1a,24,100193,2,10,74,18,F,NA,variable,heterogeneous,6,present,NaN,0,vertical,none,0,0.694117080956175,green,2,4,1027.20666366803,715.767577433584,786.654331158049,345.349468637584,813.345668841951,854.650531362416,1027.20666366803,715.767577433584,1013.86099482608,461.117046071168,786.654331158049,345.349468637584,572.793336331966,484.232422566416,586.139005173917,738.882953928832,5,4,0,6,0,5,vertical,vertical,horizontal,horizontal,horizontal,horizontal
1a,24,100193,2,11,75,18,F,NA,variable,heterogeneous,5,present,NaN,0,vertical,none,0,0.741175621434262,red,5,1,545.155339110131,608.899371659138,729.712474266665,845.121732464271,729.712474266665,845.121732464271,1011.40458100154,742.594190385041,1000.94274216971,443.006323791957,712.784863451954,360.378381699593,545.155339110131,608.899371659138,0,0,3,5,0,0,4,NaN,vertical,horizontal,vertical,horizontal,vertical,none
1a,24,100193,2,12,76,18,F,NA,variable,heterogeneous,4,absent,NaN,0,vertical,none,0,0.611764635119522,red,3,NaN,636.089159529932,404.658667004661,NaN,NaN,963.910840470068,795.341332995339,995.341332995339,436.089159529932,636.089159529932,404.658667004661,604.658667004661,763.910840470068,0,0,0,0,3,0,4,6,NaN,NaN,vertical,vertical,vertical,vertical,none,none
1a,24,100193,2,13,77,18,F,NA,variable,heterogeneous,4,absent,NaN,0,vertical,none,0,0.85882197262948,green,2,NaN,1054.84466088987,608.899371659138,NaN,NaN,791.100628340862,854.844660889869,1054.84466088987,608.899371659138,808.899371659138,345.155339110131,545.155339110131,591.100628340862,0,0,0,0,5,4,5,3,NaN,NaN,horizontal,vertical,horizontal,horizontal,none,none
1a,24,100193,2,14,78,18,F,NA,variable,heterogeneous,5,absent,NaN,0,vertical,none,0,0.611764635119522,red,4,NaN,795.549636358493,345.03883773512,NaN,NaN,653.738008730483,808.883771293693,953.462830903772,803.65205506206,1041.10723677783,516.980120613425,795.549636358493,345.03883773512,556.142287229426,525.445215295702,0,0,6,0,3,4,5,NaN,vertical,horizontal,horizontal,vertical,horizontal,none
1a,24,100193,2,15,79,18,F,NA,variable,heterogeneous,6,absent,NaN,0,horizontal,none,0,0.682352445836653,red,2,NaN,1041.10723677783,683.019879386575,NaN,NaN,848.656293821019,850.314931779154,1041.10723677783,683.019879386575,992.450942956807,432.704947607421,751.343706178981,349.685068220846,558.892763222174,516.980120613425,607.549057043193,767.295052392579,6,4,6,3,5,3,horizontal,horizontal,horizontal,vertical,vertical,vertical
1a,24,100193,2,16,80,18,F,NA,variable,heterogeneous,4,present,1.3048210144043,1,horizontal,horizontal,1,0.847057337509958,green,2,3,986.495193912888,426.090418184063,626.090418184063,413.504806087112,973.909581815937,786.495193912888,986.495193912888,426.090418184063,626.090418184063,413.504806087112,613.504806087112,773.909581815937,0,0,0,0,6,4,0,3,NaN,NaN,horizontal,horizontal,horizontal,horizontal,none,none
1a,24,100193,2,17,81,18,F,NA,variable,heterogeneous,4,present,1.24549198150635,1,horizontal,horizontal,1,0.917645148227089,green,4,1,545.03883773512,595.549636358493,795.549636358493,854.96116226488,795.549636358493,854.96116226488,1054.96116226488,604.450363641507,804.450363641507,345.03883773512,545.03883773512,595.549636358493,0,0,0,0,5,3,6,4,NaN,NaN,horizontal,vertical,horizontal,horizontal,none,none
1a,24,100193,2,18,82,18,F,NA,variable,heterogeneous,5,absent,1.07408404350281,0,vertical,horizontal,1,0.752940256553784,red,1,NaN,700.363562235235,834.728737630372,NaN,NaN,700.363562235235,834.728737630372,992.450942956807,767.295052392579,1018.57766167904,468.665290897936,742.637481142314,351.535633479765,545.970351986605,577.775285599347,0,0,4,5,0,6,5,NaN,vertical,vertical,vertical,horizontal,vertical,none
1a,24,100193,2,19,83,18,F,NA,variable,heterogeneous,4,absent,NaN,0,vertical,none,0,0.682352445836653,red,2,NaN,1045.12173246427,670.287525733335,NaN,NaN,729.712474266665,845.121732464271,1045.12173246427,670.287525733335,870.287525733335,354.878267535729,554.878267535729,529.712474266665,0,0,0,0,0,4,6,3,NaN,NaN,horizontal,vertical,vertical,vertical,none,none
1a,24,100193,2,20,84,18,F,NA,variable,heterogeneous,4,absent,1.82594108581543,0,vertical,horizontal,1,0.623529270239044,green,1,NaN,907.767656743878,831.108485694346,NaN,NaN,907.767656743878,831.108485694346,1031.10848569435,492.232343256122,692.232343256122,368.891514305654,568.891514305654,707.767656743878,0,0,0,0,4,6,3,3,NaN,NaN,vertical,vertical,vertical,vertical,none,none
1a,24,100193,2,21,85,18,F,NA,variable,heterogeneous,6,present,NaN,0,horizontal,none,0,0.72941098631474,green,4,5,760.109211414741,348.13947314824,561.936991243214,508.616172865948,839.890788585259,851.86052685176,1038.06300875679,691.383827134052,998.172220171528,439.523300282291,760.109211414741,348.13947314824,561.936991243214,508.616172865948,601.827779828472,760.476699717708,6,0,5,4,6,3,vertical,horizontal,vertical,horizontal,horizontal,vertical
1a,24,100193,2,22,86,18,F,NA,variable,heterogeneous,3,present,0.000956058502197266,0,horizontal,vertical,1,1.09411467501992,red,3,1,556.142287229426,525.445215295702,857.362518857686,848.464366520235,857.362518857686,848.464366520235,986.495193912888,426.090418184063,556.142287229426,525.445215295702,0,0,0,0,0,0,0,3,4,NaN,NaN,NaN,vertical,vertical,horizontal,none,none,none
1a,24,100193,2,23,87,18,F,NA,variable,heterogeneous,5,absent,NaN,0,vertical,none,0,0.717646351195218,green,3,NaN,1032.95409169886,496.282156015671,NaN,NaN,672.5,820.836477965032,970.628304621509,789.501930496736,1032.95409169886,496.282156015671,773.345241866748,346.39691668109,550.57236181288,546.982518841471,0,0,3,5,4,6,0,NaN,vertical,horizontal,vertical,vertical,horizontal,none
1a,24,100193,2,24,88,18,F,NA,variable,heterogeneous,4,absent,0.862556934356689,0,horizontal,vertical,1,0.823528067270915,red,1,NaN,782.212099195248,854.378832816255,NaN,NaN,782.212099195248,854.378832816255,1054.37883281626,617.787900804752,817.787900804752,345.621167183745,545.621167183745,582.212099195248,0,0,0,0,4,3,6,5,NaN,NaN,horizontal,horizontal,horizontal,vertical,none,none
1a,24,100193,2,25,89,18,F,NA,variable,heterogeneous,4,present,1.01304411888123,1,vertical,vertical,1,0.835292702390437,green,1,3,946.261991269517,808.883771293693,653.738008730483,391.116228706307,946.261991269517,808.883771293693,1008.88377129369,453.738008730483,653.738008730483,391.116228706307,591.116228706307,746.261991269517,0,0,0,0,4,3,0,6,NaN,NaN,vertical,horizontal,vertical,vertical,none,none
1a,24,100193,2,26,90,18,F,NA,variable,heterogeneous,5,absent,0.924475908279419,0,horizontal,vertical,1,0.952939053585655,red,1,NaN,844.280285305067,851.125977018113,NaN,NaN,844.280285305067,851.125977018113,1052.5183575291,635.489140744817,911.784642431215,370.807518193712,616.568350913644,422.862115532956,574.848363820974,719.715248510402,0,0,4,6,0,0,5,NaN,horizontal,horizontal,horizontal,vertical,horizontal,none
1a,24,100193,2,27,91,18,F,NA,variable,heterogeneous,6,absent,1.62443494796753,1,horizontal,horizontal,1,1.05882076966135,red,3,NaN,1031.10848569435,492.232343256122,NaN,NaN,777.775285599347,854.029648013395,1008.88377129369,746.261991269517,1031.10848569435,492.232343256122,822.224714400653,345.970351986605,591.116228706307,453.738008730483,568.891514305654,707.767656743878,0,0,4,6,5,6,vertical,vertical,horizontal,horizontal,vertical,vertical
1a,24,100193,2,28,92,18,F,NA,variable,heterogeneous,5,present,1.01768016815186,0,horizontal,vertical,1,1.03529149942231,green,4,2,716.980120613425,358.892763222174,1008.88377129369,746.261991269517,725.445215295702,843.857712770574,1008.88377129369,746.261991269517,1003.65205506206,446.537169096228,716.980120613425,358.892763222174,545.03883773512,604.450363641507,0,0,6,0,6,4,5,NaN,vertical,horizontal,horizontal,horizontal,horizontal,none
1a,24,100193,2,29,93,18,F,NA,variable,heterogeneous,3,present,1.40452980995178,1,vertical,vertical,1,0.717646351195218,red,3,1,565.271262369628,699.636437764765,1003.65205506206,753.462830903772,1003.65205506206,753.462830903772,831.076682568313,346.900731331463,565.271262369628,699.636437764765,0,0,0,0,0,0,0,3,4,NaN,NaN,NaN,vertical,horizontal,vertical,none,none,none
1a,24,100193,2,30,94,18,F,NA,variable,heterogeneous,5,present,1.44999408721924,0,vertical,horizontal,1,0.847057337509958,green,1,5,760.109211414741,851.86052685176,548.13947314824,639.890788585259,760.109211414741,851.86052685176,1027.20666366803,715.767577433584,980.31222920257,419.68777079743,684.232422566416,372.793336331966,548.13947314824,639.890788585259,0,0,4,0,5,6,3,NaN,vertical,horizontal,horizontal,vertical,vertical,none
1a,24,100193,2,31,95,18,F,NA,variable,heterogeneous,3,absent,1.26877593994141,0,vertical,horizontal,1,0.882351242868524,green,3,NaN,782.212099195248,345.621167183745,NaN,NaN,588.595418998464,742.594190385041,1029.19248180629,711.784642431215,782.212099195248,345.621167183745,0,0,0,0,0,0,6,5,4,NaN,NaN,NaN,vertical,horizontal,vertical,none,none,none
1a,24,100193,2,32,96,18,F,NA,variable,heterogeneous,5,present,1.04357385635376,1,horizontal,horizontal,1,0.682352445836653,red,1,3,938.882953928832,813.860994826083,813.345668841951,345.349468637584,938.882953928832,813.860994826083,1046.31108570371,534.001143498857,813.345668841951,345.349468637584,561.936991243214,508.616172865948,639.523300282292,798.172220171528,0,0,4,5,3,6,0,NaN,horizontal,vertical,vertical,vertical,horizontal,none
1a,24,100193,2,33,97,18,F,NA,variable,heterogeneous,6,present,1.71612405776978,1,horizontal,horizontal,1,0.776469526792827,red,3,1,1038.06300875679,508.616172865948,760.109211414741,851.86052685176,760.109211414741,851.86052685176,998.172220171528,760.476699717708,1038.06300875679,508.616172865948,839.890788585259,348.13947314824,601.827779828472,439.523300282291,561.936991243214,691.383827134052,5,3,4,0,6,6,horizontal,horizontal,horizontal,vertical,horizontal,horizontal
1a,24,100193,2,34,98,18,F,NA,variable,heterogeneous,6,present,1.17793488502502,1,vertical,vertical,1,0.952939053585655,red,1,2,861.690083377915,847.425410200379,1045.12173246427,670.287525733335,861.690083377915,847.425410200379,1045.12173246427,670.287525733335,983.431649086356,422.862115532956,738.309916622085,352.574589799621,554.878267535729,529.712474266665,616.568350913644,777.137884467044,4,6,5,0,3,5,vertical,vertical,vertical,horizontal,horizontal,vertical
1a,24,100193,2,35,99,18,F,NA,variable,heterogeneous,5,absent,1.45509505271912,0,horizontal,vertical,1,0.870586607749002,red,3,NaN,1032.95409169886,496.282156015671,NaN,NaN,672.5,820.836477965032,970.628304621509,789.501930496736,1032.95409169886,496.282156015671,773.345241866748,346.39691668109,550.57236181288,546.982518841471,0,0,3,6,4,5,3,NaN,horizontal,vertical,horizontal,vertical,horizontal,none
1a,24,100193,2,36,100,18,F,NA,variable,heterogeneous,3,absent,0.865921974182129,0,horizontal,vertical,1,0.682352445836653,red,1,NaN,861.690083377915,847.425410200379,NaN,NaN,861.690083377915,847.425410200379,983.431649086356,422.862115532956,554.878267535729,529.712474266665,0,0,0,0,0,0,4,3,3,NaN,NaN,NaN,horizontal,vertical,vertical,none,none,none
1a,24,100193,2,37,101,18,F,NA,variable,heterogeneous,3,present,0.721513986587524,1,horizontal,horizontal,1,0.905880513107568,green,1,2,857.362518857686,848.464366520235,986.495193912888,426.090418184063,857.362518857686,848.464366520235,986.495193912888,426.090418184063,556.142287229426,525.445215295702,0,0,0,0,0,0,4,0,3,NaN,NaN,NaN,horizontal,horizontal,horizontal,none,none,none
1a,24,100193,2,38,102,18,F,NA,variable,heterogeneous,6,absent,1.08361887931824,0,vertical,horizontal,1,0.764704891673306,red,4,NaN,688.215357568785,370.807518193712,NaN,NaN,911.784642431215,829.192481806288,1054.37883281626,617.787900804752,942.594190385041,388.595418998464,688.215357568785,370.807518193712,545.621167183745,582.212099195248,657.405809614959,811.404581001536,3,5,5,4,0,0,horizontal,horizontal,vertical,vertical,horizontal,vertical
1a,24,100193,2,39,103,18,F,NA,variable,heterogeneous,3,absent,1.28666710853577,1,horizontal,horizontal,1,1.07058540478087,green,2,NaN,949.885239334581,393.700666434388,NaN,NaN,903.717843984329,832.954091698863,949.885239334581,393.700666434388,546.39691668109,573.345241866748,0,0,0,0,0,0,6,4,0,NaN,NaN,NaN,horizontal,horizontal,horizontal,none,none,none
1a,24,100193,2,40,104,18,F,NA,variable,heterogeneous,4,absent,1.6698579788208,1,horizontal,horizontal,1,0.658823175597609,green,1,NaN,786.654331158049,854.650531362416,NaN,NaN,786.654331158049,854.650531362416,1054.65053136242,613.345668841951,813.345668841951,345.349468637584,545.349468637584,586.654331158049,0,0,0,0,4,5,6,6,NaN,NaN,horizontal,horizontal,horizontal,horizontal,none,none
1a,24,100193,2,41,105,18,F,NA,variable,heterogeneous,4,absent,1.32540106773376,1,horizontal,horizontal,1,0.694117080956175,red,4,NaN,550.57236181288,546.982518841471,NaN,NaN,746.982518841471,849.42763818712,1049.42763818712,653.017481158529,853.017481158529,350.57236181288,550.57236181288,546.982518841471,0,0,0,0,3,5,6,4,NaN,NaN,horizontal,vertical,vertical,horizontal,none,none
1a,24,100193,2,42,106,18,F,NA,variable,heterogeneous,3,present,0.893445014953613,1,vertical,vertical,1,1.07058540478087,green,2,3,1031.10848569435,492.232343256122,591.116228706307,453.738008730483,777.775285599347,854.029648013395,1031.10848569435,492.232343256122,591.116228706307,453.738008730483,0,0,0,0,0,0,5,4,3,NaN,NaN,NaN,vertical,vertical,vertical,none,none,none
1a,24,100193,2,43,107,18,F,NA,variable,heterogeneous,3,absent,0.714681148529053,1,vertical,vertical,1,0.952939053585655,red,2,NaN,1038.06300875679,508.616172865948,NaN,NaN,760.109211414741,851.86052685176,1038.06300875679,508.616172865948,601.827779828472,439.523300282291,0,0,0,0,0,0,5,4,5,NaN,NaN,NaN,horizontal,vertical,vertical,none,none,none
1a,24,100193,2,44,108,18,F,NA,variable,heterogeneous,6,present,1.05355501174927,0,horizontal,vertical,1,1.02352686430279,green,2,1,1048.46436652023,657.362518857686,874.554784704298,843.857712770574,874.554784704298,843.857712770574,1048.46436652023,657.362518857686,973.909581815937,413.504806087112,725.445215295702,356.142287229426,551.535633479765,542.637481142314,626.090418184063,786.495193912888,0,4,5,0,6,6,horizontal,horizontal,horizontal,horizontal,horizontal,horizontal
1a,24,100193,2,45,109,18,F,NA,variable,heterogeneous,4,absent,1.02291989326477,0,horizontal,vertical,1,0.811763432151393,green,2,NaN,986.495193912888,426.090418184063,NaN,NaN,973.909581815937,786.495193912888,986.495193912888,426.090418184063,626.090418184063,413.504806087112,613.504806087112,773.909581815937,0,0,0,0,0,4,3,0,NaN,NaN,vertical,horizontal,vertical,vertical,none,none
1a,24,100193,2,46,110,18,F,NA,variable,heterogeneous,6,present,1.37307691574097,1,horizontal,horizontal,1,0.870586607749002,red,5,3,593.700666434388,450.114760665419,1032.95409169886,496.282156015671,773.345241866748,853.60308331891,1006.29933356561,749.885239334581,1032.95409169886,496.282156015671,826.654758133252,346.39691668109,593.700666434388,450.114760665419,567.045908301137,703.717843984329,5,6,3,0,4,0,vertical,horizontal,horizontal,horizontal,horizontal,horizontal
1a,24,100193,2,47,111,18,F,NA,variable,heterogeneous,3,absent,1.11284708976746,1,vertical,vertical,1,1.01176222918326,red,2,NaN,1041.10723677783,683.019879386575,NaN,NaN,607.549057043193,767.295052392579,1041.10723677783,683.019879386575,751.343706178981,349.685068220846,0,0,0,0,0,0,6,4,5,NaN,NaN,NaN,vertical,vertical,vertical,none,none,none
1a,24,100193,2,48,112,18,F,NA,variable,heterogeneous,5,absent,1.14061808586121,0,horizontal,vertical,1,0.870586607749002,green,1,NaN,725.445215295702,843.857712770574,NaN,NaN,725.445215295702,843.857712770574,1008.88377129369,746.261991269517,1003.65205506206,446.537169096228,716.980120613425,358.892763222174,545.03883773512,604.450363641507,0,0,4,0,0,3,5,NaN,horizontal,vertical,horizontal,vertical,horizontal,none
1a,24,100193,2,49,113,18,F,NA,variable,heterogeneous,6,present,1.17158317565918,0,vertical,horizontal,1,0.799998797031871,red,6,4,596.34794493794,753.462830903772,768.923317431687,346.900731331463,831.076682568313,853.099268668537,1034.72873763037,699.636437764765,1003.65205506206,446.537169096228,768.923317431687,346.900731331463,565.271262369628,500.363562235235,596.34794493794,753.462830903772,6,0,0,5,3,4,horizontal,horizontal,horizontal,vertical,vertical,vertical
1a,24,100193,2,50,114,18,F,NA,variable,heterogeneous,3,present,1.58972406387329,1,horizontal,horizontal,1,0.917645148227089,green,3,1,567.045908301137,496.282156015671,826.654758133252,853.60308331891,826.654758133252,853.60308331891,1006.29933356561,450.114760665419,567.045908301137,496.282156015671,0,0,0,0,0,0,6,0,4,NaN,NaN,NaN,vertical,vertical,horizontal,none,none,none
1a,24,100193,2,51,115,18,F,NA,variable,heterogeneous,3,present,1.14832592010498,1,horizontal,horizontal,1,0.72941098631474,red,2,1,1031.10848569435,492.232343256122,777.775285599347,854.029648013395,777.775285599347,854.029648013395,1031.10848569435,492.232343256122,591.116228706307,453.738008730483,0,0,0,0,0,0,0,4,5,NaN,NaN,NaN,vertical,horizontal,horizontal,none,none,none
1a,24,100193,2,52,116,18,F,NA,variable,heterogeneous,4,present,1.01242208480835,1,vertical,vertical,1,1.04705613454183,red,4,3,546.900731331463,631.076682568313,768.923317431687,346.900731331463,831.076682568313,853.099268668537,1053.09926866854,568.923317431687,768.923317431687,346.900731331463,546.900731331463,631.076682568313,0,0,0,0,3,5,6,4,NaN,NaN,vertical,vertical,vertical,vertical,none,none
1a,24,100193,2,53,117,18,F,NA,variable,heterogeneous,3,absent,1.0711190700531,1,vertical,vertical,1,0.917645148227089,green,1,NaN,596.34794493794,753.462830903772,NaN,NaN,596.34794493794,753.462830903772,1034.72873763037,699.636437764765,768.923317431687,346.900731331463,0,0,0,0,0,0,4,0,3,NaN,NaN,NaN,vertical,vertical,horizontal,none,none,none
1a,24,100193,2,54,118,18,F,NA,variable,heterogeneous,4,present,0.602622985839844,0,horizontal,vertical,1,1.08235003990039,red,1,3,942.594190385041,811.404581001536,657.405809614959,388.595418998464,942.594190385041,811.404581001536,1011.40458100154,457.40580961496,657.405809614959,388.595418998464,588.595418998464,742.594190385041,0,0,0,0,4,3,0,0,NaN,NaN,horizontal,horizontal,vertical,vertical,none,none
1a,24,100193,2,55,119,18,F,NA,variable,heterogeneous,3,present,1.18725991249084,1,vertical,vertical,1,0.611764635119522,red,3,2,760.109211414741,348.13947314824,1038.06300875679,691.383827134052,601.827779828472,760.476699717708,1038.06300875679,691.383827134052,760.109211414741,348.13947314824,0,0,0,0,0,0,0,3,4,NaN,NaN,NaN,horizontal,vertical,vertical,none,none,none
1a,24,100193,2,56,120,18,F,NA,variable,heterogeneous,5,absent,1.16447496414185,0,horizontal,vertical,1,0.870586607749002,green,5,NaN,626.090418184063,786.495193912888,NaN,NaN,923.626453162816,823.028025320546,1050.31493177915,551.343706178981,831.076682568313,346.900731331463,568.891514305654,492.232343256122,626.090418184063,786.495193912888,0,0,0,5,3,5,4,NaN,horizontal,vertical,vertical,horizontal,horizontal,none
1a,24,100193,2,57,121,18,F,NA,variable,heterogeneous,3,absent,1.28026390075684,1,horizontal,horizontal,1,1.01176222918326,red,2,NaN,1052.5183575291,635.489140744817,NaN,NaN,643.006323791957,800.942742169714,1052.5183575291,635.489140744817,704.475318678942,363.568117085469,0,0,0,0,0,0,5,4,3,NaN,NaN,NaN,horizontal,horizontal,vertical,none,none,none
1a,24,100193,2,58,122,18,F,NA,variable,heterogeneous,6,present,1.21540713310242,0,vertical,horizontal,1,1.07058540478087,green,2,1,1054.37883281626,617.787900804752,911.784642431215,829.192481806288,911.784642431215,829.192481806288,1054.37883281626,617.787900804752,942.594190385041,388.595418998464,688.215357568785,370.807518193712,545.621167183745,582.212099195248,657.405809614959,811.404581001536,3,4,0,6,6,5,horizontal,vertical,vertical,vertical,vertical,horizontal
1a,24,100193,2,59,123,18,F,NA,variable,heterogeneous,3,present,0.895397186279297,1,vertical,vertical,1,0.776469526792827,green,3,1,800,345,579.163522034968,727.5,579.163522034968,727.5,1020.83647796503,727.5,800,345,0,0,0,0,0,0,0,6,4,NaN,NaN,NaN,vertical,vertical,vertical,none,none,none
1a,24,100193,2,60,124,18,F,NA,variable,heterogeneous,5,present,1.29497289657593,0,horizontal,vertical,1,0.870586607749002,red,3,1,874.554784704298,356.142287229426,883.019879386575,841.107236777826,883.019879386575,841.107236777826,1054.96116226488,595.549636358493,874.554784704298,356.142287229426,591.116228706307,453.738008730483,596.34794493794,753.462830903772,0,0,6,3,4,6,3,NaN,horizontal,vertical,horizontal,vertical,vertical,none
1a,24,100193,2,61,125,18,F,NA,variable,heterogeneous,4,present,0.95425009727478,1,vertical,vertical,1,0.85882197262948,green,4,2,557.480588344736,678.799333565612,1042.51941165526,521.200666434388,878.799333565612,842.519411655264,1042.51941165526,521.200666434388,721.200666434388,357.480588344736,557.480588344736,678.799333565612,0,0,0,0,6,0,3,4,NaN,NaN,vertical,horizontal,horizontal,vertical,none,none
1a,24,100193,2,62,126,18,F,NA,variable,heterogeneous,4,present,1.4430558681488,0,horizontal,vertical,1,0.658823175597609,red,1,4,680.284751489598,825.151636179026,574.848363820974,480.284751489598,680.284751489598,825.151636179026,1025.15163617903,719.715248510402,919.715248510402,374.848363820974,574.848363820974,480.284751489598,0,0,0,0,4,3,0,6,NaN,NaN,horizontal,vertical,vertical,vertical,none,none
1a,24,100193,2,63,127,18,F,NA,variable,heterogeneous,6,absent,0.979991912841797,1,horizontal,horizontal,1,0.999997594063742,green,1,NaN,684.232422566416,827.206663668034,NaN,NaN,684.232422566416,827.206663668034,938.882953928832,813.860994826083,1054.65053136242,586.654331158049,915.767577433584,372.793336331966,661.117046071168,386.139005173917,545.349468637584,613.345668841951,4,6,0,0,3,5,horizontal,vertical,vertical,horizontal,vertical,vertical
1a,24,100193,2,64,128,18,F,NA,variable,heterogeneous,4,present,1.19200992584229,1,vertical,vertical,1,0.623529270239044,red,1,4,716.980120613425,841.107236777826,558.892763222174,516.980120613425,716.980120613425,841.107236777826,1041.10723677783,683.019879386575,883.019879386575,358.892763222174,558.892763222174,516.980120613425,0,0,0,0,4,6,6,3,NaN,NaN,vertical,horizontal,vertical,vertical,none,none
1a,24,100193,3,1,129,18,F,NA,variable,heterogeneous,6,present,NaN,0,vertical,none,0,1.02352686430279,green,2,6,992.450942956807,767.295052392579,558.892763222174,683.019879386575,751.343706178981,850.314931779154,992.450942956807,767.295052392579,1041.10723677783,516.980120613425,848.656293821019,349.685068220846,607.549057043193,432.704947607421,558.892763222174,683.019879386575,0,4,5,6,3,5,vertical,vertical,vertical,vertical,horizontal,horizontal
1a,24,100193,3,2,130,18,F,NA,variable,heterogeneous,5,absent,1.41478204727173,1,horizontal,horizontal,1,0.788234161912349,green,2,NaN,1049.42763818712,546.982518841471,NaN,NaN,927.5,820.836477965032,1049.42763818712,546.982518841471,826.654758133252,346.39691668109,567.045908301137,496.282156015671,629.371695378491,789.501930496736,0,0,3,4,6,5,3,NaN,vertical,horizontal,horizontal,vertical,horizontal,none
1a,24,100193,3,3,131,18,F,NA,variable,heterogeneous,3,absent,0.800541877746582,0,vertical,horizontal,1,0.870586607749002,green,2,NaN,911.784642431215,370.807518193712,NaN,NaN,942.594190385041,811.404581001536,911.784642431215,370.807518193712,545.621167183745,617.787900804752,0,0,0,0,0,0,0,4,6,NaN,NaN,NaN,vertical,vertical,vertical,none,none,none
1a,24,100193,3,4,132,18,F,NA,variable,heterogeneous,3,present,0.947066068649292,1,vertical,vertical,1,0.705881716075696,red,1,2,915.767577433584,827.206663668034,938.882953928832,386.139005173917,915.767577433584,827.206663668034,938.882953928832,386.139005173917,545.349468637584,586.654331158049,0,0,0,0,0,0,4,0,3,NaN,NaN,NaN,vertical,horizontal,vertical,none,none,none
1a,24,100193,3,5,133,18,F,NA,variable,heterogeneous,5,present,1.42103004455566,1,horizontal,horizontal,1,0.941174418466133,red,5,4,613.504806087112,773.909581815937,576.971974679454,476.373546837184,907.767656743878,831.108485694346,1053.09926866854,568.923317431687,848.656293821019,349.685068220846,576.971974679454,476.373546837184,613.504806087112,773.909581815937,0,0,5,6,3,6,4,NaN,vertical,horizontal,vertical,vertical,horizontal,none
1a,24,100193,3,6,134,18,F,NA,variable,heterogeneous,4,absent,1.6231050491333,1,vertical,vertical,1,0.870586607749002,red,2,NaN,1054.84466088987,591.100628340862,NaN,NaN,808.899371659138,854.844660889869,1054.84466088987,591.100628340862,791.100628340862,345.155339110131,545.155339110131,608.899371659138,0,0,0,0,3,4,0,5,NaN,NaN,vertical,vertical,horizontal,horizontal,none,none
1a,24,100193,3,7,135,18,F,NA,variable,heterogeneous,4,present,1.05540299415588,1,vertical,vertical,1,0.788234161912349,green,3,2,742.637481142314,351.535633479765,1048.46436652023,542.637481142314,857.362518857686,848.464366520235,1048.46436652023,542.637481142314,742.637481142314,351.535633479765,551.535633479765,657.362518857686,0,0,0,0,5,6,4,3,NaN,NaN,horizontal,horizontal,vertical,vertical,none,none
1a,24,100193,3,8,136,18,F,NA,variable,heterogeneous,3,present,1.67755889892578,1,horizontal,horizontal,1,0.847057337509958,green,2,1,995.341332995339,436.089159529932,844.280285305067,851.125977018113,844.280285305067,851.125977018113,995.341332995339,436.089159529932,560.378381699593,512.784863451954,0,0,0,0,0,0,6,4,3,NaN,NaN,NaN,horizontal,horizontal,vertical,none,none,none
1a,24,100193,3,9,137,18,F,NA,variable,heterogeneous,6,absent,1.33190894126892,0,horizontal,vertical,1,0.823528067270915,green,5,NaN,610.498069503264,429.371695378491,NaN,NaN,746.982518841471,849.42763818712,989.501930496736,770.628304621509,1042.51941165526,521.200666434388,853.017481158529,350.57236181288,610.498069503264,429.371695378491,557.480588344736,678.799333565612,5,0,3,5,4,3,vertical,vertical,horizontal,horizontal,horizontal,horizontal
1a,24,100193,3,10,138,18,F,NA,variable,heterogeneous,4,absent,1.06843900680542,1,vertical,vertical,1,0.905880513107568,green,2,NaN,1016.25226451989,735.129412379467,NaN,NaN,664.870587620533,816.252264519889,1016.25226451989,735.129412379467,935.129412379467,383.747735480111,583.747735480111,464.870587620533,0,0,0,0,3,4,0,0,NaN,NaN,vertical,vertical,horizontal,horizontal,none,none
1a,24,100193,3,11,139,18,F,NA,variable,heterogeneous,3,present,1.2582049369812,1,vertical,vertical,1,0.611764635119522,green,3,1,567.045908301137,703.717843984329,1006.29933356561,749.885239334581,1006.29933356561,749.885239334581,826.654758133252,346.39691668109,567.045908301137,703.717843984329,0,0,0,0,0,0,3,5,4,NaN,NaN,NaN,horizontal,vertical,vertical,none,none,none
1a,24,100193,3,12,140,18,F,NA,variable,heterogeneous,4,present,1.54989695549011,1,horizontal,horizontal,1,0.694117080956175,green,2,1,1020.83647796503,472.5,927.5,820.836477965032,927.5,820.836477965032,1020.83647796503,472.5,672.5,379.163522034968,579.163522034968,727.5,0,0,0,0,6,4,3,5,NaN,NaN,vertical,horizontal,horizontal,vertical,none,none
1a,24,100193,3,13,141,18,F,NA,variable,heterogeneous,3,absent,0.779366970062256,1,vertical,vertical,1,0.929409783346611,red,3,NaN,549.685068220846,551.343706178981,NaN,NaN,883.019879386575,841.107236777826,967.295052392579,407.549057043193,549.685068220846,551.343706178981,0,0,0,0,0,0,3,3,4,NaN,NaN,NaN,horizontal,vertical,vertical,none,none,none
1a,24,100193,3,14,142,18,F,NA,variable,heterogeneous,4,present,0.983641147613525,1,vertical,vertical,1,1.02352686430279,green,1,4,704.475318678942,836.431882914531,563.568117085469,504.475318678942,704.475318678942,836.431882914531,1036.43188291453,695.524681321058,895.524681321058,363.568117085469,563.568117085469,504.475318678942,0,0,0,0,4,5,6,3,NaN,NaN,vertical,vertical,vertical,vertical,none,none
1a,24,100193,3,15,143,18,F,NA,variable,heterogeneous,6,present,1.04674100875854,0,horizontal,vertical,1,0.964703688705177,red,4,1,684.232422566416,372.793336331966,915.767577433584,827.206663668034,915.767577433584,827.206663668034,1054.65053136242,613.345668841951,938.882953928832,386.139005173917,684.232422566416,372.793336331966,545.349468637584,586.654331158049,661.117046071168,813.860994826083,0,3,3,4,0,5,horizontal,horizontal,vertical,horizontal,vertical,vertical
1a,24,100193,3,16,144,18,F,NA,variable,heterogeneous,6,present,1.23318004608154,1,vertical,vertical,1,0.658823175597609,red,5,4,550.57236181288,546.982518841471,721.200666434388,357.480588344736,878.799333565612,842.519411655264,1049.42763818712,653.017481158529,970.628304621509,410.498069503264,721.200666434388,357.480588344736,550.57236181288,546.982518841471,629.371695378491,789.501930496736,5,6,0,3,4,3,vertical,vertical,horizontal,horizontal,vertical,vertical
1a,24,100193,3,17,145,18,F,NA,variable,heterogeneous,6,absent,0.921139001846313,1,horizontal,horizontal,1,0.964703688705177,red,5,NaN,546.39691668109,573.345241866748,NaN,NaN,903.717843984329,832.954091698863,1053.60308331891,626.654758133252,949.885239334581,393.700666434388,696.282156015671,367.045908301137,546.39691668109,573.345241866748,650.114760665419,806.299333565612,0,3,6,6,4,0,vertical,vertical,horizontal,vertical,horizontal,vertical
1a,24,100193,3,18,146,18,F,NA,variable,heterogeneous,4,present,1.41816020011902,1,vertical,vertical,1,0.717646351195218,red,2,4,1046.31108570371,665.998856501143,553.688914296288,534.001143498857,734.001143498857,846.311085703712,1046.31108570371,665.998856501143,865.998856501143,353.688914296288,553.688914296288,534.001143498857,0,0,0,0,6,4,0,3,NaN,NaN,vertical,vertical,horizontal,vertical,none,none
1a,24,100193,3,19,147,18,F,NA,variable,heterogeneous,5,present,1.5535900592804,0,horizontal,vertical,1,0.952939053585655,green,2,3,1038.06300875679,691.383827134052,960.476699717708,401.827779828472,786.654331158049,854.650531362416,1038.06300875679,691.383827134052,960.476699717708,401.827779828472,661.117046071168,386.139005173917,553.688914296288,665.998856501143,0,0,3,4,5,0,0,NaN,vertical,horizontal,vertical,horizontal,horizontal,none
1a,24,100193,3,20,148,18,F,NA,variable,heterogeneous,4,absent,0.846807956695557,1,horizontal,horizontal,1,1.09411467501992,green,4,NaN,545.349468637584,586.654331158049,NaN,NaN,786.654331158049,854.650531362416,1054.65053136242,613.345668841951,813.345668841951,345.349468637584,545.349468637584,586.654331158049,0,0,0,0,6,0,6,4,NaN,NaN,vertical,vertical,vertical,horizontal,none,none
1a,24,100193,3,21,149,18,F,NA,variable,heterogeneous,5,present,0.928869009017944,1,vertical,vertical,1,0.835292702390437,green,1,2,870.287525733335,845.121732464271,1054.84466088987,608.899371659138,870.287525733335,845.121732464271,1054.84466088987,608.899371659138,887.215136548046,360.378381699593,599.057257830286,443.006323791957,588.595418998464,742.594190385041,0,0,4,3,6,5,0,NaN,vertical,vertical,horizontal,vertical,vertical,none
1a,24,100193,3,22,150,18,F,NA,variable,heterogeneous,5,absent,1.46758794784546,0,vertical,horizontal,1,0.999997594063742,red,5,NaN,619.68777079743,780.31222920257,NaN,NaN,915.767577433584,827.206663668034,1051.86052685176,560.109211414741,839.890788585259,348.13947314824,572.793336331966,484.232422566416,619.68777079743,780.31222920257,0,0,3,0,5,6,4,NaN,horizontal,vertical,vertical,horizontal,vertical,none
1a,24,100193,3,23,151,18,F,NA,variable,heterogeneous,3,present,0.903055906295776,1,horizontal,horizontal,1,1.09411467501992,red,1,3,839.890788585259,851.86052685176,561.936991243214,508.616172865948,839.890788585259,851.86052685176,998.172220171528,439.523300282291,561.936991243214,508.616172865948,0,0,0,0,0,0,4,3,0,NaN,NaN,NaN,horizontal,horizontal,vertical,none,none,none
1a,24,100193,3,24,152,18,F,NA,variable,heterogeneous,5,present,1.08785891532898,0,horizontal,vertical,1,0.941174418466133,red,3,5,995.341332995339,436.089159529932,545.621167183745,617.787900804752,738.309916622085,847.425410200379,1016.25226451989,735.129412379467,995.341332995339,436.089159529932,704.475318678942,363.568117085469,545.621167183745,617.787900804752,0,0,0,6,4,5,0,NaN,horizontal,vertical,horizontal,vertical,horizontal,none
1a,24,100193,3,25,153,18,F,NA,variable,heterogeneous,4,absent,0.937164068222046,1,horizontal,horizontal,1,0.752940256553784,green,3,NaN,813.345668841951,345.349468637584,NaN,NaN,786.654331158049,854.650531362416,1054.65053136242,613.345668841951,813.345668841951,345.349468637584,545.349468637584,586.654331158049,0,0,0,0,3,3,4,0,NaN,NaN,vertical,vertical,horizontal,horizontal,none,none
1a,24,100193,3,26,154,18,F,NA,variable,heterogeneous,6,present,1.48382806777954,0,vertical,horizontal,1,0.799998797031871,green,1,4,721.200666434388,842.519411655264,878.799333565612,357.480588344736,721.200666434388,842.519411655264,970.628304621509,789.501930496736,1049.42763818712,546.982518841471,878.799333565612,357.480588344736,629.371695378491,410.498069503264,550.57236181288,653.017481158529,4,3,3,5,0,6,vertical,horizontal,vertical,horizontal,vertical,vertical
1a,24,100193,3,27,155,18,F,NA,variable,heterogeneous,6,present,NaN,0,horizontal,none,0,0.705881716075696,green,6,4,557.480588344736,678.799333565612,853.017481158529,350.57236181288,746.982518841471,849.42763818712,989.501930496736,770.628304621509,1042.51941165526,521.200666434388,853.017481158529,350.57236181288,610.498069503264,429.371695378491,557.480588344736,678.799333565612,0,3,3,6,0,4,horizontal,horizontal,horizontal,horizontal,horizontal,horizontal
1a,24,100193,3,28,156,18,F,NA,variable,heterogeneous,3,absent,0.79771089553833,1,horizontal,horizontal,1,1.08235003990039,green,3,NaN,546.39691668109,573.345241866748,NaN,NaN,903.717843984329,832.954091698863,949.885239334581,393.700666434388,546.39691668109,573.345241866748,0,0,0,0,0,0,5,6,4,NaN,NaN,NaN,vertical,vertical,horizontal,none,none,none
1a,24,100193,3,29,157,18,F,NA,variable,heterogeneous,5,absent,0.774817943572998,1,horizontal,horizontal,1,1.04705613454183,red,5,NaN,548.874022981887,644.280285305067,NaN,NaN,764.510859255183,852.518357529101,1029.19248180629,711.784642431215,977.137884467044,416.568350913644,680.284751489598,374.848363820974,548.874022981887,644.280285305067,0,0,0,3,6,0,4,NaN,vertical,horizontal,vertical,horizontal,horizontal,none
1a,24,100193,3,30,158,18,F,NA,variable,heterogeneous,6,present,1.53927993774414,1,horizontal,horizontal,1,0.635293905358565,green,2,5,1016.25226451989,735.129412379467,583.747735480111,464.870587620533,791.100628340862,854.844660889869,1016.25226451989,735.129412379467,1025.15163617903,480.284751489598,808.899371659138,345.155339110131,583.747735480111,464.870587620533,574.848363820974,719.715248510402,6,4,5,0,5,0,horizontal,horizontal,horizontal,horizontal,vertical,vertical
1a,24,100193,3,31,159,18,F,NA,variable,heterogeneous,4,absent,0.909912109375,1,horizontal,horizontal,1,0.799998797031871,red,2,NaN,1054.0296480134,622.224714400653,NaN,NaN,777.775285599347,854.029648013395,1054.0296480134,622.224714400653,822.224714400653,345.970351986605,545.970351986605,577.775285599347,0,0,0,0,5,4,0,0,NaN,NaN,horizontal,horizontal,vertical,vertical,none,none
1a,24,100193,3,32,160,18,F,NA,variable,heterogeneous,3,present,0.804497957229614,0,horizontal,vertical,1,1.01176222918326,red,2,3,1027.20666366803,484.232422566416,586.139005173917,461.117046071168,786.654331158049,854.650531362416,1027.20666366803,484.232422566416,586.139005173917,461.117046071168,0,0,0,0,0,0,6,4,5,NaN,NaN,NaN,vertical,horizontal,vertical,none,none,none
1a,24,100193,3,33,161,18,F,NA,variable,heterogeneous,5,present,1.55654001235962,0,vertical,horizontal,1,1.01176222918326,green,5,3,548.874022981887,644.280285305067,977.137884467044,416.568350913644,764.510859255183,852.518357529101,1029.19248180629,711.784642431215,977.137884467044,416.568350913644,680.284751489598,374.848363820974,548.874022981887,644.280285305067,0,0,6,5,0,5,4,NaN,horizontal,vertical,vertical,vertical,vertical,none
1a,24,100193,3,34,162,18,F,NA,variable,heterogeneous,5,absent,0.777719020843506,0,vertical,horizontal,1,1.07058540478087,green,2,NaN,1016.25226451989,735.129412379467,NaN,NaN,738.309916622085,847.425410200379,1016.25226451989,735.129412379467,995.341332995339,436.089159529932,704.475318678942,363.568117085469,545.621167183745,617.787900804752,0,0,0,4,5,3,0,NaN,vertical,vertical,horizontal,vertical,horizontal,none
1a,24,100193,3,35,163,18,F,NA,variable,heterogeneous,3,present,0.743806838989258,1,vertical,vertical,1,0.717646351195218,green,3,1,704.475318678942,363.568117085469,643.006323791957,800.942742169714,643.006323791957,800.942742169714,1052.5183575291,635.489140744817,704.475318678942,363.568117085469,0,0,0,0,0,0,6,3,4,NaN,NaN,NaN,vertical,vertical,vertical,none,none,none
1a,24,100193,3,36,164,18,F,NA,variable,heterogeneous,6,absent,0.705015182495117,1,vertical,vertical,1,1.09411467501992,red,4,NaN,773.345241866748,346.39691668109,NaN,NaN,826.654758133252,853.60308331891,1032.95409169886,703.717843984329,1006.29933356561,450.114760665419,773.345241866748,346.39691668109,567.045908301137,496.282156015671,593.700666434388,749.885239334581,5,0,6,4,5,3,vertical,vertical,vertical,vertical,vertical,horizontal
1a,24,100193,3,37,165,18,F,NA,variable,heterogeneous,6,absent,1.05172491073608,1,vertical,vertical,1,0.823528067270915,red,2,NaN,1053.60308331891,626.654758133252,NaN,NaN,903.717843984329,832.954091698863,1053.60308331891,626.654758133252,949.885239334581,393.700666434388,696.282156015671,367.045908301137,546.39691668109,573.345241866748,650.114760665419,806.299333565612,0,4,6,5,3,3,horizontal,vertical,vertical,vertical,horizontal,vertical
1a,24,100193,3,38,166,18,F,NA,variable,heterogeneous,6,absent,1.54029893875122,1,vertical,vertical,1,0.964703688705177,green,4,NaN,927.5,379.163522034968,NaN,NaN,672.5,820.836477965032,927.5,820.836477965032,1055,600,927.5,379.163522034968,672.5,379.163522034968,545,600,6,3,5,4,5,3,horizontal,horizontal,vertical,vertical,vertical,horizontal
1a,24,100193,3,39,167,18,F,NA,variable,heterogeneous,4,present,0.757667064666748,1,vertical,vertical,1,0.717646351195218,red,3,2,688.215357568785,370.807518193712,1029.19248180629,488.215357568785,911.784642431215,829.192481806288,1029.19248180629,488.215357568785,688.215357568785,370.807518193712,570.807518193712,711.784642431215,0,0,0,0,5,0,4,6,NaN,NaN,horizontal,vertical,vertical,horizontal,none,none
1a,24,100193,3,40,168,18,F,NA,variable,heterogeneous,4,absent,1.10599708557129,0,horizontal,vertical,1,0.647058540478087,red,1,NaN,973.909581815937,786.495193912888,NaN,NaN,973.909581815937,786.495193912888,986.495193912888,426.090418184063,626.090418184063,413.504806087112,613.504806087112,773.909581815937,0,0,0,0,4,5,3,3,NaN,NaN,horizontal,horizontal,horizontal,horizontal,none,none
1a,24,100193,3,41,169,18,F,NA,variable,heterogeneous,5,absent,1.1103401184082,0,horizontal,vertical,1,0.894115877988046,red,3,NaN,911.784642431215,370.807518193712,NaN,NaN,844.280285305067,851.125977018113,1052.5183575291,635.489140744817,911.784642431215,370.807518193712,616.568350913644,422.862115532956,574.848363820974,719.715248510402,0,0,5,0,4,6,3,NaN,vertical,vertical,horizontal,vertical,vertical,none
1a,24,100193,3,42,170,18,F,NA,variable,heterogeneous,4,present,1.16183114051819,1,horizontal,horizontal,1,0.670587810717131,red,4,3,604.658667004661,763.910840470068,636.089159529932,404.658667004661,963.910840470068,795.341332995339,995.341332995339,436.089159529932,636.089159529932,404.658667004661,604.658667004661,763.910840470068,0,0,0,0,0,6,3,4,NaN,NaN,vertical,vertical,horizontal,horizontal,none,none
1a,24,100193,3,43,171,18,F,NA,variable,heterogeneous,4,present,0.765302896499634,1,horizontal,horizontal,1,0.799998797031871,green,1,3,919.715248510402,825.151636179026,680.284751489598,374.848363820974,919.715248510402,825.151636179026,1025.15163617903,480.284751489598,680.284751489598,374.848363820974,574.848363820974,719.715248510402,0,0,0,0,4,6,0,6,NaN,NaN,horizontal,horizontal,horizontal,vertical,none,none
1a,24,100193,3,44,172,18,F,NA,variable,heterogeneous,3,absent,0.777561902999878,1,horizontal,horizontal,1,0.635293905358565,red,2,NaN,808.899371659138,345.155339110131,NaN,NaN,1016.25226451989,735.129412379467,808.899371659138,345.155339110131,574.848363820974,719.715248510402,0,0,0,0,0,0,6,4,5,NaN,NaN,NaN,vertical,horizontal,horizontal,none,none,none
1a,24,100193,3,45,173,18,F,NA,variable,heterogeneous,5,present,0.822718858718872,1,vertical,vertical,1,0.670587810717131,red,3,4,822.224714400653,345.970351986605,565.271262369628,500.363562235235,931.334709102064,818.577661679039,1048.46436652023,542.637481142314,822.224714400653,345.970351986605,565.271262369628,500.363562235235,632.704947607421,792.450942956807,0,0,0,3,4,3,5,NaN,horizontal,horizontal,vertical,horizontal,horizontal,none
1a,24,100193,3,46,174,18,F,NA,variable,heterogeneous,6,absent,0.922571897506714,1,horizontal,horizontal,1,0.952939053585655,green,5,NaN,601.827779828472,439.523300282291,NaN,NaN,760.109211414741,851.86052685176,998.172220171528,760.476699717708,1038.06300875679,508.616172865948,839.890788585259,348.13947314824,601.827779828472,439.523300282291,561.936991243214,691.383827134052,5,0,6,0,4,3,vertical,vertical,vertical,horizontal,horizontal,vertical
1a,24,100193,3,47,175,18,F,NA,variable,heterogeneous,5,present,0.989905834197998,1,horizontal,horizontal,1,1.03529149942231,green,4,1,688.215357568785,370.807518193712,755.719714694933,851.125977018113,755.719714694933,851.125977018113,1025.15163617903,719.715248510402,983.431649086356,422.862115532956,688.215357568785,370.807518193712,547.481642470899,635.489140744817,0,0,5,3,0,4,3,NaN,horizontal,horizontal,vertical,horizontal,vertical,none
1a,24,100193,3,48,176,18,F,NA,variable,heterogeneous,5,present,1.05921196937561,1,vertical,vertical,1,1.05882076966135,red,4,1,676.373546837184,376.971974679454,768.923317431687,853.099268668537,768.923317431687,853.099268668537,1031.10848569435,707.767656743878,973.909581815937,413.504806087112,676.373546837184,376.971974679454,549.685068220846,648.656293821019,0,0,5,0,3,4,3,NaN,vertical,horizontal,horizontal,vertical,vertical,none
1a,24,100193,3,49,177,18,F,NA,variable,heterogeneous,6,present,1.3584291934967,0,horizontal,vertical,1,1.09411467501992,red,3,6,1047.42541020038,538.309916622085,552.574589799621,661.690083377915,729.712474266665,845.121732464271,977.137884467044,783.431649086356,1047.42541020038,538.309916622085,870.287525733335,354.878267535729,622.862115532956,416.568350913644,552.574589799621,661.690083377915,5,6,4,6,0,3,horizontal,horizontal,horizontal,horizontal,vertical,horizontal
1a,24,100193,3,50,178,18,F,NA,variable,heterogeneous,3,absent,1.26905417442322,1,vertical,vertical,1,0.964703688705177,red,1,NaN,1003.65205506206,753.462830903772,NaN,NaN,1003.65205506206,753.462830903772,831.076682568313,346.900731331463,565.271262369628,699.636437764765,0,0,0,0,0,0,4,6,0,NaN,NaN,NaN,vertical,vertical,vertical,none,none,none
1a,24,100193,3,51,179,18,F,NA,variable,heterogeneous,5,absent,1.30531907081604,1,vertical,vertical,1,0.741175621434262,red,5,NaN,570.807518193712,711.784642431215,NaN,NaN,835.489140744817,852.518357529101,1051.12597701811,644.280285305067,919.715248510402,374.848363820974,622.862115532956,416.568350913644,570.807518193712,711.784642431215,0,0,6,0,3,6,4,NaN,vertical,horizontal,vertical,horizontal,vertical,none
1a,24,100193,3,52,180,18,F,NA,variable,heterogeneous,4,absent,1.06872701644897,1,vertical,vertical,1,0.647058540478087,red,4,NaN,588.595418998464,457.40580961496,NaN,NaN,657.405809614959,811.404581001536,1011.40458100154,742.594190385041,942.594190385041,388.595418998464,588.595418998464,457.40580961496,0,0,0,0,3,6,5,4,NaN,NaN,vertical,vertical,vertical,vertical,none,none
1a,24,100193,3,53,181,18,F,NA,variable,heterogeneous,3,present,1.50545001029968,1,horizontal,horizontal,1,0.764704891673306,green,3,1,657.405809614959,388.595418998464,688.215357568785,829.192481806288,688.215357568785,829.192481806288,1054.37883281626,582.212099195248,657.405809614959,388.595418998464,0,0,0,0,0,0,3,3,4,NaN,NaN,NaN,horizontal,horizontal,horizontal,none,none,none
1a,24,100193,3,54,182,18,F,NA,variable,heterogeneous,6,present,1.34029006958008,0,vertical,horizontal,1,0.823528067270915,red,4,6,708.616172865948,361.936991243214,639.523300282292,798.172220171528,891.383827134052,838.063008756786,1051.86052685176,639.890788585259,960.476699717708,401.827779828472,708.616172865948,361.936991243214,548.13947314824,560.109211414741,639.523300282292,798.172220171528,0,0,6,4,5,3,vertical,horizontal,horizontal,vertical,vertical,horizontal
1a,24,100193,3,55,183,18,F,NA,variable,heterogeneous,3,absent,1.23101806640625,1,horizontal,horizontal,1,0.788234161912349,green,2,NaN,808.899371659138,345.155339110131,NaN,NaN,1016.25226451989,735.129412379467,808.899371659138,345.155339110131,574.848363820974,719.715248510402,0,0,0,0,0,0,6,4,5,NaN,NaN,NaN,horizontal,horizontal,vertical,none,none,none
1a,24,100193,3,56,184,18,F,NA,variable,heterogeneous,3,absent,1.21194791793823,0,vertical,horizontal,1,0.799998797031871,green,1,NaN,734.001143498857,846.311085703712,NaN,NaN,734.001143498857,846.311085703712,1046.31108570371,534.001143498857,619.68777079743,419.68777079743,0,0,0,0,0,0,4,5,5,NaN,NaN,NaN,vertical,vertical,vertical,none,none,none
1a,24,100193,3,57,185,18,F,NA,variable,heterogeneous,6,absent,1.26602697372437,1,vertical,vertical,1,0.882351242868524,green,1,NaN,839.890788585259,851.86052685176,NaN,NaN,839.890788585259,851.86052685176,1038.06300875679,691.383827134052,998.172220171528,439.523300282291,760.109211414741,348.13947314824,561.936991243214,508.616172865948,601.827779828472,760.476699717708,4,0,0,6,3,5,vertical,horizontal,horizontal,horizontal,vertical,horizontal
1a,24,100193,3,58,186,18,F,NA,variable,heterogeneous,6,absent,1.1338369846344,0,horizontal,vertical,1,0.717646351195218,red,6,NaN,643.006323791957,800.942742169714,NaN,NaN,895.524681321058,836.431882914531,1052.5183575291,635.489140744817,956.993676208043,399.057257830286,704.475318678942,363.568117085469,547.481642470899,564.510859255183,643.006323791957,800.942742169714,0,5,6,0,3,4,horizontal,horizontal,vertical,horizontal,vertical,horizontal
1a,24,100193,3,59,187,18,F,NA,variable,heterogeneous,5,absent,1.01782011985779,1,horizontal,horizontal,1,0.847057337509958,green,1,NaN,795.549636358493,854.96116226488,NaN,NaN,795.549636358493,854.96116226488,1041.10723677783,683.019879386575,953.462830903772,396.34794493794,653.738008730483,391.116228706307,556.142287229426,674.554784704298,0,0,4,5,0,3,3,NaN,horizontal,vertical,vertical,horizontal,horizontal,none
1a,24,100193,3,60,188,18,F,NA,variable,heterogeneous,5,absent,1.09903883934021,0,vertical,horizontal,1,0.847057337509958,green,2,NaN,1023.02802532055,723.626453162816,NaN,NaN,751.343706178981,850.314931779154,1023.02802532055,723.626453162816,986.495193912888,426.090418184063,692.232343256122,368.891514305654,546.900731331463,631.076682568313,0,0,6,4,0,3,0,NaN,vertical,vertical,vertical,horizontal,vertical,none
1a,24,100193,3,61,189,18,F,NA,variable,heterogeneous,3,absent,0.817400932312012,1,horizontal,horizontal,1,0.999997594063742,red,1,NaN,949.885239334581,806.299333565612,NaN,NaN,949.885239334581,806.299333565612,903.717843984329,367.045908301137,546.39691668109,626.654758133252,0,0,0,0,0,0,4,6,6,NaN,NaN,NaN,horizontal,horizontal,vertical,none,none,none
1a,24,100193,3,62,190,18,F,NA,variable,heterogeneous,3,present,0.825915098190308,0,vertical,horizontal,1,0.799998797031871,red,1,3,844.280285305067,851.125977018113,560.378381699593,512.784863451954,844.280285305067,851.125977018113,995.341332995339,436.089159529932,560.378381699593,512.784863451954,0,0,0,0,0,0,4,6,3,NaN,NaN,NaN,vertical,vertical,horizontal,none,none,none
1a,24,100193,3,63,191,18,F,NA,variable,heterogeneous,4,absent,0.673637866973877,1,vertical,vertical,1,0.964703688705177,green,1,NaN,931.334709102064,818.577661679039,NaN,NaN,931.334709102064,818.577661679039,1018.57766167904,468.665290897936,668.665290897936,381.422338320961,581.422338320961,731.334709102064,0,0,0,0,4,0,6,0,NaN,NaN,vertical,vertical,horizontal,horizontal,none,none
1a,24,100193,3,64,192,18,F,NA,variable,heterogeneous,4,present,0.684308052062988,0,horizontal,vertical,1,1.03529149942231,red,2,3,1029.19248180629,711.784642431215,911.784642431215,370.807518193712,688.215357568785,829.192481806288,1029.19248180629,711.784642431215,911.784642431215,370.807518193712,570.807518193712,488.215357568785,0,0,0,0,3,4,0,5,NaN,NaN,horizontal,horizontal,vertical,vertical,none,none
1a,24,100193,4,1,193,18,F,NA,variable,heterogeneous,5,absent,1.45387506484985,1,horizontal,horizontal,1,0.85882197262948,red,2,NaN,1008.88377129369,746.261991269517,NaN,NaN,725.445215295702,843.857712770574,1008.88377129369,746.261991269517,1003.65205506206,446.537169096228,716.980120613425,358.892763222174,545.03883773512,604.450363641507,0,0,3,4,6,5,0,NaN,vertical,horizontal,horizontal,vertical,vertical,none
1a,24,100193,4,2,194,18,F,NA,variable,heterogeneous,3,absent,1.24471187591553,0,horizontal,vertical,1,0.894115877988046,green,3,NaN,596.34794493794,446.537169096228,NaN,NaN,768.923317431687,853.099268668537,1034.72873763037,500.363562235235,596.34794493794,446.537169096228,0,0,0,0,0,0,3,6,4,NaN,NaN,NaN,vertical,vertical,horizontal,none,none,none
1a,24,100193,4,3,195,18,F,NA,variable,heterogeneous,3,absent,0.767561912536621,1,vertical,vertical,1,0.894115877988046,green,1,NaN,657.405809614959,811.404581001536,NaN,NaN,657.405809614959,811.404581001536,1054.37883281626,617.787900804752,688.215357568785,370.807518193712,0,0,0,0,0,0,4,6,0,NaN,NaN,NaN,vertical,horizontal,vertical,none,none,none
1a,24,100193,4,4,196,18,F,NA,variable,heterogeneous,3,present,0.813068151473999,1,vertical,vertical,1,0.905880513107568,red,1,3,915.767577433584,827.206663668034,545.349468637584,586.654331158049,915.767577433584,827.206663668034,938.882953928832,386.139005173917,545.349468637584,586.654331158049,0,0,0,0,0,0,4,0,5,NaN,NaN,NaN,vertical,vertical,vertical,none,none,none
1a,24,100193,4,5,197,18,F,NA,variable,heterogeneous,3,absent,1.10124707221985,1,horizontal,horizontal,1,0.776469526792827,green,1,NaN,629.371695378491,789.501930496736,NaN,NaN,629.371695378491,789.501930496736,1049.42763818712,653.017481158529,721.200666434388,357.480588344736,0,0,0,0,0,0,4,0,6,NaN,NaN,NaN,horizontal,vertical,vertical,none,none,none
1a,24,100193,4,6,198,18,F,NA,variable,heterogeneous,6,absent,0.816586017608643,1,horizontal,horizontal,1,0.85882197262948,red,2,NaN,1003.65205506206,753.462830903772,NaN,NaN,768.923317431687,853.099268668537,1003.65205506206,753.462830903772,1034.72873763037,500.363562235235,831.076682568313,346.900731331463,596.34794493794,446.537169096228,565.271262369628,699.636437764765,5,4,3,3,0,5,horizontal,horizontal,vertical,horizontal,vertical,horizontal
1a,24,100193,4,7,199,18,F,NA,variable,heterogeneous,5,present,1.00111413002014,1,horizontal,horizontal,1,0.799998797031871,green,4,5,684.232422566416,372.793336331966,548.13947314824,639.890788585259,760.109211414741,851.86052685176,1027.20666366803,715.767577433584,980.31222920257,419.68777079743,684.232422566416,372.793336331966,548.13947314824,639.890788585259,0,0,5,6,5,4,6,NaN,vertical,vertical,vertical,horizontal,vertical,none
1a,24,100193,4,8,200,18,F,NA,variable,heterogeneous,4,absent,0.799253225326538,1,horizontal,horizontal,1,1.09411467501992,green,3,NaN,777.775285599347,345.970351986605,NaN,NaN,822.224714400653,854.029648013395,1054.0296480134,577.775285599347,777.775285599347,345.970351986605,545.970351986605,622.224714400653,0,0,0,0,3,0,4,5,NaN,NaN,horizontal,horizontal,horizontal,vertical,none,none
1a,24,100193,4,9,201,18,F,NA,variable,heterogeneous,3,absent,0.813529014587402,1,horizontal,horizontal,1,1.09411467501992,red,1,NaN,716.980120613425,841.107236777826,NaN,NaN,716.980120613425,841.107236777826,1050.31493177915,551.343706178981,632.704947607421,407.549057043193,0,0,0,0,0,0,4,6,0,NaN,NaN,NaN,horizontal,vertical,vertical,none,none,none
1a,24,100193,4,10,202,18,F,NA,variable,heterogeneous,6,present,0.962692975997925,1,vertical,vertical,1,0.835292702390437,red,1,4,786.654331158049,854.650531362416,813.345668841951,345.349468637584,786.654331158049,854.650531362416,1013.86099482608,738.882953928832,1027.20666366803,484.232422566416,813.345668841951,345.349468637584,586.139005173917,461.117046071168,572.793336331966,715.767577433584,4,6,0,0,3,6,vertical,vertical,horizontal,vertical,vertical,horizontal
1a,24,100193,4,11,203,18,F,NA,variable,heterogeneous,5,absent,1.93681287765503,0,horizontal,vertical,1,0.941174418466133,green,3,NaN,1000.94274216971,443.006323791957,NaN,NaN,729.712474266665,845.121732464271,1011.40458100154,742.594190385041,1000.94274216971,443.006323791957,712.784863451954,360.378381699593,545.155339110131,608.899371659138,0,0,3,6,4,5,0,NaN,horizontal,vertical,horizontal,horizontal,horizontal,none
1a,24,100193,4,12,204,18,F,NA,variable,heterogeneous,6,absent,0.809339046478271,1,vertical,vertical,1,0.882351242868524,red,4,NaN,742.637481142314,351.535633479765,NaN,NaN,857.362518857686,848.464366520235,1043.85771277057,674.554784704298,986.495193912888,426.090418184063,742.637481142314,351.535633479765,556.142287229426,525.445215295702,613.504806087112,773.909581815937,6,5,6,4,0,3,horizontal,vertical,vertical,vertical,horizontal,horizontal
1a,24,100193,4,13,205,18,F,NA,variable,heterogeneous,5,absent,1.14575505256653,0,vertical,horizontal,1,0.611764635119522,green,3,NaN,1016.25226451989,464.870587620533,NaN,NaN,704.475318678942,836.431882914531,995.341332995339,763.910840470068,1016.25226451989,464.870587620533,738.309916622085,352.574589799621,545.621167183745,582.212099195248,0,0,6,5,4,0,3,NaN,vertical,vertical,vertical,horizontal,vertical,none
1a,24,100193,4,14,206,18,F,NA,variable,heterogeneous,4,present,0.982051134109497,1,vertical,vertical,1,0.658823175597609,green,1,2,973.909581815937,786.495193912888,986.495193912888,426.090418184063,973.909581815937,786.495193912888,986.495193912888,426.090418184063,626.090418184063,413.504806087112,613.504806087112,773.909581815937,0,0,0,0,4,3,6,5,NaN,NaN,vertical,horizontal,horizontal,horizontal,none,none
1a,24,100193,4,15,207,18,F,NA,variable,heterogeneous,5,absent,0.583051204681396,1,vertical,vertical,1,1.05882076966135,green,4,NaN,700.363562235235,365.271262369628,NaN,NaN,742.637481142314,848.464366520235,1018.57766167904,731.334709102064,992.450942956807,432.704947607421,700.363562235235,365.271262369628,545.970351986605,622.224714400653,0,0,3,0,3,4,6,NaN,horizontal,vertical,horizontal,vertical,horizontal,none
1a,24,100193,4,16,208,18,F,NA,variable,heterogeneous,3,present,0.790128946304321,0,horizontal,vertical,1,0.964703688705177,red,2,3,883.019879386575,358.892763222174,549.685068220846,648.656293821019,967.295052392579,792.450942956807,883.019879386575,358.892763222174,549.685068220846,648.656293821019,0,0,0,0,0,0,5,4,0,NaN,NaN,NaN,vertical,horizontal,horizontal,none,none,none
1a,24,100193,4,17,209,18,F,NA,variable,heterogeneous,4,present,1.45464897155762,1,horizontal,horizontal,1,0.823528067270915,red,2,1,1054.84466088987,591.100628340862,808.899371659138,854.844660889869,808.899371659138,854.844660889869,1054.84466088987,591.100628340862,791.100628340862,345.155339110131,545.155339110131,608.899371659138,0,0,0,0,5,4,6,5,NaN,NaN,horizontal,horizontal,horizontal,vertical,none,none
1a,24,100193,4,18,210,18,F,NA,variable,heterogeneous,3,present,0.913694143295288,1,horizontal,horizontal,1,0.682352445836653,red,1,2,676.373546837184,823.028025320546,1054.96116226488,595.549636358493,676.373546837184,823.028025320546,1054.96116226488,595.549636358493,668.665290897936,381.422338320961,0,0,0,0,0,0,4,6,5,NaN,NaN,NaN,horizontal,vertical,horizontal,none,none,none
1a,24,100193,4,19,211,18,F,NA,variable,heterogeneous,5,present,1.05653619766235,1,horizontal,horizontal,1,1.03529149942231,red,2,1,1051.86052685176,560.109211414741,915.767577433584,827.206663668034,915.767577433584,827.206663668034,1051.86052685176,560.109211414741,839.890788585259,348.13947314824,572.793336331966,484.232422566416,619.68777079743,780.31222920257,0,0,3,4,5,0,6,NaN,vertical,horizontal,horizontal,vertical,horizontal,none
1a,24,100193,4,20,212,18,F,NA,variable,heterogeneous,6,absent,1.05377507209778,1,vertical,vertical,1,0.799998797031871,red,6,NaN,553.688914296288,665.998856501143,NaN,NaN,734.001143498857,846.311085703712,980.31222920257,780.31222920257,1046.31108570371,534.001143498857,865.998856501143,353.688914296288,619.68777079743,419.68777079743,553.688914296288,665.998856501143,0,5,0,6,3,4,horizontal,vertical,vertical,horizontal,vertical,vertical
1a,24,100193,4,21,213,18,F,NA,variable,heterogeneous,5,present,0.799518823623657,0,horizontal,vertical,1,0.635293905358565,red,5,4,552.574589799621,661.690083377915,664.870587620533,383.747735480111,782.212099195248,854.378832816255,1036.43188291453,695.524681321058,963.910840470068,404.658667004661,664.870587620533,383.747735480111,552.574589799621,661.690083377915,0,0,6,0,6,5,4,NaN,vertical,horizontal,vertical,vertical,horizontal,none
1a,24,100193,4,22,214,18,F,NA,variable,heterogeneous,3,present,1.00143122673035,1,vertical,vertical,1,0.85882197262948,red,2,1,1034.72873763037,500.363562235235,768.923317431687,853.099268668537,768.923317431687,853.099268668537,1034.72873763037,500.363562235235,596.34794493794,446.537169096228,0,0,0,0,0,0,5,4,0,NaN,NaN,NaN,horizontal,vertical,vertical,none,none,none
1a,24,100193,4,23,215,18,F,NA,variable,heterogeneous,6,present,1.20257496833801,1,vertical,vertical,1,1.05882076966135,red,6,4,549.685068220846,648.656293821019,883.019879386575,358.892763222174,716.980120613425,841.107236777826,967.295052392579,792.450942956807,1050.31493177915,551.343706178981,883.019879386575,358.892763222174,632.704947607421,407.549057043193,549.685068220846,648.656293821019,6,6,0,3,0,4,vertical,horizontal,horizontal,vertical,vertical,vertical
1a,24,100193,4,24,216,18,F,NA,variable,heterogeneous,5,absent,1.37292408943176,1,horizontal,horizontal,1,0.905880513107568,green,4,NaN,591.116228706307,453.738008730483,NaN,NaN,883.019879386575,841.107236777826,1054.96116226488,595.549636358493,874.554784704298,356.142287229426,591.116228706307,453.738008730483,596.34794493794,753.462830903772,0,0,6,6,5,4,3,NaN,horizontal,horizontal,vertical,horizontal,vertical,none
1a,24,100193,4,25,217,18,F,NA,variable,heterogeneous,4,absent,1.6331729888916,1,vertical,vertical,1,0.635293905358565,green,1,NaN,903.717843984329,832.954091698863,NaN,NaN,903.717843984329,832.954091698863,1032.95409169886,496.282156015671,696.282156015671,367.045908301137,567.045908301137,703.717843984329,0,0,0,0,4,5,6,3,NaN,NaN,vertical,vertical,horizontal,horizontal,none,none
1a,24,100193,4,26,218,18,F,NA,variable,heterogeneous,4,absent,1.48094296455383,1,vertical,vertical,1,0.741175621434262,green,1,NaN,831.076682568313,853.099268668537,NaN,NaN,831.076682568313,853.099268668537,1053.09926866854,568.923317431687,768.923317431687,346.900731331463,546.900731331463,631.076682568313,0,0,0,0,4,3,6,3,NaN,NaN,vertical,vertical,horizontal,horizontal,none,none
1a,24,100193,4,27,219,18,F,NA,variable,heterogeneous,5,present,0.931132078170776,1,vertical,vertical,1,1.02352686430279,green,4,2,716.980120613425,358.892763222174,1008.88377129369,746.261991269517,725.445215295702,843.857712770574,1008.88377129369,746.261991269517,1003.65205506206,446.537169096228,716.980120613425,358.892763222174,545.03883773512,604.450363641507,0,0,3,6,5,4,3,NaN,vertical,horizontal,horizontal,vertical,horizontal,none
1a,24,100193,4,28,220,18,F,NA,variable,heterogeneous,5,absent,1.15712285041809,1,vertical,vertical,1,0.752940256553784,red,2,NaN,980.31222920257,780.31222920257,NaN,NaN,684.232422566416,827.206663668034,980.31222920257,780.31222920257,1027.20666366803,484.232422566416,760.109211414741,348.13947314824,548.13947314824,560.109211414741,0,0,3,4,5,5,6,NaN,horizontal,vertical,vertical,vertical,vertical,none
1a,24,100193,4,29,221,18,F,NA,variable,heterogeneous,3,present,1.13183689117432,1,vertical,vertical,1,0.764704891673306,green,1,2,755.719714694933,851.125977018113,1039.62161830041,512.784863451954,755.719714694933,851.125977018113,1039.62161830041,512.784863451954,604.658667004661,436.089159529932,0,0,0,0,0,0,4,0,5,NaN,NaN,NaN,vertical,vertical,vertical,none,none,none
1a,24,100193,4,30,222,18,F,NA,variable,heterogeneous,6,present,1.34871411323547,1,vertical,vertical,1,0.705881716075696,green,5,6,548.13947314824,560.109211414741,639.523300282292,798.172220171528,891.383827134052,838.063008756786,1051.86052685176,639.890788585259,960.476699717708,401.827779828472,708.616172865948,361.936991243214,548.13947314824,560.109211414741,639.523300282292,798.172220171528,3,5,0,0,4,6,vertical,vertical,horizontal,vertical,vertical,horizontal
1a,24,100193,4,31,223,18,F,NA,variable,heterogeneous,6,absent,1.0675802230835,1,vertical,vertical,1,0.976468323824699,green,4,NaN,795.549636358493,345.03883773512,NaN,NaN,804.450363641507,854.96116226488,1023.02802532055,723.626453162816,1018.57766167904,468.665290897936,795.549636358493,345.03883773512,576.971974679454,476.373546837184,581.422338320961,731.334709102064,6,3,5,4,0,5,vertical,vertical,vertical,vertical,vertical,vertical
1a,24,100193,4,32,224,18,F,NA,variable,heterogeneous,3,present,0.724790811538696,0,vertical,horizontal,1,0.999997594063742,green,3,2,574.848363820974,719.715248510402,808.899371659138,345.155339110131,1016.25226451989,735.129412379467,808.899371659138,345.155339110131,574.848363820974,719.715248510402,0,0,0,0,0,0,0,6,4,NaN,NaN,NaN,vertical,horizontal,vertical,none,none,none
1a,24,100193,4,33,225,18,F,NA,variable,heterogeneous,4,absent,1.04560899734497,1,vertical,vertical,1,0.917645148227089,red,4,NaN,579.163522034968,727.5,NaN,NaN,927.5,820.836477965032,1020.83647796503,472.5,672.5,379.163522034968,579.163522034968,727.5,0,0,0,0,3,5,0,4,NaN,NaN,vertical,vertical,vertical,vertical,none,none
1a,24,100193,4,34,226,18,F,NA,variable,heterogeneous,3,absent,1.27637314796448,1,horizontal,horizontal,1,0.882351242868524,red,3,NaN,629.371695378491,410.498069503264,NaN,NaN,721.200666434388,842.519411655264,1049.42763818712,546.982518841471,629.371695378491,410.498069503264,0,0,0,0,0,0,3,0,4,NaN,NaN,NaN,vertical,vertical,horizontal,none,none,none
1a,24,100193,4,35,227,18,F,NA,variable,heterogeneous,3,absent,1.09945297241211,1,vertical,vertical,1,0.670587810717131,green,1,NaN,664.870587620533,816.252264519889,NaN,NaN,664.870587620533,816.252264519889,1054.84466088987,608.899371659138,680.284751489598,374.848363820974,0,0,0,0,0,0,4,6,0,NaN,NaN,NaN,vertical,vertical,vertical,none,none,none
1a,24,100193,4,36,228,18,F,NA,variable,heterogeneous,6,present,1.48200798034668,1,vertical,vertical,1,1.02352686430279,green,3,6,956.993676208043,399.057257830286,643.006323791957,800.942742169714,895.524681321058,836.431882914531,1052.5183575291,635.489140744817,956.993676208043,399.057257830286,704.475318678942,363.568117085469,547.481642470899,564.510859255183,643.006323791957,800.942742169714,6,0,4,3,5,0,vertical,horizontal,vertical,horizontal,vertical,horizontal
1a,24,100193,4,37,229,18,F,NA,variable,heterogeneous,4,present,1.65575480461121,0,horizontal,vertical,1,0.98823295894422,green,1,3,692.232343256122,831.108485694346,907.767656743878,368.891514305654,692.232343256122,831.108485694346,1031.10848569435,707.767656743878,907.767656743878,368.891514305654,568.891514305654,492.232343256122,0,0,0,0,4,3,3,0,NaN,NaN,horizontal,horizontal,vertical,horizontal,none,none
1a,24,100193,4,38,230,18,F,NA,variable,heterogeneous,6,absent,1.18701696395874,1,vertical,vertical,1,0.905880513107568,green,3,NaN,949.885239334581,393.700666434388,NaN,NaN,903.717843984329,832.954091698863,1053.60308331891,626.654758133252,949.885239334581,393.700666434388,696.282156015671,367.045908301137,546.39691668109,573.345241866748,650.114760665419,806.299333565612,6,0,4,3,0,6,vertical,vertical,vertical,vertical,vertical,vertical
1a,24,100193,4,39,231,18,F,NA,variable,heterogeneous,4,present,1.01486611366272,1,vertical,vertical,1,0.98823295894422,red,1,3,831.076682568313,853.099268668537,768.923317431687,346.900731331463,831.076682568313,853.099268668537,1053.09926866854,568.923317431687,768.923317431687,346.900731331463,546.900731331463,631.076682568313,0,0,0,0,4,5,0,3,NaN,NaN,vertical,horizontal,horizontal,vertical,none,none
1a,24,100193,4,40,232,18,F,NA,variable,heterogeneous,5,present,0.969292879104614,1,vertical,vertical,1,0.894115877988046,red,3,1,808.899371659138,345.155339110131,942.594190385041,811.404581001536,942.594190385041,811.404581001536,1045.12173246427,529.712474266665,808.899371659138,345.155339110131,560.378381699593,512.784863451954,643.006323791957,800.942742169714,0,0,6,3,4,5,0,NaN,vertical,vertical,vertical,horizontal,vertical,none
1a,24,100193,4,41,233,18,F,NA,variable,heterogeneous,4,present,1.45159697532654,1,horizontal,horizontal,1,0.941174418466133,red,2,1,998.172220171528,760.476699717708,639.523300282292,798.172220171528,639.523300282292,798.172220171528,998.172220171528,760.476699717708,960.476699717708,401.827779828472,601.827779828472,439.523300282291,0,0,0,0,5,4,6,0,NaN,NaN,vertical,horizontal,vertical,horizontal,none,none
1a,24,100193,4,42,234,18,F,NA,variable,heterogeneous,4,present,1.18254208564758,0,vertical,horizontal,1,1.08235003990039,red,3,2,839.890788585259,348.13947314824,1051.86052685176,639.890788585259,760.109211414741,851.86052685176,1051.86052685176,639.890788585259,839.890788585259,348.13947314824,548.13947314824,560.109211414741,0,0,0,0,5,6,4,3,NaN,NaN,horizontal,horizontal,vertical,vertical,none,none
1a,24,100193,4,43,235,18,F,NA,variable,heterogeneous,3,present,1.06681704521179,1,horizontal,horizontal,1,1.02352686430279,green,1,3,751.343706178981,850.314931779154,607.549057043193,432.704947607421,751.343706178981,850.314931779154,1041.10723677783,516.980120613425,607.549057043193,432.704947607421,0,0,0,0,0,0,4,3,6,NaN,NaN,NaN,horizontal,vertical,horizontal,none,none,none
1a,24,100193,4,44,236,18,F,NA,variable,heterogeneous,5,absent,1.35758495330811,0,vertical,horizontal,1,1.07058540478087,red,2,NaN,1054.96116226488,595.549636358493,NaN,NaN,883.019879386575,841.107236777826,1054.96116226488,595.549636358493,874.554784704298,356.142287229426,591.116228706307,453.738008730483,596.34794493794,753.462830903772,0,0,3,4,3,6,5,NaN,horizontal,vertical,horizontal,vertical,vertical,none
1a,24,100193,4,45,237,18,F,NA,variable,heterogeneous,4,absent,1.1393141746521,0,horizontal,vertical,1,0.917645148227089,red,1,NaN,643.006323791957,800.942742169714,NaN,NaN,643.006323791957,800.942742169714,1000.94274216971,756.993676208043,956.993676208043,399.057257830286,599.057257830286,443.006323791957,0,0,0,0,4,3,6,5,NaN,NaN,horizontal,horizontal,vertical,vertical,none,none
1a,24,100193,4,46,238,18,F,NA,variable,heterogeneous,5,present,1.13482904434204,1,vertical,vertical,1,0.623529270239044,red,5,1,548.13947314824,639.890788585259,760.109211414741,851.86052685176,760.109211414741,851.86052685176,1027.20666366803,715.767577433584,980.31222920257,419.68777079743,684.232422566416,372.793336331966,548.13947314824,639.890788585259,0,0,3,0,5,0,4,NaN,horizontal,horizontal,vertical,vertical,vertical,none
1a,24,100193,4,47,239,18,F,NA,variable,heterogeneous,4,absent,1.01126503944397,0,horizontal,vertical,1,1.09411467501992,red,3,NaN,716.980120613425,358.892763222174,NaN,NaN,883.019879386575,841.107236777826,1041.10723677783,516.980120613425,716.980120613425,358.892763222174,558.892763222174,683.019879386575,0,0,0,0,6,6,4,5,NaN,NaN,vertical,horizontal,horizontal,horizontal,none,none
1a,24,100193,4,48,240,18,F,NA,variable,heterogeneous,3,absent,0.921489000320435,1,vertical,vertical,1,0.682352445836653,red,1,NaN,861.690083377915,847.425410200379,NaN,NaN,861.690083377915,847.425410200379,983.431649086356,422.862115532956,554.878267535729,529.712474266665,0,0,0,0,0,0,4,3,5,NaN,NaN,NaN,vertical,vertical,horizontal,none,none,none
1a,24,100193,4,49,241,18,F,NA,variable,heterogeneous,4,absent,0.773256063461304,1,vertical,vertical,1,1.05882076966135,red,1,NaN,831.076682568313,853.099268668537,NaN,NaN,831.076682568313,853.099268668537,1053.09926866854,568.923317431687,768.923317431687,346.900731331463,546.900731331463,631.076682568313,0,0,0,0,4,5,0,5,NaN,NaN,vertical,vertical,horizontal,vertical,none,none
1a,24,100193,4,50,242,18,F,NA,variable,heterogeneous,3,absent,1.37765383720398,1,vertical,vertical,1,1.03529149942231,red,3,NaN,560.378381699593,687.215136548046,NaN,NaN,995.341332995339,763.910840470068,844.280285305067,348.874022981887,560.378381699593,687.215136548046,0,0,0,0,0,0,6,0,4,NaN,NaN,NaN,horizontal,horizontal,vertical,none,none,none
1a,24,100193,4,51,243,18,F,NA,variable,heterogeneous,6,absent,1.32188105583191,1,horizontal,horizontal,1,1.03529149942231,green,6,NaN,616.568350913644,777.137884467044,NaN,NaN,861.690083377915,847.425410200379,1045.12173246427,670.287525733335,983.431649086356,422.862115532956,738.309916622085,352.574589799621,554.878267535729,529.712474266665,616.568350913644,777.137884467044,6,6,0,5,3,4,vertical,horizontal,horizontal,vertical,vertical,horizontal
1a,24,100193,4,52,244,18,F,NA,variable,heterogeneous,5,absent,1.35004591941833,1,horizontal,horizontal,1,0.658823175597609,red,5,NaN,545.970351986605,622.224714400653,NaN,NaN,742.637481142314,848.464366520235,1018.57766167904,731.334709102064,992.450942956807,432.704947607421,700.363562235235,365.271262369628,545.970351986605,622.224714400653,0,0,3,6,5,3,4,NaN,vertical,vertical,vertical,vertical,horizontal,none
1a,24,100193,4,53,245,18,F,NA,variable,heterogeneous,3,present,1.02526998519897,1,horizontal,horizontal,1,0.811763432151393,green,3,1,561.936991243214,691.383827134052,998.172220171528,760.476699717708,998.172220171528,760.476699717708,839.890788585259,348.13947314824,561.936991243214,691.383827134052,0,0,0,0,0,0,5,0,4,NaN,NaN,NaN,horizontal,horizontal,horizontal,none,none,none
