experiment,subject,uniqueID,block,trial,trial_cumulative,age,gender,color_cond_blocking,color_history,shape_type,set_size,distractor,rt,acc,target_orient,response_key,response_made,iti,target_color,target_item,distractor_item,target_X,target_Y,distractor_X,distractor_Y,item1_X,item1_Y,item2_X,item2_Y,item3_X,item3_Y,item4_X,item4_Y,item5_X,item5_Y,item6_X,item6_Y,item1_shape,item2_shape,item3_shape,item4_shape,item5_shape,item6_shape,item1_line,item2_line,item3_line,item4_line,item5_line,item6_line
1a,2,100134,1,1,1,19,F,NA,variable,heterogeneous,3,present,NaN,0,horizontal,none,0,0.84705171585083,green,2,3,977.137884467044,416.568350913644,552.574589799621,538.309916622085,870.287525733335,845.121732464271,977.137884467044,416.568350913644,552.574589799621,538.309916622085,0,0,0,0,0,0,3,4,5,NaN,NaN,NaN,horizontal,horizontal,horizontal,none,none,none
1a,2,100134,1,2,2,19,F,NA,variable,heterogeneous,3,absent,1.07928395271301,1,vertical,vertical,1,1.07057469685872,green,3,NaN,738.309916622085,352.574589799621,NaN,NaN,616.568350913644,777.137884467044,1045.12173246427,670.287525733335,738.309916622085,352.574589799621,0,0,0,0,0,0,5,0,4,NaN,NaN,NaN,vertical,vertical,vertical,none,none,none
1a,2,100134,1,3,3,19,F,NA,variable,heterogeneous,3,absent,1.44880104064941,1,vertical,vertical,1,0.811758613586426,red,1,NaN,708.616172865948,838.063008756786,NaN,NaN,708.616172865948,838.063008756786,1051.86052685176,560.109211414741,639.523300282292,401.827779828472,0,0,0,0,0,0,4,6,0,NaN,NaN,NaN,vertical,vertical,vertical,none,none,none
1a,2,100134,1,4,4,19,F,NA,variable,heterogeneous,5,present,NaN,0,horizontal,none,0,0.799994246164958,green,1,4,848.656293821019,850.314931779154,613.504806087112,426.090418184063,848.656293821019,850.314931779154,1053.09926866854,631.076682568313,907.767656743878,368.891514305654,613.504806087112,426.090418184063,576.971974679454,723.626453162816,0,0,4,5,6,0,5,NaN,horizontal,vertical,horizontal,vertical,vertical,none
1a,2,100134,1,5,5,19,F,NA,variable,heterogeneous,5,absent,1.21478796005249,1,vertical,vertical,1,1.03528159459432,green,5,NaN,548.874022981887,644.280285305067,NaN,NaN,764.510859255183,852.518357529101,1029.19248180629,711.784642431215,977.137884467044,416.568350913644,680.284751489598,374.848363820974,548.874022981887,644.280285305067,0,0,0,3,5,3,4,NaN,horizontal,horizontal,horizontal,horizontal,vertical,none
1a,2,100134,1,6,6,19,F,NA,variable,heterogeneous,3,absent,1.15207409858704,0,horizontal,vertical,1,1.02351722717285,green,1,NaN,883.019879386575,841.107236777826,NaN,NaN,883.019879386575,841.107236777826,967.295052392579,407.549057043193,549.685068220846,551.343706178981,0,0,0,0,0,0,4,5,6,NaN,NaN,NaN,horizontal,horizontal,horizontal,none,none,none
1a,2,100134,1,7,7,19,F,NA,variable,heterogeneous,5,absent,1.59180998802185,0,vertical,horizontal,1,0.811758613586426,red,4,NaN,607.549057043193,432.704947607421,NaN,NaN,857.362518857686,848.464366520235,1054.0296480134,622.224714400653,899.636437764765,365.271262369628,607.549057043193,432.704947607421,581.422338320961,731.334709102064,0,0,3,0,6,4,3,NaN,horizontal,horizontal,vertical,vertical,horizontal,none
1a,2,100134,1,8,8,19,F,NA,variable,heterogeneous,3,present,1.5840220451355,1,horizontal,horizontal,1,1.02351722717285,green,2,3,1054.0296480134,622.224714400653,692.232343256122,368.891514305654,653.738008730483,808.883771293693,1054.0296480134,622.224714400653,692.232343256122,368.891514305654,0,0,0,0,0,0,0,4,0,NaN,NaN,NaN,vertical,horizontal,vertical,none,none,none
1a,2,100134,1,9,9,19,F,NA,variable,heterogeneous,5,absent,0.670767068862915,1,horizontal,horizontal,1,0.941166655222575,green,5,NaN,586.139005173917,738.882953928832,NaN,NaN,865.998856501143,846.311085703712,1054.65053136242,613.345668841951,891.383827134052,361.936991243214,601.827779828472,439.523300282291,586.139005173917,738.882953928832,0,0,6,0,5,6,4,NaN,horizontal,vertical,horizontal,horizontal,horizontal,none
1a,2,100134,1,10,10,19,F,NA,variable,heterogeneous,4,present,0.873454093933105,1,vertical,vertical,1,0.858816083272298,green,4,1,546.900731331463,631.076682568313,831.076682568313,853.099268668537,831.076682568313,853.099268668537,1053.09926866854,568.923317431687,768.923317431687,346.900731331463,546.900731331463,631.076682568313,0,0,0,0,6,0,3,4,NaN,NaN,vertical,vertical,vertical,vertical,none,none
1a,2,100134,1,11,11,19,F,NA,variable,heterogeneous,4,absent,1.40682005882263,0,horizontal,vertical,1,0.776465511322021,red,1,NaN,911.784642431215,829.192481806288,NaN,NaN,911.784642431215,829.192481806288,1029.19248180629,488.215357568785,688.215357568785,370.807518193712,570.807518193712,711.784642431215,0,0,0,0,4,3,5,3,NaN,NaN,horizontal,horizontal,horizontal,vertical,none,none
1a,2,100134,1,12,12,19,F,NA,variable,heterogeneous,4,absent,1.1409170627594,1,vertical,vertical,1,0.894109185536702,green,2,NaN,1054.0296480134,577.775285599347,NaN,NaN,822.224714400653,854.029648013395,1054.0296480134,577.775285599347,777.775285599347,345.970351986605,545.970351986605,622.224714400653,0,0,0,0,3,4,3,0,NaN,NaN,vertical,vertical,horizontal,horizontal,none,none
1a,2,100134,1,13,13,19,F,NA,variable,heterogeneous,6,absent,1.81629395484924,1,horizontal,horizontal,1,0.811758613586426,red,4,NaN,857.362518857686,351.535633479765,NaN,NaN,742.637481142314,848.464366520235,986.495193912888,773.909581815937,1043.85771277057,525.445215295702,857.362518857686,351.535633479765,613.504806087112,426.090418184063,556.142287229426,674.554784704298,3,6,5,4,0,6,vertical,horizontal,vertical,horizontal,horizontal,horizontal
1a,2,100134,1,14,14,19,F,NA,variable,heterogeneous,4,present,1.79653310775757,1,horizontal,horizontal,1,0.988224124908447,green,4,2,553.688914296288,665.998856501143,1046.31108570371,534.001143498857,865.998856501143,846.311085703712,1046.31108570371,534.001143498857,734.001143498857,353.688914296288,553.688914296288,665.998856501143,0,0,0,0,0,3,5,4,NaN,NaN,horizontal,vertical,horizontal,horizontal,none,none
1a,2,100134,1,15,15,19,F,NA,variable,heterogeneous,3,present,0.877488136291504,1,horizontal,horizontal,1,1.04704596201579,red,1,3,804.450363641507,854.96116226488,576.971974679454,476.373546837184,804.450363641507,854.96116226488,1018.57766167904,468.665290897936,576.971974679454,476.373546837184,0,0,0,0,0,0,4,0,3,NaN,NaN,NaN,horizontal,horizontal,horizontal,none,none,none
1a,2,100134,1,16,16,19,F,NA,variable,heterogeneous,3,present,1.117506980896,0,horizontal,vertical,1,0.917637920379639,red,2,1,1020.83647796503,727.5,579.163522034968,727.5,579.163522034968,727.5,1020.83647796503,727.5,800,345,0,0,0,0,0,0,6,4,6,NaN,NaN,NaN,horizontal,horizontal,vertical,none,none,none
1a,2,100134,1,17,17,19,F,NA,variable,heterogeneous,5,absent,1.88877606391907,1,vertical,vertical,1,1.03528159459432,red,2,NaN,1029.19248180629,711.784642431215,NaN,NaN,764.510859255183,852.518357529101,1029.19248180629,711.784642431215,977.137884467044,416.568350913644,680.284751489598,374.848363820974,548.874022981887,644.280285305067,0,0,3,4,5,0,3,NaN,vertical,vertical,vertical,horizontal,horizontal,none
1a,2,100134,1,18,18,19,F,NA,variable,heterogeneous,5,present,1.4742329120636,1,vertical,vertical,1,0.776465511322021,red,1,5,664.870587620533,816.252264519889,552.574589799621,538.309916622085,664.870587620533,816.252264519889,963.910840470068,795.341332995339,1036.43188291453,504.475318678942,782.212099195248,345.621167183745,552.574589799621,538.309916622085,0,0,4,6,5,3,6,NaN,vertical,horizontal,horizontal,vertical,horizontal,none
1a,2,100134,1,19,19,19,F,NA,variable,heterogeneous,4,absent,0.905402898788452,0,vertical,horizontal,1,0.670586204528809,green,4,NaN,593.700666434388,749.885239334581,NaN,NaN,949.885239334581,806.299333565612,1006.29933356561,450.114760665419,650.114760665419,393.700666434388,593.700666434388,749.885239334581,0,0,0,0,5,5,6,4,NaN,NaN,horizontal,vertical,horizontal,vertical,none,none
1a,2,100134,1,20,20,19,F,NA,variable,heterogeneous,6,present,1.00030779838562,0,vertical,horizontal,1,0.835287348429362,red,1,5,672.5,820.836477965032,672.5,379.163522034968,672.5,820.836477965032,927.5,820.836477965032,1055,600,927.5,379.163522034968,672.5,379.163522034968,545,600,4,3,6,0,3,5,vertical,horizontal,horizontal,horizontal,horizontal,vertical
1a,2,100134,1,21,21,19,F,NA,variable,heterogeneous,5,present,1.98222208023071,0,horizontal,vertical,1,0.870580450693766,green,3,2,891.383827134052,361.936991243214,1054.65053136242,613.345668841951,865.998856501143,846.311085703712,1054.65053136242,613.345668841951,891.383827134052,361.936991243214,601.827779828472,439.523300282291,586.139005173917,738.882953928832,0,0,3,6,4,0,0,NaN,vertical,vertical,horizontal,horizontal,horizontal,none
1a,2,100134,1,22,22,19,F,NA,variable,heterogeneous,3,absent,1.32728099822998,0,horizontal,vertical,1,0.858816083272298,green,2,NaN,1036.43188291453,504.475318678942,NaN,NaN,764.510859255183,852.518357529101,1036.43188291453,504.475318678942,599.057257830286,443.006323791957,0,0,0,0,0,0,6,4,0,NaN,NaN,NaN,vertical,horizontal,vertical,none,none,none
1a,2,100134,1,23,23,19,F,NA,variable,heterogeneous,3,present,0.731003046035767,0,vertical,horizontal,1,1.05881032943726,green,1,3,653.738008730483,808.883771293693,692.232343256122,368.891514305654,653.738008730483,808.883771293693,1054.0296480134,622.224714400653,692.232343256122,368.891514305654,0,0,0,0,0,0,4,3,0,NaN,NaN,NaN,vertical,vertical,vertical,none,none,none
1a,2,100134,1,24,24,19,F,NA,variable,heterogeneous,3,absent,0.829426050186157,1,horizontal,horizontal,1,0.976459757486979,red,2,NaN,1016.25226451989,464.870587620533,NaN,NaN,808.899371659138,854.844660889869,1016.25226451989,464.870587620533,574.848363820974,480.284751489598,0,0,0,0,0,0,0,4,6,NaN,NaN,NaN,vertical,horizontal,vertical,none,none,none
1a,2,100134,1,25,25,19,F,NA,variable,heterogeneous,3,present,0.820765972137451,1,vertical,vertical,1,0.741172409057617,red,2,3,861.690083377915,352.574589799621,554.878267535729,670.287525733335,983.431649086356,777.137884467044,861.690083377915,352.574589799621,554.878267535729,670.287525733335,0,0,0,0,0,0,6,4,0,NaN,NaN,NaN,vertical,vertical,vertical,none,none,none
1a,2,100134,1,26,26,19,F,NA,variable,heterogeneous,5,absent,1.40571308135986,1,horizontal,horizontal,1,1.02351722717285,red,2,NaN,967.295052392579,792.450942956807,NaN,NaN,668.665290897936,818.577661679039,967.295052392579,792.450942956807,1034.72873763037,500.363562235235,777.775285599347,345.970351986605,551.535633479765,542.637481142314,0,0,0,4,3,6,3,NaN,horizontal,horizontal,horizontal,horizontal,vertical,none
1a,2,100134,1,27,27,19,F,NA,variable,heterogeneous,4,absent,0.963963985443115,1,horizontal,horizontal,1,0.694114939371745,green,4,NaN,551.535633479765,542.637481142314,NaN,NaN,742.637481142314,848.464366520235,1048.46436652023,657.362518857686,857.362518857686,351.535633479765,551.535633479765,542.637481142314,0,0,0,0,6,0,3,4,NaN,NaN,horizontal,vertical,vertical,horizontal,none,none
1a,2,100134,1,28,28,19,F,NA,variable,heterogeneous,5,present,0.88395094871521,1,vertical,vertical,1,0.823522981007894,red,5,3,545.621167183745,582.212099195248,1016.25226451989,464.870587620533,704.475318678942,836.431882914531,995.341332995339,763.910840470068,1016.25226451989,464.870587620533,738.309916622085,352.574589799621,545.621167183745,582.212099195248,0,0,5,0,3,6,4,NaN,horizontal,vertical,horizontal,horizontal,vertical,none
1a,2,100134,1,29,29,19,F,NA,variable,heterogeneous,5,present,1.71086406707764,1,horizontal,horizontal,1,0.647057469685872,red,3,2,919.715248510402,374.848363820974,1051.12597701811,644.280285305067,835.489140744817,852.518357529101,1051.12597701811,644.280285305067,919.715248510402,374.848363820974,622.862115532956,416.568350913644,570.807518193712,711.784642431215,0,0,3,6,4,0,3,NaN,vertical,horizontal,horizontal,vertical,vertical,none
1a,2,100134,1,30,30,19,F,NA,variable,heterogeneous,5,absent,1.34575319290161,1,horizontal,horizontal,1,1.02351722717285,green,4,NaN,565.271262369628,500.363562235235,NaN,NaN,931.334709102064,818.577661679039,1048.46436652023,542.637481142314,822.224714400653,345.970351986605,565.271262369628,500.363562235235,632.704947607421,792.450942956807,0,0,6,6,3,4,5,NaN,vertical,vertical,horizontal,horizontal,vertical,none
1a,2,100134,1,31,31,19,F,NA,variable,heterogeneous,3,absent,0.838907957077026,1,vertical,vertical,1,0.705879306793213,green,1,NaN,664.870587620533,816.252264519889,NaN,NaN,664.870587620533,816.252264519889,1054.84466088987,608.899371659138,680.284751489598,374.848363820974,0,0,0,0,0,0,4,0,5,NaN,NaN,NaN,vertical,horizontal,vertical,none,none,none
1a,2,100134,1,32,32,19,F,NA,variable,heterogeneous,3,absent,1.79226899147034,0,vertical,horizontal,1,1.02351722717285,red,2,NaN,857.362518857686,351.535633479765,NaN,NaN,986.495193912888,773.909581815937,857.362518857686,351.535633479765,556.142287229426,674.554784704298,0,0,0,0,0,0,0,4,6,NaN,NaN,NaN,vertical,vertical,vertical,none,none,none
1a,2,100134,1,33,33,19,F,NA,variable,heterogeneous,4,present,1.09862089157104,1,horizontal,horizontal,1,0.717643674214681,red,3,4,746.982518841471,350.57236181288,550.57236181288,653.017481158529,853.017481158529,849.42763818712,1049.42763818712,546.982518841471,746.982518841471,350.57236181288,550.57236181288,653.017481158529,0,0,0,0,6,6,4,0,NaN,NaN,vertical,vertical,horizontal,horizontal,none,none
1a,2,100134,1,34,34,19,F,NA,variable,heterogeneous,4,present,1.01198482513428,1,vertical,vertical,1,0.741172409057617,red,3,2,725.445215295702,356.142287229426,1043.85771277057,525.445215295702,874.554784704298,843.857712770574,1043.85771277057,525.445215295702,725.445215295702,356.142287229426,556.142287229426,674.554784704298,0,0,0,0,5,6,4,0,NaN,NaN,horizontal,vertical,vertical,horizontal,none,none
1a,2,100134,1,35,35,19,F,NA,variable,heterogeneous,6,present,1.68450903892517,1,vertical,vertical,1,0.799994246164958,green,1,6,915.767577433584,827.206663668034,661.117046071168,813.860994826083,915.767577433584,827.206663668034,1054.65053136242,613.345668841951,938.882953928832,386.139005173917,684.232422566416,372.793336331966,545.349468637584,586.654331158049,661.117046071168,813.860994826083,4,5,0,0,6,6,vertical,horizontal,horizontal,horizontal,horizontal,horizontal
1a,2,100134,1,36,36,19,F,NA,variable,heterogeneous,6,present,NaN,0,horizontal,none,0,0.682350571950277,green,1,6,729.712474266665,845.121732464271,552.574589799621,661.690083377915,729.712474266665,845.121732464271,977.137884467044,783.431649086356,1047.42541020038,538.309916622085,870.287525733335,354.878267535729,622.862115532956,416.568350913644,552.574589799621,661.690083377915,4,0,3,3,0,5,horizontal,vertical,horizontal,horizontal,vertical,horizontal
1a,2,100134,1,37,37,19,F,NA,variable,heterogeneous,6,absent,NaN,0,vertical,none,0,0.941166655222575,red,3,NaN,1008.88377129369,453.738008730483,NaN,NaN,822.224714400653,854.029648013395,1031.10848569435,707.767656743878,1008.88377129369,453.738008730483,777.775285599347,345.970351986605,568.891514305654,492.232343256122,591.116228706307,746.261991269517,6,3,4,3,5,5,horizontal,vertical,vertical,vertical,horizontal,horizontal
1a,2,100134,1,38,38,19,F,NA,variable,heterogeneous,4,present,1.28955793380737,0,vertical,horizontal,1,0.717643674214681,green,1,3,782.212099195248,854.378832816255,817.787900804752,345.621167183745,782.212099195248,854.378832816255,1054.37883281626,617.787900804752,817.787900804752,345.621167183745,545.621167183745,582.212099195248,0,0,0,0,4,3,6,5,NaN,NaN,vertical,horizontal,vertical,vertical,none,none
1a,2,100134,1,39,39,19,F,NA,variable,heterogeneous,5,present,1.87557482719421,1,vertical,vertical,1,0.6,green,4,2,768.923317431687,346.900731331463,973.909581815937,786.495193912888,676.373546837184,823.028025320546,973.909581815937,786.495193912888,1031.10848569435,492.232343256122,768.923317431687,346.900731331463,549.685068220846,551.343706178981,0,0,3,5,0,4,5,NaN,vertical,vertical,horizontal,vertical,horizontal,none
1a,2,100134,1,40,40,19,F,NA,variable,heterogeneous,6,present,0.932429075241089,1,horizontal,horizontal,1,0.964695390065511,green,4,5,817.787900804752,345.621167183745,588.595418998464,457.40580961496,782.212099195248,854.378832816255,1011.40458100154,742.594190385041,1029.19248180629,488.215357568785,817.787900804752,345.621167183745,588.595418998464,457.40580961496,570.807518193712,711.784642431215,3,0,0,4,5,6,horizontal,horizontal,horizontal,horizontal,vertical,vertical
1a,2,100134,1,41,41,19,F,NA,variable,heterogeneous,3,present,1.1279571056366,1,vertical,vertical,1,1.02351722717285,red,3,2,545.03883773512,595.549636358493,931.334709102064,381.422338320961,923.626453162816,823.028025320546,931.334709102064,381.422338320961,545.03883773512,595.549636358493,0,0,0,0,0,0,5,3,4,NaN,NaN,NaN,vertical,horizontal,vertical,none,none,none
1a,2,100134,1,42,42,19,F,NA,variable,heterogeneous,6,absent,1.17632699012756,1,horizontal,horizontal,1,0.882344818115234,green,6,NaN,588.595418998464,742.594190385041,NaN,NaN,817.787900804752,854.378832816255,1029.19248180629,711.784642431215,1011.40458100154,457.40580961496,782.212099195248,345.621167183745,570.807518193712,488.215357568785,588.595418998464,742.594190385041,3,6,0,0,6,4,vertical,horizontal,horizontal,vertical,horizontal,horizontal
1a,2,100134,1,43,43,19,F,NA,variable,heterogeneous,5,absent,1.21971297264099,1,vertical,vertical,1,0.976459757486979,green,4,NaN,676.373546837184,376.971974679454,NaN,NaN,768.923317431687,853.099268668537,1031.10848569435,707.767656743878,973.909581815937,413.504806087112,676.373546837184,376.971974679454,549.685068220846,648.656293821019,0,0,0,0,5,4,5,NaN,horizontal,vertical,vertical,vertical,horizontal,none
1a,2,100134,1,44,44,19,F,NA,variable,heterogeneous,6,absent,1.58122396469116,1,vertical,vertical,1,0.84705171585083,green,3,NaN,949.885239334581,393.700666434388,NaN,NaN,903.717843984329,832.954091698863,1053.60308331891,626.654758133252,949.885239334581,393.700666434388,696.282156015671,367.045908301137,546.39691668109,573.345241866748,650.114760665419,806.299333565612,5,3,4,5,6,0,horizontal,horizontal,vertical,vertical,vertical,horizontal
1a,2,100134,1,45,45,19,F,NA,variable,heterogeneous,3,present,0.861090898513794,1,vertical,vertical,1,0.611764367421468,green,2,3,1048.46436652023,542.637481142314,626.090418184063,413.504806087112,725.445215295702,843.857712770574,1048.46436652023,542.637481142314,626.090418184063,413.504806087112,0,0,0,0,0,0,3,4,5,NaN,NaN,NaN,vertical,vertical,horizontal,none,none,none
1a,2,100134,1,46,46,19,F,NA,variable,heterogeneous,6,present,1.46922612190247,1,horizontal,horizontal,1,0.929402287801107,red,4,1,795.549636358493,345.03883773512,804.450363641507,854.96116226488,804.450363641507,854.96116226488,1023.02802532055,723.626453162816,1018.57766167904,468.665290897936,795.549636358493,345.03883773512,576.971974679454,476.373546837184,581.422338320961,731.334709102064,3,3,6,4,0,0,horizontal,horizontal,horizontal,horizontal,vertical,horizontal
1a,2,100134,1,47,47,19,F,NA,variable,heterogeneous,4,absent,1.41139197349548,1,horizontal,horizontal,1,0.623528734842936,green,1,NaN,768.923317431687,853.099268668537,NaN,NaN,768.923317431687,853.099268668537,1053.09926866854,631.076682568313,831.076682568313,346.900731331463,546.900731331463,568.923317431687,0,0,0,0,4,5,6,0,NaN,NaN,horizontal,vertical,horizontal,horizontal,none,none
1a,2,100134,1,48,48,19,F,NA,variable,heterogeneous,5,present,0.878727197647095,1,vertical,vertical,1,0.741172409057617,green,3,4,931.334709102064,381.422338320961,632.704947607421,407.549057043193,822.224714400653,854.029648013395,1048.46436652023,657.362518857686,931.334709102064,381.422338320961,632.704947607421,407.549057043193,565.271262369628,699.636437764765,0,0,0,3,4,5,3,NaN,vertical,vertical,vertical,vertical,vertical,none
1a,2,100134,1,49,49,19,F,NA,variable,heterogeneous,4,present,1.0516140460968,1,vertical,vertical,1,0.952931022644043,red,1,3,861.690083377915,847.425410200379,738.309916622085,352.574589799621,861.690083377915,847.425410200379,1047.42541020038,538.309916622085,738.309916622085,352.574589799621,552.574589799621,661.690083377915,0,0,0,0,4,5,6,3,NaN,NaN,vertical,horizontal,horizontal,horizontal,none,none
1a,2,100134,1,50,50,19,F,NA,variable,heterogeneous,5,absent,NaN,0,horizontal,none,0,0.811758613586426,red,4,NaN,596.34794493794,446.537169096228,NaN,NaN,874.554784704298,843.857712770574,1054.96116226488,604.450363641507,883.019879386575,358.892763222174,596.34794493794,446.537169096228,591.116228706307,746.261991269517,0,0,6,0,3,4,3,NaN,vertical,horizontal,vertical,horizontal,horizontal,none
1a,2,100134,1,51,51,19,F,NA,variable,heterogeneous,6,present,1.48865509033203,1,vertical,vertical,1,0.976459757486979,red,6,1,574.848363820974,719.715248510402,791.100628340862,854.844660889869,791.100628340862,854.844660889869,1016.25226451989,735.129412379467,1025.15163617903,480.284751489598,808.899371659138,345.155339110131,583.747735480111,464.870587620533,574.848363820974,719.715248510402,5,6,5,0,3,4,horizontal,horizontal,horizontal,vertical,vertical,vertical
1a,2,100134,1,52,52,19,F,NA,variable,heterogeneous,6,absent,1.00164389610291,1,vertical,vertical,1,0.952931022644043,red,4,NaN,795.549636358493,345.03883773512,NaN,NaN,804.450363641507,854.96116226488,1023.02802532055,723.626453162816,1018.57766167904,468.665290897936,795.549636358493,345.03883773512,576.971974679454,476.373546837184,581.422338320961,731.334709102064,6,3,5,4,0,0,vertical,horizontal,vertical,vertical,vertical,vertical
1a,2,100134,1,53,53,19,F,NA,variable,heterogeneous,6,absent,1.19094014167786,1,horizontal,horizontal,1,0.84705171585083,green,6,NaN,548.874022981887,644.280285305067,NaN,NaN,712.784863451954,839.621618300407,963.910840470068,795.341332995339,1051.12597701811,555.719714694933,887.215136548046,360.378381699593,636.089159529932,404.658667004661,548.874022981887,644.280285305067,3,5,6,5,0,4,vertical,horizontal,horizontal,vertical,vertical,horizontal
1a,2,100134,1,54,54,19,F,NA,variable,heterogeneous,6,present,0.733502864837646,1,vertical,vertical,1,0.729408041636149,green,5,6,546.900731331463,568.923317431687,646.537169096228,803.65205506206,899.636437764765,834.728737630372,1053.09926866854,631.076682568313,953.462830903772,396.34794493794,700.363562235235,365.271262369628,546.900731331463,568.923317431687,646.537169096228,803.65205506206,5,5,3,0,4,6,vertical,vertical,horizontal,horizontal,vertical,horizontal
1a,2,100134,1,55,55,19,F,NA,variable,heterogeneous,6,absent,1.23796200752258,1,vertical,vertical,1,1.08233906428019,green,6,NaN,668.665290897936,818.577661679039,NaN,NaN,923.626453162816,823.028025320546,1054.96116226488,604.450363641507,931.334709102064,381.422338320961,676.373546837184,376.971974679454,545.03883773512,595.549636358493,668.665290897936,818.577661679039,0,5,6,5,3,4,horizontal,vertical,horizontal,horizontal,vertical,vertical
1a,2,100134,1,56,56,19,F,NA,variable,heterogeneous,6,absent,NaN,0,horizontal,none,0,0.811758613586426,red,5,NaN,626.090418184063,413.504806087112,NaN,NaN,725.445215295702,843.857712770574,973.909581815937,786.495193912888,1048.46436652023,542.637481142314,874.554784704298,356.142287229426,626.090418184063,413.504806087112,551.535633479765,657.362518857686,6,5,3,0,4,5,horizontal,vertical,horizontal,horizontal,horizontal,vertical
1a,2,100134,1,57,57,19,F,NA,variable,heterogeneous,4,present,0.972131967544556,0,horizontal,vertical,1,0.635293102264404,red,1,2,831.076682568313,853.099268668537,1053.09926866854,568.923317431687,831.076682568313,853.099268668537,1053.09926866854,568.923317431687,768.923317431687,346.900731331463,546.900731331463,631.076682568313,0,0,0,0,4,5,0,6,NaN,NaN,horizontal,vertical,horizontal,vertical,none,none
1a,2,100134,1,58,58,19,F,NA,variable,heterogeneous,5,present,NaN,0,horizontal,none,0,0.870580450693766,red,4,3,791.100628340862,345.155339110131,1039.62161830041,512.784863451954,657.405809614959,811.404581001536,956.993676208043,800.942742169714,1039.62161830041,512.784863451954,791.100628340862,345.155339110131,554.878267535729,529.712474266665,0,0,3,5,6,4,3,NaN,horizontal,horizontal,horizontal,horizontal,vertical,none
1a,2,100134,1,59,59,19,F,NA,variable,heterogeneous,6,present,NaN,0,horizontal,none,0,0.635293102264404,red,6,4,546.900731331463,631.076682568313,899.636437764765,365.271262369628,700.363562235235,834.728737630372,953.462830903772,803.65205506206,1053.09926866854,568.923317431687,899.636437764765,365.271262369628,646.537169096228,396.34794493794,546.900731331463,631.076682568313,0,3,3,5,6,4,vertical,vertical,horizontal,horizontal,horizontal,horizontal
1a,2,100134,1,60,60,19,F,NA,variable,heterogeneous,4,absent,1.61889910697937,1,vertical,vertical,1,1.02351722717285,red,1,NaN,738.309916622085,847.425410200379,NaN,NaN,738.309916622085,847.425410200379,1047.42541020038,661.690083377915,861.690083377915,352.574589799621,552.574589799621,538.309916622085,0,0,0,0,4,3,6,0,NaN,NaN,vertical,vertical,vertical,horizontal,none,none
1a,2,100134,1,61,61,19,F,NA,variable,heterogeneous,4,absent,1.63041305541992,1,horizontal,horizontal,1,0.941166655222575,red,1,NaN,725.445215295702,843.857712770574,NaN,NaN,725.445215295702,843.857712770574,1043.85771277057,674.554784704298,874.554784704298,356.142287229426,556.142287229426,525.445215295702,0,0,0,0,4,3,6,3,NaN,NaN,horizontal,horizontal,vertical,horizontal,none,none
1a,2,100134,1,62,62,19,F,NA,variable,heterogeneous,4,present,0.968589782714844,0,horizontal,vertical,1,0.682350571950277,green,4,1,616.568350913644,422.862115532956,622.862115532956,783.431649086356,622.862115532956,783.431649086356,983.431649086356,777.137884467044,977.137884467044,416.568350913644,616.568350913644,422.862115532956,0,0,0,0,3,0,0,4,NaN,NaN,vertical,vertical,horizontal,horizontal,none,none
1a,2,100134,1,63,63,19,F,NA,variable,heterogeneous,4,absent,1.07272887229919,1,vertical,vertical,1,0.623528734842936,red,2,NaN,1049.42763818712,653.017481158529,NaN,NaN,746.982518841471,849.42763818712,1049.42763818712,653.017481158529,853.017481158529,350.57236181288,550.57236181288,546.982518841471,0,0,0,0,3,4,0,5,NaN,NaN,vertical,vertical,horizontal,horizontal,none,none
1a,2,100134,1,64,64,19,F,NA,variable,heterogeneous,3,absent,1.01341891288757,1,horizontal,horizontal,1,0.952931022644043,red,2,NaN,1042.51941165526,678.799333565612,NaN,NaN,610.498069503264,770.628304621509,1042.51941165526,678.799333565612,746.982518841471,350.57236181288,0,0,0,0,0,0,5,4,3,NaN,NaN,NaN,horizontal,horizontal,horizontal,none,none,none
1a,2,100134,2,1,65,19,F,NA,variable,heterogeneous,5,absent,1.39380812644958,1,horizontal,horizontal,1,0.988224124908447,red,2,NaN,983.431649086356,777.137884467044,NaN,NaN,688.215357568785,829.192481806288,983.431649086356,777.137884467044,1025.15163617903,480.284751489598,755.719714694933,348.874022981887,547.481642470899,564.510859255183,0,0,0,4,3,3,5,NaN,vertical,horizontal,vertical,vertical,vertical,none
1a,2,100134,2,2,66,19,F,NA,variable,heterogeneous,3,present,0.964171171188354,1,horizontal,horizontal,1,0.917637920379639,green,3,1,556.142287229426,674.554784704298,986.495193912888,773.909581815937,986.495193912888,773.909581815937,857.362518857686,351.535633479765,556.142287229426,674.554784704298,0,0,0,0,0,0,0,0,4,NaN,NaN,NaN,horizontal,vertical,horizontal,none,none,none
1a,2,100134,2,3,67,19,F,NA,variable,heterogeneous,4,present,1.0729398727417,1,vertical,vertical,1,0.65882183710734,green,1,2,716.980120613425,841.107236777826,1041.10723677783,683.019879386575,716.980120613425,841.107236777826,1041.10723677783,683.019879386575,883.019879386575,358.892763222174,558.892763222174,516.980120613425,0,0,0,0,4,6,0,0,NaN,NaN,vertical,horizontal,vertical,horizontal,none,none
1a,2,100134,2,4,68,19,F,NA,variable,heterogeneous,6,present,0.976891994476318,1,vertical,vertical,1,0.694114939371745,green,2,1,1049.42763818712,653.017481158529,878.799333565612,842.519411655264,878.799333565612,842.519411655264,1049.42763818712,653.017481158529,970.628304621509,410.498069503264,721.200666434388,357.480588344736,550.57236181288,546.982518841471,629.371695378491,789.501930496736,5,4,0,5,0,6,vertical,vertical,vertical,horizontal,horizontal,horizontal
1a,2,100134,2,5,69,19,F,NA,variable,heterogeneous,6,present,1.74502205848694,1,vertical,vertical,1,0.835287348429362,red,1,5,808.899371659138,854.844660889869,574.848363820974,480.284751489598,808.899371659138,854.844660889869,1025.15163617903,719.715248510402,1016.25226451989,464.870587620533,791.100628340862,345.155339110131,574.848363820974,480.284751489598,583.747735480111,735.129412379467,4,3,6,6,0,0,vertical,horizontal,horizontal,vertical,horizontal,vertical
1a,2,100134,2,6,70,19,F,NA,variable,heterogeneous,5,absent,0.673496961593628,1,vertical,vertical,1,0.670586204528809,green,5,NaN,563.568117085469,695.524681321058,NaN,NaN,817.787900804752,854.378832816255,1047.42541020038,661.690083377915,935.129412379467,383.747735480111,636.089159529932,404.658667004661,563.568117085469,695.524681321058,0,0,3,0,5,6,4,NaN,horizontal,horizontal,horizontal,vertical,vertical,none
1a,2,100134,2,7,71,19,F,NA,variable,heterogeneous,5,absent,0.90385103225708,1,vertical,vertical,1,1.02351722717285,red,3,NaN,992.450942956807,432.704947607421,NaN,NaN,742.637481142314,848.464366520235,1018.57766167904,731.334709102064,992.450942956807,432.704947607421,700.363562235235,365.271262369628,545.970351986605,622.224714400653,0,0,5,5,4,3,0,NaN,horizontal,vertical,vertical,horizontal,horizontal,none
1a,2,100134,2,8,72,19,F,NA,variable,heterogeneous,4,absent,0.750277996063232,1,vertical,vertical,1,0.823522981007894,green,4,NaN,545.03883773512,595.549636358493,NaN,NaN,795.549636358493,854.96116226488,1054.96116226488,604.450363641507,804.450363641507,345.03883773512,545.03883773512,595.549636358493,0,0,0,0,3,0,6,4,NaN,NaN,vertical,horizontal,vertical,vertical,none,none
1a,2,100134,2,9,73,19,F,NA,variable,heterogeneous,5,present,1.31771516799927,1,horizontal,horizontal,1,1.02351722717285,green,2,5,949.885239334581,806.299333565612,557.480588344736,521.200666434388,650.114760665419,806.299333565612,949.885239334581,806.299333565612,1042.51941165526,521.200666434388,800,345,557.480588344736,521.200666434388,0,0,6,4,3,0,5,NaN,vertical,horizontal,vertical,horizontal,horizontal,none
1a,2,100134,2,10,74,19,F,NA,variable,heterogeneous,6,absent,0.881156921386719,1,vertical,vertical,1,1.03528159459432,green,2,NaN,1051.86052685176,639.890788585259,NaN,NaN,891.383827134052,838.063008756786,1051.86052685176,639.890788585259,960.476699717708,401.827779828472,708.616172865948,361.936991243214,548.13947314824,560.109211414741,639.523300282292,798.172220171528,0,4,0,3,5,5,vertical,vertical,horizontal,vertical,vertical,horizontal
1a,2,100134,2,11,75,19,F,NA,variable,heterogeneous,6,absent,1.32027101516724,1,vertical,vertical,1,1.05881032943726,red,3,NaN,1029.19248180629,488.215357568785,NaN,NaN,782.212099195248,854.378832816255,1011.40458100154,742.594190385041,1029.19248180629,488.215357568785,817.787900804752,345.621167183745,588.595418998464,457.40580961496,570.807518193712,711.784642431215,6,3,4,3,0,6,vertical,vertical,vertical,horizontal,vertical,horizontal
1a,2,100134,2,12,76,19,F,NA,variable,heterogeneous,5,absent,1.68152284622192,1,horizontal,horizontal,1,0.941166655222575,green,4,NaN,622.862115532956,416.568350913644,NaN,NaN,835.489140744817,852.518357529101,1051.12597701811,644.280285305067,919.715248510402,374.848363820974,622.862115532956,416.568350913644,570.807518193712,711.784642431215,0,0,5,0,6,4,3,NaN,horizontal,vertical,vertical,horizontal,horizontal,none
1a,2,100134,2,13,77,19,F,NA,variable,heterogeneous,4,present,1.00776195526123,1,vertical,vertical,1,0.811758613586426,red,2,3,1029.19248180629,711.784642431215,911.784642431215,370.807518193712,688.215357568785,829.192481806288,1029.19248180629,711.784642431215,911.784642431215,370.807518193712,570.807518193712,488.215357568785,0,0,0,0,6,4,6,5,NaN,NaN,horizontal,vertical,vertical,horizontal,none,none
1a,2,100134,2,14,78,19,F,NA,variable,heterogeneous,4,present,0.802724838256836,1,vertical,vertical,1,0.729408041636149,green,3,2,960.476699717708,401.827779828472,998.172220171528,760.476699717708,639.523300282292,798.172220171528,998.172220171528,760.476699717708,960.476699717708,401.827779828472,601.827779828472,439.523300282291,0,0,0,0,0,5,4,0,NaN,NaN,vertical,horizontal,vertical,horizontal,none,none
1a,2,100134,2,15,79,19,F,NA,variable,heterogeneous,5,present,1.2605938911438,1,horizontal,horizontal,1,1.08233906428019,green,1,5,755.719714694933,851.125977018113,547.481642470899,635.489140744817,755.719714694933,851.125977018113,1025.15163617903,719.715248510402,983.431649086356,422.862115532956,688.215357568785,370.807518193712,547.481642470899,635.489140744817,0,0,4,6,6,3,5,NaN,horizontal,horizontal,horizontal,vertical,vertical,none
1a,2,100134,2,16,80,19,F,NA,variable,heterogeneous,4,present,0.982124090194702,1,horizontal,horizontal,1,0.999988492329915,red,2,1,980.31222920257,780.31222920257,619.68777079743,780.31222920257,619.68777079743,780.31222920257,980.31222920257,780.31222920257,980.31222920257,419.68777079743,619.68777079743,419.68777079743,0,0,0,0,6,4,0,3,NaN,NaN,horizontal,horizontal,horizontal,horizontal,none,none
1a,2,100134,2,17,81,19,F,NA,variable,heterogeneous,4,absent,0.845155954360962,1,vertical,vertical,1,0.964695390065511,red,2,NaN,1036.43188291453,695.524681321058,NaN,NaN,704.475318678942,836.431882914531,1036.43188291453,695.524681321058,895.524681321058,363.568117085469,563.568117085469,504.475318678942,0,0,0,0,0,4,0,5,NaN,NaN,vertical,vertical,vertical,vertical,none,none
1a,2,100134,2,18,82,19,F,NA,variable,heterogeneous,5,present,1.37119102478027,1,horizontal,horizontal,1,1.05881032943726,red,3,1,874.554784704298,356.142287229426,883.019879386575,841.107236777826,883.019879386575,841.107236777826,1054.96116226488,595.549636358493,874.554784704298,356.142287229426,591.116228706307,453.738008730483,596.34794493794,753.462830903772,0,0,3,0,4,0,6,NaN,horizontal,vertical,horizontal,vertical,vertical,none
1a,2,100134,2,19,83,19,F,NA,variable,heterogeneous,3,present,0.881036043167114,1,vertical,vertical,1,0.705879306793213,red,2,1,1048.46436652023,542.637481142314,725.445215295702,843.857712770574,725.445215295702,843.857712770574,1048.46436652023,542.637481142314,626.090418184063,413.504806087112,0,0,0,0,0,0,0,4,6,NaN,NaN,NaN,vertical,vertical,vertical,none,none,none
1a,2,100134,2,20,84,19,F,NA,variable,heterogeneous,5,absent,1.68062710762024,1,vertical,vertical,1,0.882344818115234,red,2,NaN,963.910840470068,795.341332995339,NaN,NaN,664.870587620533,816.252264519889,963.910840470068,795.341332995339,1036.43188291453,504.475318678942,782.212099195248,345.621167183745,552.574589799621,538.309916622085,0,0,5,4,0,6,0,NaN,vertical,vertical,horizontal,horizontal,vertical,none
1a,2,100134,2,21,85,19,F,NA,variable,heterogeneous,6,present,1.34369707107544,1,horizontal,horizontal,1,0.670586204528809,red,6,2,576.971974679454,723.626453162816,1018.57766167904,731.334709102064,795.549636358493,854.96116226488,1018.57766167904,731.334709102064,1023.02802532055,476.373546837184,804.450363641507,345.03883773512,581.422338320961,468.665290897936,576.971974679454,723.626453162816,6,5,3,5,3,4,horizontal,horizontal,vertical,horizontal,horizontal,horizontal
1a,2,100134,2,22,86,19,F,NA,variable,heterogeneous,3,absent,0.900902032852173,1,vertical,vertical,1,0.705879306793213,red,3,NaN,553.688914296288,665.998856501143,NaN,NaN,980.31222920257,780.31222920257,865.998856501143,353.688914296288,553.688914296288,665.998856501143,0,0,0,0,0,0,5,5,4,NaN,NaN,NaN,vertical,vertical,vertical,none,none,none
1a,2,100134,2,23,87,19,F,NA,variable,heterogeneous,3,absent,1.27844381332397,1,horizontal,horizontal,1,0.964695390065511,green,2,NaN,1034.72873763037,500.363562235235,NaN,NaN,768.923317431687,853.099268668537,1034.72873763037,500.363562235235,596.34794493794,446.537169096228,0,0,0,0,0,0,3,4,5,NaN,NaN,NaN,horizontal,horizontal,vertical,none,none,none
1a,2,100134,2,24,88,19,F,NA,variable,heterogeneous,4,absent,0.669232845306396,1,vertical,vertical,1,0.84705171585083,red,4,NaN,610.498069503264,770.628304621509,NaN,NaN,970.628304621509,789.501930496736,989.501930496736,429.371695378491,629.371695378491,410.498069503264,610.498069503264,770.628304621509,0,0,0,0,6,3,0,4,NaN,NaN,horizontal,horizontal,vertical,vertical,none,none
1a,2,100134,2,25,89,19,F,NA,variable,heterogeneous,6,present,1.14576101303101,1,horizontal,horizontal,1,0.752936776479085,green,2,6,942.594190385041,811.404581001536,545.621167183745,617.787900804752,688.215357568785,829.192481806288,942.594190385041,811.404581001536,1054.37883281626,582.212099195248,911.784642431215,370.807518193712,657.405809614959,388.595418998464,545.621167183745,617.787900804752,0,4,3,5,6,5,horizontal,horizontal,horizontal,horizontal,horizontal,horizontal
1a,2,100134,2,26,90,19,F,NA,variable,heterogeneous,6,absent,0.956686019897461,1,horizontal,horizontal,1,1.01175285975138,green,6,NaN,583.747735480111,735.129412379467,NaN,NaN,808.899371659138,854.844660889869,1025.15163617903,719.715248510402,1016.25226451989,464.870587620533,791.100628340862,345.155339110131,574.848363820974,480.284751489598,583.747735480111,735.129412379467,3,0,6,6,5,4,vertical,vertical,vertical,horizontal,horizontal,horizontal
1a,2,100134,2,27,91,19,F,NA,variable,heterogeneous,5,present,0.785634994506836,1,vertical,vertical,1,0.870580450693766,red,1,2,878.799333565612,842.519411655264,1055,600,878.799333565612,842.519411655264,1055,600,878.799333565612,357.480588344736,593.700666434388,450.114760665419,593.700666434388,749.885239334581,0,0,4,3,6,0,5,NaN,vertical,vertical,vertical,horizontal,vertical,none
1a,2,100134,2,28,92,19,F,NA,variable,heterogeneous,4,absent,0.748347997665405,1,vertical,vertical,1,0.729408041636149,green,4,NaN,548.13947314824,560.109211414741,NaN,NaN,760.109211414741,851.86052685176,1051.86052685176,639.890788585259,839.890788585259,348.13947314824,548.13947314824,560.109211414741,0,0,0,0,0,5,6,4,NaN,NaN,horizontal,horizontal,horizontal,vertical,none,none
1a,2,100134,2,29,93,19,F,NA,variable,heterogeneous,6,present,1.26394391059875,1,horizontal,horizontal,1,1.03528159459432,green,3,2,1011.40458100154,457.40580961496,1029.19248180629,711.784642431215,817.787900804752,854.378832816255,1029.19248180629,711.784642431215,1011.40458100154,457.40580961496,782.212099195248,345.621167183745,570.807518193712,488.215357568785,588.595418998464,742.594190385041,5,0,4,6,0,3,horizontal,horizontal,horizontal,horizontal,vertical,vertical
1a,2,100134,2,30,94,19,F,NA,variable,heterogeneous,4,present,1.14096713066101,1,horizontal,horizontal,1,0.764701143900553,red,1,2,831.076682568313,853.099268668537,1053.09926866854,568.923317431687,831.076682568313,853.099268668537,1053.09926866854,568.923317431687,768.923317431687,346.900731331463,546.900731331463,631.076682568313,0,0,0,0,4,0,5,0,NaN,NaN,horizontal,vertical,vertical,vertical,none,none
1a,2,100134,2,31,95,19,F,NA,variable,heterogeneous,3,present,0.941137075424194,1,vertical,vertical,1,0.870580450693766,green,3,2,657.405809614959,388.595418998464,1054.37883281626,582.212099195248,688.215357568785,829.192481806288,1054.37883281626,582.212099195248,657.405809614959,388.595418998464,0,0,0,0,0,0,0,0,4,NaN,NaN,NaN,horizontal,horizontal,vertical,none,none,none
1a,2,100134,2,32,96,19,F,NA,variable,heterogeneous,6,absent,1.16509079933167,0,vertical,horizontal,1,0.647057469685872,red,1,NaN,708.616172865948,838.063008756786,NaN,NaN,708.616172865948,838.063008756786,960.476699717708,798.172220171528,1051.86052685176,560.109211414741,891.383827134052,361.936991243214,639.523300282292,401.827779828472,548.13947314824,639.890788585259,4,0,6,3,3,5,vertical,vertical,horizontal,horizontal,horizontal,vertical
1a,2,100134,2,33,97,19,F,NA,variable,heterogeneous,3,absent,0.770783185958862,0,vertical,horizontal,1,0.705879306793213,red,3,NaN,551.535633479765,542.637481142314,NaN,NaN,874.554784704298,843.857712770574,973.909581815937,413.504806087112,551.535633479765,542.637481142314,0,0,0,0,0,0,0,6,4,NaN,NaN,NaN,horizontal,vertical,vertical,none,none,none
1a,2,100134,2,34,98,19,F,NA,variable,heterogeneous,5,present,0.86580491065979,1,vertical,vertical,1,0.776465511322021,green,2,4,989.501930496736,770.628304621509,746.982518841471,350.57236181288,696.282156015671,832.954091698863,989.501930496736,770.628304621509,1020.83647796503,472.5,746.982518841471,350.57236181288,546.39691668109,573.345241866748,0,0,3,4,6,3,6,NaN,horizontal,vertical,vertical,vertical,horizontal,none
1a,2,100134,2,35,99,19,F,NA,variable,heterogeneous,5,present,0.870281934738159,1,horizontal,horizontal,1,0.741172409057617,red,2,5,1046.31108570371,534.001143498857,639.523300282292,798.172220171528,938.882953928832,813.860994826083,1046.31108570371,534.001143498857,813.345668841951,345.349468637584,561.936991243214,508.616172865948,639.523300282292,798.172220171528,0,0,5,4,6,0,3,NaN,horizontal,horizontal,vertical,horizontal,horizontal,none
1a,2,100134,2,36,100,19,F,NA,variable,heterogeneous,3,absent,1.33904600143433,1,horizontal,horizontal,1,0.752936776479085,red,3,NaN,632.704947607421,407.549057043193,NaN,NaN,716.980120613425,841.107236777826,1050.31493177915,551.343706178981,632.704947607421,407.549057043193,0,0,0,0,0,0,3,5,4,NaN,NaN,NaN,horizontal,vertical,horizontal,none,none,none
1a,2,100134,2,37,101,19,F,NA,variable,heterogeneous,3,present,1.25487518310547,1,horizontal,horizontal,1,1.04704596201579,red,1,3,967.295052392579,792.450942956807,549.685068220846,648.656293821019,967.295052392579,792.450942956807,883.019879386575,358.892763222174,549.685068220846,648.656293821019,0,0,0,0,0,0,4,3,0,NaN,NaN,NaN,horizontal,vertical,horizontal,none,none,none
1a,2,100134,2,38,102,19,F,NA,variable,heterogeneous,5,absent,0.713635921478271,1,horizontal,horizontal,1,1.08233906428019,green,3,NaN,992.450942956807,432.704947607421,NaN,NaN,742.637481142314,848.464366520235,1018.57766167904,731.334709102064,992.450942956807,432.704947607421,700.363562235235,365.271262369628,545.970351986605,622.224714400653,0,0,3,0,4,3,6,NaN,horizontal,vertical,horizontal,horizontal,vertical,none
1a,2,100134,2,39,103,19,F,NA,variable,heterogeneous,3,absent,0.60499382019043,1,horizontal,horizontal,1,0.647057469685872,red,3,NaN,556.142287229426,674.554784704298,NaN,NaN,986.495193912888,773.909581815937,857.362518857686,351.535633479765,556.142287229426,674.554784704298,0,0,0,0,0,0,3,0,4,NaN,NaN,NaN,horizontal,horizontal,horizontal,none,none,none
1a,2,100134,2,40,104,19,F,NA,variable,heterogeneous,3,absent,0.678057909011841,1,horizontal,horizontal,1,1.03528159459432,green,2,NaN,835.489140744817,347.4816424709,NaN,NaN,1000.94274216971,756.993676208043,835.489140744817,347.4816424709,563.568117085469,695.524681321058,0,0,0,0,0,0,0,4,3,NaN,NaN,NaN,horizontal,horizontal,vertical,none,none,none
1a,2,100134,2,41,105,19,F,NA,variable,heterogeneous,4,present,0.590420961380005,1,horizontal,horizontal,1,0.941166655222575,green,4,1,545.349468637584,586.654331158049,786.654331158049,854.650531362416,786.654331158049,854.650531362416,1054.65053136242,613.345668841951,813.345668841951,345.349468637584,545.349468637584,586.654331158049,0,0,0,0,6,3,5,4,NaN,NaN,vertical,vertical,horizontal,horizontal,none,none
1a,2,100134,2,42,106,19,F,NA,variable,heterogeneous,3,present,0.52883505821228,1,horizontal,horizontal,1,0.917637920379639,green,2,1,1039.62161830041,687.215136548046,604.658667004661,763.910840470068,604.658667004661,763.910840470068,1039.62161830041,687.215136548046,755.719714694933,348.874022981887,0,0,0,0,0,0,5,4,0,NaN,NaN,NaN,vertical,horizontal,vertical,none,none,none
1a,2,100134,2,43,107,19,F,NA,variable,heterogeneous,3,present,0.83657693862915,1,vertical,vertical,1,0.647057469685872,red,1,3,696.282156015671,832.954091698863,650.114760665419,393.700666434388,696.282156015671,832.954091698863,1053.60308331891,573.345241866748,650.114760665419,393.700666434388,0,0,0,0,0,0,4,0,5,NaN,NaN,NaN,vertical,horizontal,horizontal,none,none,none
1a,2,100134,2,44,108,19,F,NA,variable,heterogeneous,4,present,0.878077983856201,1,vertical,vertical,1,1.02351722717285,red,3,2,704.475318678942,363.568117085469,1036.43188291453,504.475318678942,895.524681321058,836.431882914531,1036.43188291453,504.475318678942,704.475318678942,363.568117085469,563.568117085469,695.524681321058,0,0,0,0,0,5,4,6,NaN,NaN,horizontal,horizontal,vertical,vertical,none,none
1a,2,100134,2,45,109,19,F,NA,variable,heterogeneous,3,absent,0.704879999160767,1,vertical,vertical,1,0.858816083272298,green,1,NaN,688.215357568785,829.192481806288,NaN,NaN,688.215357568785,829.192481806288,1054.37883281626,582.212099195248,657.405809614959,388.595418998464,0,0,0,0,0,0,4,6,3,NaN,NaN,NaN,vertical,horizontal,horizontal,none,none,none
1a,2,100134,2,46,110,19,F,NA,variable,heterogeneous,4,absent,0.739201068878174,1,horizontal,horizontal,1,0.999988492329915,green,2,NaN,1052.5183575291,635.489140744817,NaN,NaN,764.510859255183,852.518357529101,1052.5183575291,635.489140744817,835.489140744817,347.4816424709,547.481642470899,564.510859255183,0,0,0,0,3,4,3,0,NaN,NaN,horizontal,horizontal,horizontal,vertical,none,none
1a,2,100134,2,47,111,19,F,NA,variable,heterogeneous,3,absent,0.65190315246582,0,vertical,horizontal,1,0.682350571950277,green,3,NaN,616.568350913644,422.862115532956,NaN,NaN,738.309916622085,847.425410200379,1045.12173246427,529.712474266665,616.568350913644,422.862115532956,0,0,0,0,0,0,0,3,4,NaN,NaN,NaN,horizontal,vertical,vertical,none,none,none
1a,2,100134,2,48,112,19,F,NA,variable,heterogeneous,6,present,1.47029685974121,1,vertical,vertical,1,0.65882183710734,green,1,5,768.923317431687,853.099268668537,596.34794493794,446.537169096228,768.923317431687,853.099268668537,1003.65205506206,753.462830903772,1034.72873763037,500.363562235235,831.076682568313,346.900731331463,596.34794493794,446.537169096228,565.271262369628,699.636437764765,4,6,6,0,5,3,vertical,vertical,horizontal,vertical,horizontal,horizontal
1a,2,100134,2,49,113,19,F,NA,variable,heterogeneous,4,absent,1.67692089080811,1,horizontal,horizontal,1,0.84705171585083,red,3,NaN,629.371695378491,410.498069503264,NaN,NaN,970.628304621509,789.501930496736,989.501930496736,429.371695378491,629.371695378491,410.498069503264,610.498069503264,770.628304621509,0,0,0,0,0,3,4,6,NaN,NaN,horizontal,vertical,horizontal,horizontal,none,none
1a,2,100134,2,50,114,19,F,NA,variable,heterogeneous,6,absent,0.83464503288269,1,horizontal,horizontal,1,0.6,red,6,NaN,548.13947314824,639.890788585259,NaN,NaN,708.616172865948,838.063008756786,960.476699717708,798.172220171528,1051.86052685176,560.109211414741,891.383827134052,361.936991243214,639.523300282292,401.827779828472,548.13947314824,639.890788585259,5,3,3,6,0,4,horizontal,vertical,horizontal,horizontal,vertical,horizontal
1a,2,100134,2,51,115,19,F,NA,variable,heterogeneous,6,absent,1.01371812820435,1,horizontal,horizontal,1,0.717643674214681,green,2,NaN,1027.20666366803,715.767577433584,NaN,NaN,813.345668841951,854.650531362416,1027.20666366803,715.767577433584,1013.86099482608,461.117046071168,786.654331158049,345.349468637584,572.793336331966,484.232422566416,586.139005173917,738.882953928832,6,4,3,0,5,6,vertical,horizontal,horizontal,vertical,horizontal,vertical
1a,2,100134,2,52,116,19,F,NA,variable,heterogeneous,3,present,1.03212785720825,1,horizontal,horizontal,1,1.09410343170166,red,3,1,657.405809614959,388.595418998464,688.215357568785,829.192481806288,688.215357568785,829.192481806288,1054.37883281626,582.212099195248,657.405809614959,388.595418998464,0,0,0,0,0,0,0,5,4,NaN,NaN,NaN,vertical,vertical,horizontal,none,none,none
1a,2,100134,2,53,117,19,F,NA,variable,heterogeneous,3,present,0.877837896347046,1,vertical,vertical,1,1.04704596201579,green,3,1,688.215357568785,370.807518193712,657.405809614959,811.404581001536,657.405809614959,811.404581001536,1054.37883281626,617.787900804752,688.215357568785,370.807518193712,0,0,0,0,0,0,0,5,4,NaN,NaN,NaN,horizontal,vertical,vertical,none,none,none
1a,2,100134,2,54,118,19,F,NA,variable,heterogeneous,6,absent,1.40034699440002,1,horizontal,horizontal,1,0.835287348429362,red,2,NaN,995.341332995339,763.910840470068,NaN,NaN,755.719714694933,851.125977018113,995.341332995339,763.910840470068,1039.62161830041,512.784863451954,844.280285305067,348.874022981887,604.658667004661,436.089159529932,560.378381699593,687.215136548046,0,4,6,3,3,0,horizontal,horizontal,vertical,horizontal,vertical,vertical
1a,2,100134,2,55,119,19,F,NA,variable,heterogeneous,4,absent,1.31084895133972,1,horizontal,horizontal,1,0.717643674214681,green,3,NaN,755.719714694933,348.874022981887,NaN,NaN,844.280285305067,851.125977018113,1051.12597701811,555.719714694933,755.719714694933,348.874022981887,548.874022981887,644.280285305067,0,0,0,0,6,3,4,5,NaN,NaN,vertical,horizontal,horizontal,vertical,none,none
1a,2,100134,2,56,120,19,F,NA,variable,heterogeneous,6,absent,1.06247997283936,1,vertical,vertical,1,0.65882183710734,green,1,NaN,795.549636358493,854.96116226488,NaN,NaN,795.549636358493,854.96116226488,1018.57766167904,731.334709102064,1023.02802532055,476.373546837184,804.450363641507,345.03883773512,581.422338320961,468.665290897936,576.971974679454,723.626453162816,4,5,0,6,3,6,vertical,vertical,horizontal,vertical,vertical,horizontal
1a,2,100134,2,57,121,19,F,NA,variable,heterogeneous,5,absent,NaN,0,horizontal,none,0,0.729408041636149,red,3,NaN,1031.10848569435,492.232343256122,NaN,NaN,676.373546837184,823.028025320546,973.909581815937,786.495193912888,1031.10848569435,492.232343256122,768.923317431687,346.900731331463,549.685068220846,551.343706178981,0,0,0,3,4,3,5,NaN,vertical,vertical,horizontal,vertical,horizontal,none
1a,2,100134,2,58,122,19,F,NA,variable,heterogeneous,6,present,1.14542412757874,1,horizontal,horizontal,1,0.729408041636149,red,4,1,764.510859255183,347.4816424709,835.489140744817,852.518357529101,835.489140744817,852.518357529101,1036.43188291453,695.524681321058,1000.94274216971,443.006323791957,764.510859255183,347.4816424709,563.568117085469,504.475318678942,599.057257830286,756.993676208043,0,0,6,4,5,5,vertical,horizontal,vertical,horizontal,vertical,vertical
1a,2,100134,2,59,123,19,F,NA,variable,heterogeneous,4,absent,0.944118976593018,1,horizontal,horizontal,1,0.976459757486979,red,3,NaN,865.998856501143,353.688914296288,NaN,NaN,734.001143498857,846.311085703712,1046.31108570371,665.998856501143,865.998856501143,353.688914296288,553.688914296288,534.001143498857,0,0,0,0,0,6,4,3,NaN,NaN,horizontal,horizontal,horizontal,horizontal,none,none
1a,2,100134,2,60,124,19,F,NA,variable,heterogeneous,4,present,1.27768301963806,1,horizontal,horizontal,1,0.729408041636149,green,2,4,1038.06300875679,691.383827134052,561.936991243214,508.616172865948,708.616172865948,838.063008756786,1038.06300875679,691.383827134052,891.383827134052,361.936991243214,561.936991243214,508.616172865948,0,0,0,0,3,4,5,0,NaN,NaN,vertical,horizontal,horizontal,horizontal,none,none
1a,2,100134,2,61,125,19,F,NA,variable,heterogeneous,6,present,0.880561113357544,1,vertical,vertical,1,0.858816083272298,red,6,1,550.57236181288,653.017481158529,721.200666434388,842.519411655264,721.200666434388,842.519411655264,970.628304621509,789.501930496736,1049.42763818712,546.982518841471,878.799333565612,357.480588344736,629.371695378491,410.498069503264,550.57236181288,653.017481158529,0,5,3,0,5,4,vertical,vertical,horizontal,horizontal,vertical,vertical
1a,2,100134,2,62,126,19,F,NA,variable,heterogeneous,5,present,NaN,0,vertical,none,0,0.752936776479085,red,4,2,738.309916622085,352.574589799621,995.341332995339,763.910840470068,704.475318678942,836.431882914531,995.341332995339,763.910840470068,1016.25226451989,464.870587620533,738.309916622085,352.574589799621,545.621167183745,582.212099195248,0,0,6,3,6,4,0,NaN,horizontal,horizontal,vertical,vertical,vertical,none
1a,2,100134,2,63,127,19,F,NA,variable,heterogeneous,5,absent,1.45938801765442,1,vertical,vertical,1,0.894109185536702,green,1,NaN,899.636437764765,834.728737630372,NaN,NaN,899.636437764765,834.728737630372,1054.0296480134,577.775285599347,857.362518857686,351.535633479765,581.422338320961,468.665290897936,607.549057043193,767.295052392579,0,0,4,6,3,0,6,NaN,vertical,vertical,horizontal,horizontal,vertical,none
1a,2,100134,2,64,128,19,F,NA,variable,heterogeneous,5,present,1.13907504081726,1,vertical,vertical,1,0.705879306793213,green,4,3,646.537169096228,396.34794493794,946.261991269517,391.116228706307,804.450363641507,854.96116226488,1043.85771277057,674.554784704298,946.261991269517,391.116228706307,646.537169096228,396.34794493794,558.892763222174,683.019879386575,0,0,5,0,6,4,3,NaN,vertical,horizontal,horizontal,vertical,horizontal,none
1a,2,100134,3,1,129,19,F,NA,variable,heterogeneous,6,absent,1.26712107658386,1,vertical,vertical,1,0.611764367421468,green,2,NaN,1000.94274216971,756.993676208043,NaN,NaN,764.510859255183,852.518357529101,1000.94274216971,756.993676208043,1036.43188291453,504.475318678942,835.489140744817,347.4816424709,599.057257830286,443.006323791957,563.568117085469,695.524681321058,5,4,3,6,0,3,horizontal,vertical,vertical,vertical,vertical,horizontal
1a,2,100134,3,2,130,19,F,NA,variable,heterogeneous,6,present,1.05927991867065,1,horizontal,horizontal,1,0.729408041636149,green,1,4,826.654758133252,853.60308331891,773.345241866748,346.39691668109,826.654758133252,853.60308331891,1032.95409169886,703.717843984329,1006.29933356561,450.114760665419,773.345241866748,346.39691668109,567.045908301137,496.282156015671,593.700666434388,749.885239334581,4,5,0,6,3,5,horizontal,vertical,vertical,horizontal,vertical,horizontal
1a,2,100134,3,3,131,19,F,NA,variable,heterogeneous,4,present,1.03798890113831,1,horizontal,horizontal,1,0.670586204528809,green,2,3,1045.12173246427,670.287525733335,870.287525733335,354.878267535729,729.712474266665,845.121732464271,1045.12173246427,670.287525733335,870.287525733335,354.878267535729,554.878267535729,529.712474266665,0,0,0,0,5,4,0,6,NaN,NaN,horizontal,horizontal,vertical,vertical,none,none
1a,2,100134,3,4,132,19,F,NA,variable,heterogeneous,3,absent,0.728010892868042,1,horizontal,horizontal,1,0.84705171585083,red,1,NaN,604.658667004661,763.910840470068,NaN,NaN,604.658667004661,763.910840470068,1039.62161830041,687.215136548046,755.719714694933,348.874022981887,0,0,0,0,0,0,4,3,6,NaN,NaN,NaN,horizontal,vertical,horizontal,none,none,none
1a,2,100134,3,5,133,19,F,NA,variable,heterogeneous,4,present,0.7482750415802,1,horizontal,horizontal,1,0.870580450693766,red,2,1,1050.31493177915,551.343706178981,848.656293821019,850.314931779154,848.656293821019,850.314931779154,1050.31493177915,551.343706178981,751.343706178981,349.685068220846,549.685068220846,648.656293821019,0,0,0,0,3,4,3,0,NaN,NaN,vertical,horizontal,vertical,vertical,none,none
1a,2,100134,3,6,134,19,F,NA,variable,heterogeneous,5,present,0.937218904495239,1,vertical,vertical,1,0.882344818115234,green,3,1,870.287525733335,354.878267535729,887.215136548046,839.621618300407,887.215136548046,839.621618300407,1054.84466088987,591.100628340862,870.287525733335,354.878267535729,588.595418998464,457.40580961496,599.057257830286,756.993676208043,0,0,3,5,4,6,5,NaN,horizontal,vertical,vertical,horizontal,horizontal,none
1a,2,100134,3,7,135,19,F,NA,variable,heterogeneous,4,present,1.030198097229,1,horizontal,horizontal,1,0.917637920379639,green,3,1,835.489140744817,347.4816424709,764.510859255183,852.518357529101,764.510859255183,852.518357529101,1052.5183575291,635.489140744817,835.489140744817,347.4816424709,547.481642470899,564.510859255183,0,0,0,0,6,5,4,5,NaN,NaN,horizontal,horizontal,horizontal,vertical,none,none
1a,2,100134,3,8,136,19,F,NA,variable,heterogeneous,3,absent,1.23552894592285,1,vertical,vertical,1,0.623528734842936,red,3,NaN,680.284751489598,374.848363820974,NaN,NaN,664.870587620533,816.252264519889,1054.84466088987,608.899371659138,680.284751489598,374.848363820974,0,0,0,0,0,0,6,6,4,NaN,NaN,NaN,horizontal,horizontal,vertical,none,none,none
1a,2,100134,3,9,137,19,F,NA,variable,heterogeneous,6,present,NaN,0,horizontal,none,0,0.917637920379639,green,5,1,591.116228706307,453.738008730483,777.775285599347,854.029648013395,777.775285599347,854.029648013395,1008.88377129369,746.261991269517,1031.10848569435,492.232343256122,822.224714400653,345.970351986605,591.116228706307,453.738008730483,568.891514305654,707.767656743878,0,5,3,3,4,6,horizontal,horizontal,vertical,vertical,horizontal,horizontal
1a,2,100134,3,10,138,19,F,NA,variable,heterogeneous,5,absent,1.25532197952271,1,vertical,vertical,1,0.811758613586426,red,1,NaN,795.549636358493,854.96116226488,NaN,NaN,795.549636358493,854.96116226488,1041.10723677783,683.019879386575,953.462830903772,396.34794493794,653.738008730483,391.116228706307,556.142287229426,674.554784704298,0,0,4,5,3,0,6,NaN,vertical,vertical,horizontal,vertical,vertical,none
1a,2,100134,3,11,139,19,F,NA,variable,heterogeneous,5,absent,1.29803705215454,1,vertical,vertical,1,1.08233906428019,green,3,NaN,1008.88377129369,453.738008730483,NaN,NaN,716.980120613425,841.107236777826,1003.65205506206,753.462830903772,1008.88377129369,453.738008730483,725.445215295702,356.142287229426,545.03883773512,595.549636358493,0,0,3,5,4,3,0,NaN,horizontal,vertical,vertical,horizontal,horizontal,none
1a,2,100134,3,12,140,19,F,NA,variable,heterogeneous,3,absent,0.742854833602905,1,vertical,vertical,1,0.729408041636149,green,3,NaN,550.57236181288,546.982518841471,NaN,NaN,878.799333565612,842.519411655264,970.628304621509,410.498069503264,550.57236181288,546.982518841471,0,0,0,0,0,0,6,6,4,NaN,NaN,NaN,vertical,vertical,vertical,none,none,none
1a,2,100134,3,13,141,19,F,NA,variable,heterogeneous,5,absent,0.893918991088867,1,horizontal,horizontal,1,0.799994246164958,red,2,NaN,1053.09926866854,631.076682568313,NaN,NaN,848.656293821019,850.314931779154,1053.09926866854,631.076682568313,907.767656743878,368.891514305654,613.504806087112,426.090418184063,576.971974679454,723.626453162816,0,0,5,4,5,0,3,NaN,horizontal,horizontal,vertical,horizontal,horizontal,none
1a,2,100134,3,14,142,19,F,NA,variable,heterogeneous,5,present,0.904035091400146,1,horizontal,horizontal,1,1.01175285975138,green,2,1,1054.65053136242,586.654331158049,891.383827134052,838.063008756786,891.383827134052,838.063008756786,1054.65053136242,586.654331158049,865.998856501143,353.688914296288,586.139005173917,461.117046071168,601.827779828472,760.476699717708,0,0,5,4,5,0,6,NaN,horizontal,horizontal,horizontal,horizontal,horizontal,none
1a,2,100134,3,15,143,19,F,NA,variable,heterogeneous,4,absent,0.631133079528809,1,vertical,vertical,1,0.823522981007894,red,1,NaN,650.114760665419,806.299333565612,NaN,NaN,650.114760665419,806.299333565612,1006.29933356561,749.885239334581,949.885239334581,393.700666434388,593.700666434388,450.114760665419,0,0,0,0,4,0,5,0,NaN,NaN,vertical,horizontal,vertical,horizontal,none,none
1a,2,100134,3,16,144,19,F,NA,variable,heterogeneous,5,present,0.727805137634277,0,horizontal,vertical,1,0.811758613586426,red,2,3,1053.60308331891,626.654758133252,903.717843984329,367.045908301137,853.017481158529,849.42763818712,1053.60308331891,626.654758133252,903.717843984329,367.045908301137,610.498069503264,429.371695378491,579.163522034968,727.5,0,0,3,4,5,5,6,NaN,vertical,horizontal,horizontal,vertical,horizontal,none
1a,2,100134,3,17,145,19,F,NA,variable,heterogeneous,3,present,0.62942910194397,1,horizontal,horizontal,1,0.752936776479085,red,2,1,1054.0296480134,577.775285599347,692.232343256122,831.108485694346,692.232343256122,831.108485694346,1054.0296480134,577.775285599347,653.738008730483,391.116228706307,0,0,0,0,0,0,0,4,6,NaN,NaN,NaN,horizontal,horizontal,horizontal,none,none,none
1a,2,100134,3,18,146,19,F,NA,variable,heterogeneous,6,present,0.899819850921631,1,vertical,vertical,1,0.870580450693766,green,2,3,1011.40458100154,742.594190385041,1029.19248180629,488.215357568785,782.212099195248,854.378832816255,1011.40458100154,742.594190385041,1029.19248180629,488.215357568785,817.787900804752,345.621167183745,588.595418998464,457.40580961496,570.807518193712,711.784642431215,5,4,6,3,5,6,vertical,vertical,vertical,vertical,vertical,horizontal
1a,2,100134,3,19,147,19,F,NA,variable,heterogeneous,4,absent,1.36752486228943,1,vertical,vertical,1,0.882344818115234,green,1,NaN,883.019879386575,841.107236777826,NaN,NaN,883.019879386575,841.107236777826,1041.10723677783,516.980120613425,716.980120613425,358.892763222174,558.892763222174,683.019879386575,0,0,0,0,4,0,6,5,NaN,NaN,vertical,horizontal,horizontal,horizontal,none,none
1a,2,100134,3,20,148,19,F,NA,variable,heterogeneous,3,absent,0.69689679145813,1,vertical,vertical,1,0.694114939371745,green,2,NaN,1029.19248180629,488.215357568785,NaN,NaN,782.212099195248,854.378832816255,1029.19248180629,488.215357568785,588.595418998464,457.40580961496,0,0,0,0,0,0,5,4,0,NaN,NaN,NaN,vertical,vertical,vertical,none,none,none
1a,2,100134,3,21,149,19,F,NA,variable,heterogeneous,6,absent,1.45083212852478,1,horizontal,horizontal,1,0.988224124908447,green,4,NaN,708.616172865948,361.936991243214,NaN,NaN,891.383827134052,838.063008756786,1051.86052685176,639.890788585259,960.476699717708,401.827779828472,708.616172865948,361.936991243214,548.13947314824,560.109211414741,639.523300282292,798.172220171528,5,5,3,4,6,0,horizontal,horizontal,vertical,horizontal,vertical,horizontal
1a,2,100134,3,22,150,19,F,NA,variable,heterogeneous,6,absent,1.69702315330505,1,vertical,vertical,1,1.04704596201579,green,1,NaN,684.232422566416,827.206663668034,NaN,NaN,684.232422566416,827.206663668034,938.882953928832,813.860994826083,1054.65053136242,586.654331158049,915.767577433584,372.793336331966,661.117046071168,386.139005173917,545.349468637584,613.345668841951,4,5,3,0,5,6,vertical,vertical,horizontal,vertical,vertical,vertical
1a,2,100134,3,23,151,19,F,NA,variable,heterogeneous,6,present,1.20461893081665,1,vertical,vertical,1,0.858816083272298,red,1,5,786.654331158049,854.650531362416,586.139005173917,461.117046071168,786.654331158049,854.650531362416,1013.86099482608,738.882953928832,1027.20666366803,484.232422566416,813.345668841951,345.349468637584,586.139005173917,461.117046071168,572.793336331966,715.767577433584,4,3,0,3,0,6,vertical,horizontal,horizontal,horizontal,horizontal,vertical
1a,2,100134,3,24,152,19,F,NA,variable,heterogeneous,4,absent,0.833961963653564,1,vertical,vertical,1,1.07057469685872,red,4,NaN,548.13947314824,639.890788585259,NaN,NaN,839.890788585259,851.86052685176,1051.86052685176,560.109211414741,760.109211414741,348.13947314824,548.13947314824,639.890788585259,0,0,0,0,3,6,6,4,NaN,NaN,vertical,horizontal,vertical,vertical,none,none
1a,2,100134,3,25,153,19,F,NA,variable,heterogeneous,6,absent,1.39881491661072,1,horizontal,horizontal,1,0.78822987874349,red,5,NaN,626.090418184063,413.504806087112,NaN,NaN,725.445215295702,843.857712770574,973.909581815937,786.495193912888,1048.46436652023,542.637481142314,874.554784704298,356.142287229426,626.090418184063,413.504806087112,551.535633479765,657.362518857686,0,5,6,0,4,3,vertical,vertical,vertical,vertical,horizontal,vertical
1a,2,100134,3,26,154,19,F,NA,variable,heterogeneous,3,absent,0.884042978286743,1,horizontal,horizontal,1,1.04704596201579,red,3,NaN,546.39691668109,573.345241866748,NaN,NaN,903.717843984329,832.954091698863,949.885239334581,393.700666434388,546.39691668109,573.345241866748,0,0,0,0,0,0,0,6,4,NaN,NaN,NaN,vertical,horizontal,horizontal,none,none,none
1a,2,100134,3,27,155,19,F,NA,variable,heterogeneous,4,absent,0.826653003692627,1,vertical,vertical,1,0.635293102264404,green,2,NaN,1039.62161830041,512.784863451954,NaN,NaN,887.215136548046,839.621618300407,1039.62161830041,512.784863451954,712.784863451954,360.378381699593,560.378381699593,687.215136548046,0,0,0,0,5,4,0,5,NaN,NaN,horizontal,vertical,vertical,horizontal,none,none
1a,2,100134,3,28,156,19,F,NA,variable,heterogeneous,5,present,1.5169198513031,1,vertical,vertical,1,0.882344818115234,red,3,5,844.280285305067,348.874022981887,616.568350913644,777.137884467044,911.784642431215,829.192481806288,1052.5183575291,564.510859255183,844.280285305067,348.874022981887,574.848363820974,480.284751489598,616.568350913644,777.137884467044,0,0,6,5,4,6,0,NaN,vertical,horizontal,vertical,vertical,horizontal,none
1a,2,100134,3,29,157,19,F,NA,variable,heterogeneous,3,absent,1.20452094078064,1,horizontal,horizontal,1,0.84705171585083,green,3,NaN,572.793336331966,484.232422566416,NaN,NaN,813.345668841951,854.650531362416,1013.86099482608,461.117046071168,572.793336331966,484.232422566416,0,0,0,0,0,0,6,0,4,NaN,NaN,NaN,horizontal,vertical,horizontal,none,none,none
1a,2,100134,3,30,158,19,F,NA,variable,heterogeneous,5,absent,0.93738317489624,1,horizontal,horizontal,1,0.823522981007894,red,5,NaN,554.878267535729,670.287525733335,NaN,NaN,791.100628340862,854.844660889869,1039.62161830041,687.215136548046,956.993676208043,399.057257830286,657.405809614959,388.595418998464,554.878267535729,670.287525733335,0,0,0,6,5,6,4,NaN,horizontal,horizontal,vertical,horizontal,horizontal,none
1a,2,100134,3,31,159,19,F,NA,variable,heterogeneous,5,absent,0.738822937011719,1,vertical,vertical,1,0.729408041636149,red,5,NaN,551.535633479765,657.362518857686,NaN,NaN,777.775285599347,854.029648013395,1034.72873763037,699.636437764765,967.295052392579,407.549057043193,668.665290897936,381.422338320961,551.535633479765,657.362518857686,0,0,6,0,0,5,4,NaN,horizontal,vertical,vertical,vertical,vertical,none
1a,2,100134,3,32,160,19,F,NA,variable,heterogeneous,6,present,1.75010299682617,1,vertical,vertical,1,1.02351722717285,red,2,6,960.476699717708,798.172220171528,548.13947314824,639.890788585259,708.616172865948,838.063008756786,960.476699717708,798.172220171528,1051.86052685176,560.109211414741,891.383827134052,361.936991243214,639.523300282292,401.827779828472,548.13947314824,639.890788585259,0,4,3,6,5,3,horizontal,vertical,horizontal,vertical,horizontal,horizontal
1a,2,100134,3,33,161,19,F,NA,variable,heterogeneous,3,present,0.847203969955444,1,horizontal,horizontal,1,1.09410343170166,green,2,1,1032.95409169886,703.717843984329,593.700666434388,749.885239334581,593.700666434388,749.885239334581,1032.95409169886,703.717843984329,773.345241866748,346.39691668109,0,0,0,0,0,0,5,4,0,NaN,NaN,NaN,horizontal,horizontal,horizontal,none,none,none
1a,2,100134,3,34,162,19,F,NA,variable,heterogeneous,4,present,1.09809017181396,1,horizontal,horizontal,1,0.682350571950277,red,1,2,734.001143498857,846.311085703712,1046.31108570371,665.998856501143,734.001143498857,846.311085703712,1046.31108570371,665.998856501143,865.998856501143,353.688914296288,553.688914296288,534.001143498857,0,0,0,0,4,3,5,0,NaN,NaN,horizontal,horizontal,horizontal,horizontal,none,none
1a,2,100134,3,35,163,19,F,NA,variable,heterogeneous,4,absent,0.7309250831604,1,horizontal,horizontal,1,0.741172409057617,green,3,NaN,680.284751489598,374.848363820974,NaN,NaN,919.715248510402,825.151636179026,1025.15163617903,480.284751489598,680.284751489598,374.848363820974,574.848363820974,719.715248510402,0,0,0,0,0,5,4,6,NaN,NaN,horizontal,horizontal,horizontal,horizontal,none,none
1a,2,100134,3,36,164,19,F,NA,variable,heterogeneous,6,present,0.805817842483521,1,horizontal,horizontal,1,0.799994246164958,red,2,1,1054.84466088987,608.899371659138,919.715248510402,825.151636179026,919.715248510402,825.151636179026,1054.84466088987,608.899371659138,935.129412379467,383.747735480111,680.284751489598,374.848363820974,545.155339110131,591.100628340862,664.870587620533,816.252264519889,5,4,0,6,0,3,horizontal,horizontal,horizontal,horizontal,vertical,horizontal
1a,2,100134,3,37,165,19,F,NA,variable,heterogeneous,3,present,0.694317102432251,1,vertical,vertical,1,0.611764367421468,red,3,2,672.5,379.163522034968,1055,600,672.5,820.836477965032,1055,600,672.5,379.163522034968,0,0,0,0,0,0,3,0,4,NaN,NaN,NaN,horizontal,horizontal,vertical,none,none,none
1a,2,100134,3,38,166,19,F,NA,variable,heterogeneous,6,absent,1.52925896644592,1,horizontal,horizontal,1,0.835287348429362,red,2,NaN,1054.65053136242,613.345668841951,NaN,NaN,915.767577433584,827.206663668034,1054.65053136242,613.345668841951,938.882953928832,386.139005173917,684.232422566416,372.793336331966,545.349468637584,586.654331158049,661.117046071168,813.860994826083,3,4,0,6,5,0,horizontal,horizontal,horizontal,vertical,horizontal,horizontal
1a,2,100134,3,39,167,19,F,NA,variable,heterogeneous,5,present,0.924431085586548,1,vertical,vertical,1,0.623528734842936,red,3,2,853.017481158529,350.57236181288,1053.60308331891,573.345241866748,903.717843984329,832.954091698863,1053.60308331891,573.345241866748,853.017481158529,350.57236181288,579.163522034968,472.5,610.498069503264,770.628304621509,0,0,0,3,4,5,6,NaN,vertical,vertical,vertical,horizontal,vertical,none
1a,2,100134,3,40,168,19,F,NA,variable,heterogeneous,3,present,0.706597089767456,0,horizontal,vertical,1,0.776465511322021,red,3,1,700.363562235235,365.271262369628,646.537169096228,803.65205506206,646.537169096228,803.65205506206,1053.09926866854,631.076682568313,700.363562235235,365.271262369628,0,0,0,0,0,0,0,6,4,NaN,NaN,NaN,horizontal,horizontal,horizontal,none,none,none
1a,2,100134,3,41,169,19,F,NA,variable,heterogeneous,5,absent,0.938171863555908,1,horizontal,horizontal,1,0.65882183710734,green,2,NaN,1054.84466088987,608.899371659138,NaN,NaN,870.287525733335,845.121732464271,1054.84466088987,608.899371659138,887.215136548046,360.378381699593,599.057257830286,443.006323791957,588.595418998464,742.594190385041,0,0,6,4,3,5,0,NaN,horizontal,horizontal,vertical,horizontal,vertical,none
1a,2,100134,3,42,170,19,F,NA,variable,heterogeneous,4,absent,NaN,0,horizontal,none,0,0.729408041636149,red,2,NaN,980.31222920257,419.68777079743,NaN,NaN,980.31222920257,780.31222920257,980.31222920257,419.68777079743,619.68777079743,419.68777079743,619.68777079743,780.31222920257,0,0,0,0,3,4,5,6,NaN,NaN,vertical,horizontal,horizontal,vertical,none,none
1a,2,100134,3,43,171,19,F,NA,variable,heterogeneous,3,present,0.775943040847778,1,vertical,vertical,1,0.6,red,1,2,883.019879386575,841.107236777826,967.295052392579,407.549057043193,883.019879386575,841.107236777826,967.295052392579,407.549057043193,549.685068220846,551.343706178981,0,0,0,0,0,0,4,5,6,NaN,NaN,NaN,vertical,horizontal,horizontal,none,none,none
1a,2,100134,3,44,172,19,F,NA,variable,heterogeneous,3,present,0.685139179229736,1,horizontal,horizontal,1,0.670586204528809,green,2,3,1048.46436652023,657.362518857686,725.445215295702,356.142287229426,626.090418184063,786.495193912888,1048.46436652023,657.362518857686,725.445215295702,356.142287229426,0,0,0,0,0,0,3,4,0,NaN,NaN,NaN,horizontal,horizontal,vertical,none,none,none
1a,2,100134,3,45,173,19,F,NA,variable,heterogeneous,5,present,0.823275089263916,1,horizontal,horizontal,1,0.6,green,3,4,1041.10723677783,516.980120613425,795.549636358493,345.03883773512,653.738008730483,808.883771293693,953.462830903772,803.65205506206,1041.10723677783,516.980120613425,795.549636358493,345.03883773512,556.142287229426,525.445215295702,0,0,0,5,4,3,5,NaN,horizontal,vertical,horizontal,vertical,horizontal,none
1a,2,100134,3,46,174,19,F,NA,variable,heterogeneous,4,present,0.682829141616821,1,vertical,vertical,1,0.952931022644043,red,2,4,1051.86052685176,639.890788585259,548.13947314824,560.109211414741,760.109211414741,851.86052685176,1051.86052685176,639.890788585259,839.890788585259,348.13947314824,548.13947314824,560.109211414741,0,0,0,0,3,4,0,5,NaN,NaN,horizontal,vertical,vertical,horizontal,none,none
1a,2,100134,3,47,175,19,F,NA,variable,heterogeneous,3,absent,0.728453159332275,1,vertical,vertical,1,0.78822987874349,red,1,NaN,657.405809614959,811.404581001536,NaN,NaN,657.405809614959,811.404581001536,1054.37883281626,617.787900804752,688.215357568785,370.807518193712,0,0,0,0,0,0,4,0,6,NaN,NaN,NaN,vertical,horizontal,vertical,none,none,none
1a,2,100134,3,48,176,19,F,NA,variable,heterogeneous,3,present,0.558296918869019,0,vertical,horizontal,1,0.741172409057617,green,3,2,572.793336331966,715.767577433584,813.345668841951,345.349468637584,1013.86099482608,738.882953928832,813.345668841951,345.349468637584,572.793336331966,715.767577433584,0,0,0,0,0,0,3,6,4,NaN,NaN,NaN,vertical,vertical,vertical,none,none,none
1a,2,100134,3,49,177,19,F,NA,variable,heterogeneous,5,present,0.789912939071655,1,vertical,vertical,1,0.611764367421468,green,4,3,607.549057043193,432.704947607421,899.636437764765,365.271262369628,857.362518857686,848.464366520235,1054.0296480134,622.224714400653,899.636437764765,365.271262369628,607.549057043193,432.704947607421,581.422338320961,731.334709102064,0,0,6,3,3,4,5,NaN,vertical,horizontal,vertical,vertical,vertical,none
1a,2,100134,3,50,178,19,F,NA,variable,heterogeneous,6,present,0.924375057220459,1,vertical,vertical,1,0.729408041636149,green,3,2,946.261991269517,391.116228706307,1054.0296480134,622.224714400653,907.767656743878,831.108485694346,1054.0296480134,622.224714400653,946.261991269517,391.116228706307,692.232343256122,368.891514305654,545.970351986605,577.775285599347,653.738008730483,808.883771293693,0,3,4,3,0,5,horizontal,vertical,vertical,vertical,horizontal,horizontal
1a,2,100134,3,51,179,19,F,NA,variable,heterogeneous,6,absent,1.35492086410522,1,vertical,vertical,1,0.6,red,2,NaN,1054.96116226488,604.450363641507,NaN,NaN,923.626453162816,823.028025320546,1054.96116226488,604.450363641507,931.334709102064,381.422338320961,676.373546837184,376.971974679454,545.03883773512,595.549636358493,668.665290897936,818.577661679039,0,4,3,5,5,3,vertical,vertical,horizontal,vertical,horizontal,vertical
1a,2,100134,3,52,180,19,F,NA,variable,heterogeneous,4,present,0.790740966796875,1,vertical,vertical,1,0.623528734842936,red,3,4,632.704947607421,407.549057043193,607.549057043193,767.295052392579,967.295052392579,792.450942956807,992.450942956807,432.704947607421,632.704947607421,407.549057043193,607.549057043193,767.295052392579,0,0,0,0,6,0,4,3,NaN,NaN,vertical,horizontal,vertical,vertical,none,none
1a,2,100134,3,53,181,19,F,NA,variable,heterogeneous,4,absent,1.20899391174316,1,horizontal,horizontal,1,0.917637920379639,green,1,NaN,653.738008730483,808.883771293693,NaN,NaN,653.738008730483,808.883771293693,1008.88377129369,746.261991269517,946.261991269517,391.116228706307,591.116228706307,453.738008730483,0,0,0,0,4,3,5,3,NaN,NaN,horizontal,vertical,horizontal,horizontal,none,none
1a,2,100134,3,54,182,19,F,NA,variable,heterogeneous,4,present,1.04206204414368,1,vertical,vertical,1,0.635293102264404,green,1,2,848.656293821019,850.314931779154,1050.31493177915,551.343706178981,848.656293821019,850.314931779154,1050.31493177915,551.343706178981,751.343706178981,349.685068220846,549.685068220846,648.656293821019,0,0,0,0,4,5,0,6,NaN,NaN,vertical,horizontal,vertical,horizontal,none,none
1a,2,100134,3,55,183,19,F,NA,variable,heterogeneous,6,absent,1.09414219856262,1,vertical,vertical,1,0.941166655222575,red,1,NaN,716.980120613425,841.107236777826,NaN,NaN,716.980120613425,841.107236777826,967.295052392579,792.450942956807,1050.31493177915,551.343706178981,883.019879386575,358.892763222174,632.704947607421,407.549057043193,549.685068220846,648.656293821019,4,3,6,5,6,3,vertical,vertical,horizontal,vertical,horizontal,horizontal
1a,2,100134,3,56,184,19,F,NA,variable,heterogeneous,3,present,0.901367902755737,1,vertical,vertical,1,0.670586204528809,green,2,3,857.362518857686,351.535633479765,556.142287229426,674.554784704298,986.495193912888,773.909581815937,857.362518857686,351.535633479765,556.142287229426,674.554784704298,0,0,0,0,0,0,0,4,5,NaN,NaN,NaN,horizontal,vertical,vertical,none,none,none
1a,2,100134,3,57,185,19,F,NA,variable,heterogeneous,3,absent,0.623399019241333,1,horizontal,horizontal,1,0.78822987874349,green,3,NaN,567.045908301137,496.282156015671,NaN,NaN,826.654758133252,853.60308331891,1006.29933356561,450.114760665419,567.045908301137,496.282156015671,0,0,0,0,0,0,6,0,4,NaN,NaN,NaN,horizontal,vertical,horizontal,none,none,none
1a,2,100134,3,58,186,19,F,NA,variable,heterogeneous,4,present,0.625635862350464,1,vertical,vertical,1,1.08233906428019,green,2,3,989.501930496736,770.628304621509,970.628304621509,410.498069503264,629.371695378491,789.501930496736,989.501930496736,770.628304621509,970.628304621509,410.498069503264,610.498069503264,429.371695378491,0,0,0,0,6,4,3,3,NaN,NaN,horizontal,vertical,vertical,horizontal,none,none
1a,2,100134,3,59,187,19,F,NA,variable,heterogeneous,4,absent,0.676427841186523,1,horizontal,horizontal,1,0.705879306793213,red,4,NaN,550.57236181288,546.982518841471,NaN,NaN,746.982518841471,849.42763818712,1049.42763818712,653.017481158529,853.017481158529,350.57236181288,550.57236181288,546.982518841471,0,0,0,0,0,5,3,4,NaN,NaN,vertical,horizontal,horizontal,horizontal,none,none
1a,2,100134,3,60,188,19,F,NA,variable,heterogeneous,6,absent,0.770987987518311,1,horizontal,horizontal,1,1.02351722717285,green,5,NaN,581.422338320961,468.665290897936,NaN,NaN,795.549636358493,854.96116226488,1018.57766167904,731.334709102064,1023.02802532055,476.373546837184,804.450363641507,345.03883773512,581.422338320961,468.665290897936,576.971974679454,723.626453162816,6,3,3,5,4,0,vertical,horizontal,vertical,vertical,horizontal,horizontal
1a,2,100134,3,61,189,19,F,NA,variable,heterogeneous,5,absent,1.31419897079468,1,horizontal,horizontal,1,0.999988492329915,green,5,NaN,650.114760665419,806.299333565612,NaN,NaN,949.885239334581,806.299333565612,1042.51941165526,521.200666434388,800,345,557.480588344736,521.200666434388,650.114760665419,806.299333565612,0,0,0,3,6,6,4,NaN,vertical,horizontal,horizontal,vertical,horizontal,none
1a,2,100134,3,62,190,19,F,NA,variable,heterogeneous,5,present,1.25361394882202,1,horizontal,horizontal,1,1.04704596201579,red,4,1,629.371695378491,410.498069503264,826.654758133252,853.60308331891,826.654758133252,853.60308331891,1049.42763818712,653.017481158529,927.5,379.163522034968,629.371695378491,410.498069503264,567.045908301137,703.717843984329,0,0,6,3,0,4,0,NaN,vertical,vertical,vertical,horizontal,horizontal,none
1a,2,100134,3,63,191,19,F,NA,variable,heterogeneous,6,present,0.804331064224243,1,horizontal,horizontal,1,1.07057469685872,red,4,5,808.899371659138,345.155339110131,583.747735480111,464.870587620533,791.100628340862,854.844660889869,1016.25226451989,735.129412379467,1025.15163617903,480.284751489598,808.899371659138,345.155339110131,583.747735480111,464.870587620533,574.848363820974,719.715248510402,3,5,6,4,3,0,vertical,horizontal,horizontal,horizontal,vertical,vertical
1a,2,100134,3,64,192,19,F,NA,variable,heterogeneous,5,absent,1.29777503013611,1,vertical,vertical,1,0.647057469685872,green,1,NaN,746.982518841471,849.42763818712,NaN,NaN,746.982518841471,849.42763818712,1020.83647796503,727.5,989.501930496736,429.371695378491,696.282156015671,367.045908301137,546.39691668109,626.654758133252,0,0,4,3,3,6,5,NaN,vertical,horizontal,vertical,vertical,vertical,none
1a,2,100134,4,1,193,19,F,NA,variable,heterogeneous,3,absent,0.840025901794434,1,vertical,vertical,1,1.05881032943726,red,2,NaN,1052.5183575291,635.489140744817,NaN,NaN,643.006323791957,800.942742169714,1052.5183575291,635.489140744817,704.475318678942,363.568117085469,0,0,0,0,0,0,0,4,0,NaN,NaN,NaN,horizontal,vertical,horizontal,none,none,none
1a,2,100134,4,2,194,19,F,NA,variable,heterogeneous,3,present,0.57796311378479,1,vertical,vertical,1,1.04704596201579,green,2,3,977.137884467044,416.568350913644,552.574589799621,538.309916622085,870.287525733335,845.121732464271,977.137884467044,416.568350913644,552.574589799621,538.309916622085,0,0,0,0,0,0,0,4,3,NaN,NaN,NaN,vertical,vertical,horizontal,none,none,none
1a,2,100134,4,3,195,19,F,NA,variable,heterogeneous,3,present,0.448447942733765,1,horizontal,horizontal,1,0.941166655222575,red,3,1,556.142287229426,674.554784704298,986.495193912888,773.909581815937,986.495193912888,773.909581815937,857.362518857686,351.535633479765,556.142287229426,674.554784704298,0,0,0,0,0,0,6,0,4,NaN,NaN,NaN,vertical,horizontal,horizontal,none,none,none
1a,2,100134,4,4,196,19,F,NA,variable,heterogeneous,4,present,1.35488200187683,1,vertical,vertical,1,1.05881032943726,green,1,2,938.882953928832,813.860994826083,1013.86099482608,461.117046071168,938.882953928832,813.860994826083,1013.86099482608,461.117046071168,661.117046071168,386.139005173917,586.139005173917,738.882953928832,0,0,0,0,4,6,5,6,NaN,NaN,vertical,vertical,horizontal,horizontal,none,none
1a,2,100134,4,5,197,19,F,NA,variable,heterogeneous,6,absent,1.26293396949768,1,vertical,vertical,1,0.647057469685872,green,1,NaN,773.345241866748,853.60308331891,NaN,NaN,773.345241866748,853.60308331891,1006.29933356561,749.885239334581,1032.95409169886,496.282156015671,826.654758133252,346.39691668109,593.700666434388,450.114760665419,567.045908301137,703.717843984329,4,5,0,3,6,0,vertical,vertical,horizontal,horizontal,vertical,vertical
1a,2,100134,4,6,198,19,F,NA,variable,heterogeneous,6,absent,1.68047714233398,0,horizontal,vertical,1,0.999988492329915,green,4,NaN,755.719714694933,348.874022981887,NaN,NaN,844.280285305067,851.125977018113,1039.62161830041,687.215136548046,995.341332995339,436.089159529932,755.719714694933,348.874022981887,560.378381699593,512.784863451954,604.658667004661,763.910840470068,5,0,0,4,6,6,horizontal,vertical,horizontal,horizontal,vertical,horizontal
1a,2,100134,4,7,199,19,F,NA,variable,heterogeneous,6,absent,1.14737415313721,1,vertical,vertical,1,1.05881032943726,red,4,NaN,708.616172865948,361.936991243214,NaN,NaN,891.383827134052,838.063008756786,1051.86052685176,639.890788585259,960.476699717708,401.827779828472,708.616172865948,361.936991243214,548.13947314824,560.109211414741,639.523300282292,798.172220171528,3,5,3,4,5,0,vertical,horizontal,vertical,vertical,horizontal,vertical
1a,2,100134,4,8,200,19,F,NA,variable,heterogeneous,5,absent,0.790321826934814,1,horizontal,horizontal,1,1.01175285975138,green,5,NaN,588.595418998464,742.594190385041,NaN,NaN,870.287525733335,845.121732464271,1054.84466088987,608.899371659138,887.215136548046,360.378381699593,599.057257830286,443.006323791957,588.595418998464,742.594190385041,0,0,0,3,6,0,4,NaN,vertical,vertical,horizontal,horizontal,horizontal,none
1a,2,100134,4,9,201,19,F,NA,variable,heterogeneous,6,absent,0.667062997817993,1,horizontal,horizontal,1,0.811758613586426,red,6,NaN,664.870587620533,816.252264519889,NaN,NaN,919.715248510402,825.151636179026,1054.84466088987,608.899371659138,935.129412379467,383.747735480111,680.284751489598,374.848363820974,545.155339110131,591.100628340862,664.870587620533,816.252264519889,6,5,5,3,6,4,vertical,horizontal,horizontal,vertical,vertical,horizontal
1a,2,100134,4,10,202,19,F,NA,variable,heterogeneous,3,present,0.800563097000122,1,horizontal,horizontal,1,0.811758613586426,red,2,1,1049.42763818712,653.017481158529,629.371695378491,789.501930496736,629.371695378491,789.501930496736,1049.42763818712,653.017481158529,721.200666434388,357.480588344736,0,0,0,0,0,0,0,4,5,NaN,NaN,NaN,horizontal,horizontal,vertical,none,none,none
1a,2,100134,4,11,203,19,F,NA,variable,heterogeneous,5,absent,1.3943829536438,1,vertical,vertical,1,1.08233906428019,green,3,NaN,1008.88377129369,453.738008730483,NaN,NaN,716.980120613425,841.107236777826,1003.65205506206,753.462830903772,1008.88377129369,453.738008730483,725.445215295702,356.142287229426,545.03883773512,595.549636358493,0,0,3,0,4,5,6,NaN,vertical,horizontal,vertical,horizontal,vertical,none
1a,2,100134,4,12,204,19,F,NA,variable,heterogeneous,3,absent,0.742820978164673,1,horizontal,horizontal,1,0.611764367421468,green,1,NaN,629.371695378491,789.501930496736,NaN,NaN,629.371695378491,789.501930496736,1049.42763818712,653.017481158529,721.200666434388,357.480588344736,0,0,0,0,0,0,4,5,0,NaN,NaN,NaN,horizontal,horizontal,horizontal,none,none,none
1a,2,100134,4,13,205,19,F,NA,variable,heterogeneous,3,absent,0.599310159683228,1,horizontal,horizontal,1,0.670586204528809,green,2,NaN,1051.12597701811,644.280285305067,NaN,NaN,636.089159529932,795.341332995339,1051.12597701811,644.280285305067,712.784863451954,360.378381699593,0,0,0,0,0,0,3,4,5,NaN,NaN,NaN,vertical,horizontal,vertical,none,none,none
1a,2,100134,4,14,206,19,F,NA,variable,heterogeneous,3,present,0.568320989608765,1,horizontal,horizontal,1,0.635293102264404,green,3,1,557.480588344736,678.799333565612,989.501930496736,770.628304621509,989.501930496736,770.628304621509,853.017481158529,350.57236181288,557.480588344736,678.799333565612,0,0,0,0,0,0,0,5,4,NaN,NaN,NaN,vertical,horizontal,horizontal,none,none,none
1a,2,100134,4,15,207,19,F,NA,variable,heterogeneous,6,present,0.605309009552002,1,vertical,vertical,1,0.682350571950277,red,3,2,1029.19248180629,488.215357568785,1011.40458100154,742.594190385041,782.212099195248,854.378832816255,1011.40458100154,742.594190385041,1029.19248180629,488.215357568785,817.787900804752,345.621167183745,588.595418998464,457.40580961496,570.807518193712,711.784642431215,5,0,4,0,6,5,horizontal,vertical,vertical,vertical,vertical,vertical
1a,2,100134,4,16,208,19,F,NA,variable,heterogeneous,6,present,0.865256071090698,1,horizontal,horizontal,1,0.976459757486979,red,2,4,1045.12173246427,670.287525733335,738.309916622085,352.574589799621,861.690083377915,847.425410200379,1045.12173246427,670.287525733335,983.431649086356,422.862115532956,738.309916622085,352.574589799621,554.878267535729,529.712474266665,616.568350913644,777.137884467044,3,4,5,5,0,6,horizontal,horizontal,horizontal,vertical,horizontal,horizontal
1a,2,100134,4,17,209,19,F,NA,variable,heterogeneous,5,absent,0.63938307762146,0,horizontal,vertical,1,0.835287348429362,red,5,NaN,548.13947314824,639.890788585259,NaN,NaN,760.109211414741,851.86052685176,1027.20666366803,715.767577433584,980.31222920257,419.68777079743,684.232422566416,372.793336331966,548.13947314824,639.890788585259,0,0,0,5,6,6,4,NaN,vertical,horizontal,vertical,horizontal,horizontal,none
1a,2,100134,4,18,210,19,F,NA,variable,heterogeneous,6,absent,0.658277034759521,1,vertical,vertical,1,1.09410343170166,red,1,NaN,848.656293821019,850.314931779154,NaN,NaN,848.656293821019,850.314931779154,1041.10723677783,683.019879386575,992.450942956807,432.704947607421,751.343706178981,349.685068220846,558.892763222174,516.980120613425,607.549057043193,767.295052392579,4,3,6,5,0,3,vertical,horizontal,horizontal,horizontal,horizontal,horizontal
1a,2,100134,4,19,211,19,F,NA,variable,heterogeneous,4,present,1.00180387496948,1,horizontal,horizontal,1,0.705879306793213,green,1,3,844.280285305067,851.125977018113,755.719714694933,348.874022981887,844.280285305067,851.125977018113,1051.12597701811,555.719714694933,755.719714694933,348.874022981887,548.874022981887,644.280285305067,0,0,0,0,4,5,6,0,NaN,NaN,horizontal,vertical,horizontal,vertical,none,none
1a,2,100134,4,20,212,19,F,NA,variable,heterogeneous,3,present,0.715207099914551,0,vertical,horizontal,1,1.05881032943726,green,2,3,1011.40458100154,457.40580961496,570.807518193712,488.215357568785,817.787900804752,854.378832816255,1011.40458100154,457.40580961496,570.807518193712,488.215357568785,0,0,0,0,0,0,5,4,6,NaN,NaN,NaN,horizontal,vertical,horizontal,none,none,none
1a,2,100134,4,21,213,19,F,NA,variable,heterogeneous,5,present,0.517524003982544,1,horizontal,horizontal,1,0.999988492329915,green,2,1,1048.46436652023,542.637481142314,931.334709102064,818.577661679039,931.334709102064,818.577661679039,1048.46436652023,542.637481142314,822.224714400653,345.970351986605,565.271262369628,500.363562235235,632.704947607421,792.450942956807,0,0,3,4,0,5,0,NaN,horizontal,horizontal,vertical,horizontal,horizontal,none
1a,2,100134,4,22,214,19,F,NA,variable,heterogeneous,3,absent,0.682841062545776,1,vertical,vertical,1,0.929402287801107,green,3,NaN,576.971974679454,723.626453162816,NaN,NaN,1018.57766167904,731.334709102064,804.450363641507,345.03883773512,576.971974679454,723.626453162816,0,0,0,0,0,0,3,0,4,NaN,NaN,NaN,vertical,vertical,vertical,none,none,none
1a,2,100134,4,23,215,19,F,NA,variable,heterogeneous,6,present,1.52499794960022,1,horizontal,horizontal,1,0.799994246164958,green,3,6,1027.20666366803,484.232422566416,572.793336331966,715.767577433584,786.654331158049,854.650531362416,1013.86099482608,738.882953928832,1027.20666366803,484.232422566416,813.345668841951,345.349468637584,586.139005173917,461.117046071168,572.793336331966,715.767577433584,3,6,4,0,5,6,horizontal,horizontal,horizontal,horizontal,horizontal,vertical
1a,2,100134,4,24,216,19,F,NA,variable,heterogeneous,3,absent,0.575103044509888,1,horizontal,horizontal,1,0.78822987874349,red,1,NaN,1020.83647796503,727.5,NaN,NaN,1020.83647796503,727.5,800,345,579.163522034968,727.5,0,0,0,0,0,0,4,5,6,NaN,NaN,NaN,horizontal,horizontal,horizontal,none,none,none
1a,2,100134,4,25,217,19,F,NA,variable,heterogeneous,6,present,0.570477962493896,1,vertical,vertical,1,0.776465511322021,green,2,3,1046.31108570371,665.998856501143,980.31222920257,419.68777079743,865.998856501143,846.311085703712,1046.31108570371,665.998856501143,980.31222920257,419.68777079743,734.001143498857,353.688914296288,553.688914296288,534.001143498857,619.68777079743,780.31222920257,6,4,3,0,0,5,horizontal,vertical,horizontal,vertical,horizontal,vertical
1a,2,100134,4,26,218,19,F,NA,variable,heterogeneous,4,present,0.6387619972229,0,vertical,horizontal,1,0.635293102264404,green,1,2,729.712474266665,845.121732464271,1045.12173246427,670.287525733335,729.712474266665,845.121732464271,1045.12173246427,670.287525733335,870.287525733335,354.878267535729,554.878267535729,529.712474266665,0,0,0,0,4,5,6,3,NaN,NaN,vertical,vertical,horizontal,horizontal,none,none
1a,2,100134,4,27,219,19,F,NA,variable,heterogeneous,3,present,0.719180107116699,1,horizontal,horizontal,1,0.976459757486979,green,2,3,1016.25226451989,464.870587620533,574.848363820974,480.284751489598,808.899371659138,854.844660889869,1016.25226451989,464.870587620533,574.848363820974,480.284751489598,0,0,0,0,0,0,3,4,5,NaN,NaN,NaN,horizontal,horizontal,vertical,none,none,none
1a,2,100134,4,28,220,19,F,NA,variable,heterogeneous,4,absent,0.776195049285889,1,horizontal,horizontal,1,0.717643674214681,green,1,NaN,835.489140744817,852.518357529101,NaN,NaN,835.489140744817,852.518357529101,1052.5183575291,564.510859255183,764.510859255183,347.4816424709,547.481642470899,635.489140744817,0,0,0,0,4,0,5,6,NaN,NaN,horizontal,vertical,vertical,horizontal,none,none
1a,2,100134,4,29,221,19,F,NA,variable,heterogeneous,4,absent,0.651983022689819,1,vertical,vertical,1,0.6,red,4,NaN,604.658667004661,763.910840470068,NaN,NaN,963.910840470068,795.341332995339,995.341332995339,436.089159529932,636.089159529932,404.658667004661,604.658667004661,763.910840470068,0,0,0,0,6,3,0,4,NaN,NaN,vertical,vertical,vertical,vertical,none,none
1a,2,100134,4,30,222,19,F,NA,variable,heterogeneous,3,present,1.18614816665649,0,vertical,horizontal,1,0.647057469685872,red,1,2,760.109211414741,851.86052685176,1038.06300875679,508.616172865948,760.109211414741,851.86052685176,1038.06300875679,508.616172865948,601.827779828472,439.523300282291,0,0,0,0,0,0,4,5,3,NaN,NaN,NaN,vertical,vertical,horizontal,none,none,none
1a,2,100134,4,31,223,19,F,NA,variable,heterogeneous,6,absent,1.3799569606781,1,horizontal,horizontal,1,0.705879306793213,red,6,NaN,545.155339110131,608.899371659138,NaN,NaN,680.284751489598,825.151636179026,935.129412379467,816.252264519889,1054.84466088987,591.100628340862,919.715248510402,374.848363820974,664.870587620533,383.747735480111,545.155339110131,608.899371659138,6,5,3,6,5,4,horizontal,horizontal,vertical,vertical,vertical,horizontal
1a,2,100134,4,32,224,19,F,NA,variable,heterogeneous,5,present,1.25210690498352,1,horizontal,horizontal,1,0.611764367421468,red,4,2,704.475318678942,363.568117085469,1016.25226451989,735.129412379467,738.309916622085,847.425410200379,1016.25226451989,735.129412379467,995.341332995339,436.089159529932,704.475318678942,363.568117085469,545.621167183745,617.787900804752,0,0,0,3,5,4,6,NaN,horizontal,horizontal,vertical,horizontal,horizontal,none
1a,2,100134,4,33,225,19,F,NA,variable,heterogeneous,5,present,NaN,0,vertical,none,0,0.776465511322021,red,3,5,1000.94274216971,443.006323791957,545.155339110131,608.899371659138,729.712474266665,845.121732464271,1011.40458100154,742.594190385041,1000.94274216971,443.006323791957,712.784863451954,360.378381699593,545.155339110131,608.899371659138,0,0,0,6,4,6,5,NaN,vertical,horizontal,vertical,vertical,horizontal,none
1a,2,100134,4,34,226,19,F,NA,variable,heterogeneous,6,present,1.41217303276062,1,horizontal,horizontal,1,0.952931022644043,green,4,6,804.450363641507,345.03883773512,576.971974679454,723.626453162816,795.549636358493,854.96116226488,1018.57766167904,731.334709102064,1023.02802532055,476.373546837184,804.450363641507,345.03883773512,581.422338320961,468.665290897936,576.971974679454,723.626453162816,6,6,3,4,3,0,horizontal,horizontal,vertical,horizontal,horizontal,horizontal
1a,2,100134,4,35,227,19,F,NA,variable,heterogeneous,5,absent,0.704345941543579,1,horizontal,horizontal,1,0.78822987874349,red,5,NaN,607.549057043193,767.295052392579,NaN,NaN,899.636437764765,834.728737630372,1054.0296480134,577.775285599347,857.362518857686,351.535633479765,581.422338320961,468.665290897936,607.549057043193,767.295052392579,0,0,5,6,3,0,4,NaN,horizontal,horizontal,vertical,horizontal,horizontal,none
1a,2,100134,4,36,228,19,F,NA,variable,heterogeneous,5,present,0.568919897079468,1,horizontal,horizontal,1,0.717643674214681,green,5,2,576.971974679454,723.626453162816,1053.09926866854,631.076682568313,848.656293821019,850.314931779154,1053.09926866854,631.076682568313,907.767656743878,368.891514305654,613.504806087112,426.090418184063,576.971974679454,723.626453162816,0,0,5,5,3,6,4,NaN,horizontal,horizontal,vertical,horizontal,horizontal,none
1a,2,100134,4,37,229,19,F,NA,variable,heterogeneous,3,absent,0.692897081375122,1,horizontal,horizontal,1,0.611764367421468,red,2,NaN,992.450942956807,432.704947607421,NaN,NaN,848.656293821019,850.314931779154,992.450942956807,432.704947607421,558.892763222174,516.980120613425,0,0,0,0,0,0,6,4,5,NaN,NaN,NaN,vertical,horizontal,vertical,none,none,none
1a,2,100134,4,38,230,19,F,NA,variable,heterogeneous,3,absent,0.703534841537476,1,vertical,vertical,1,0.635293102264404,green,2,NaN,1020.83647796503,472.5,NaN,NaN,800,855,1020.83647796503,472.5,579.163522034968,472.5,0,0,0,0,0,0,0,4,3,NaN,NaN,NaN,horizontal,vertical,horizontal,none,none,none
1a,2,100134,4,39,231,19,F,NA,variable,heterogeneous,4,absent,0.718119859695435,1,horizontal,horizontal,1,0.823522981007894,red,1,NaN,844.280285305067,851.125977018113,NaN,NaN,844.280285305067,851.125977018113,1051.12597701811,555.719714694933,755.719714694933,348.874022981887,548.874022981887,644.280285305067,0,0,0,0,4,0,3,5,NaN,NaN,horizontal,vertical,horizontal,vertical,none,none
1a,2,100134,4,40,232,19,F,NA,variable,heterogeneous,4,absent,1.25898694992065,1,horizontal,horizontal,1,0.705879306793213,red,2,NaN,1008.88377129369,453.738008730483,NaN,NaN,946.261991269517,808.883771293693,1008.88377129369,453.738008730483,653.738008730483,391.116228706307,591.116228706307,746.261991269517,0,0,0,0,5,4,6,5,NaN,NaN,horizontal,horizontal,horizontal,vertical,none,none
1a,2,100134,4,41,233,19,F,NA,variable,heterogeneous,3,absent,1.0038149356842,1,vertical,vertical,1,0.976459757486979,red,2,NaN,1008.88377129369,453.738008730483,NaN,NaN,822.224714400653,854.029648013395,1008.88377129369,453.738008730483,568.891514305654,492.232343256122,0,0,0,0,0,0,6,4,5,NaN,NaN,NaN,horizontal,vertical,vertical,none,none,none
1a,2,100134,4,42,234,19,F,NA,variable,heterogeneous,6,present,NaN,0,vertical,none,0,0.905873552958171,green,1,4,672.5,820.836477965032,927.5,379.163522034968,672.5,820.836477965032,927.5,820.836477965032,1055,600,927.5,379.163522034968,672.5,379.163522034968,545,600,4,3,5,5,6,0,vertical,horizontal,horizontal,vertical,vertical,horizontal
1a,2,100134,4,43,235,19,F,NA,variable,heterogeneous,5,absent,1.61895108222961,1,horizontal,horizontal,1,0.823522981007894,green,1,NaN,878.799333565612,842.519411655264,NaN,NaN,878.799333565612,842.519411655264,1055,600,878.799333565612,357.480588344736,593.700666434388,450.114760665419,593.700666434388,749.885239334581,0,0,4,6,5,5,3,NaN,horizontal,vertical,vertical,horizontal,horizontal,none
1a,2,100134,4,44,236,19,F,NA,variable,heterogeneous,3,present,0.955999135971069,1,vertical,vertical,1,0.823522981007894,red,2,3,891.383827134052,361.936991243214,548.13947314824,639.890788585259,960.476699717708,798.172220171528,891.383827134052,361.936991243214,548.13947314824,639.890788585259,0,0,0,0,0,0,3,4,6,NaN,NaN,NaN,horizontal,vertical,horizontal,none,none,none
1a,2,100134,4,45,237,19,F,NA,variable,heterogeneous,4,present,1.25812196731567,1,vertical,vertical,1,0.741172409057617,red,1,3,676.373546837184,823.028025320546,923.626453162816,376.971974679454,676.373546837184,823.028025320546,1023.02802532055,723.626453162816,923.626453162816,376.971974679454,576.971974679454,476.373546837184,0,0,0,0,4,5,5,0,NaN,NaN,vertical,horizontal,vertical,vertical,none,none
1a,2,100134,4,46,238,19,F,NA,variable,heterogeneous,5,absent,1.12019801139832,1,vertical,vertical,1,0.835287348429362,red,4,NaN,786.654331158049,345.349468637584,NaN,NaN,661.117046071168,813.860994826083,960.476699717708,798.172220171528,1038.06300875679,508.616172865948,786.654331158049,345.349468637584,553.688914296288,534.001143498857,0,0,3,3,6,4,0,NaN,vertical,vertical,vertical,vertical,vertical,none
1a,2,100134,4,47,239,19,F,NA,variable,heterogeneous,6,present,NaN,0,horizontal,none,0,0.988224124908447,red,5,2,629.371695378491,410.498069503264,970.628304621509,789.501930496736,721.200666434388,842.519411655264,970.628304621509,789.501930496736,1049.42763818712,546.982518841471,878.799333565612,357.480588344736,629.371695378491,410.498069503264,550.57236181288,653.017481158529,0,5,5,3,4,3,vertical,horizontal,vertical,horizontal,horizontal,vertical
1a,2,100134,4,48,240,19,F,NA,variable,heterogeneous,5,absent,1.37610006332397,1,vertical,vertical,1,1.04704596201579,red,2,NaN,1042.51941165526,678.799333565612,NaN,NaN,800,855,1042.51941165526,678.799333565612,949.885239334581,393.700666434388,650.114760665419,393.700666434388,557.480588344736,678.799333565612,0,0,6,4,0,3,3,NaN,vertical,vertical,vertical,horizontal,horizontal,none
1a,2,100134,4,49,241,19,F,NA,variable,heterogeneous,5,absent,0.898266077041626,1,vertical,vertical,1,0.929402287801107,green,2,NaN,1029.19248180629,711.784642431215,NaN,NaN,764.510859255183,852.518357529101,1029.19248180629,711.784642431215,977.137884467044,416.568350913644,680.284751489598,374.848363820974,548.874022981887,644.280285305067,0,0,3,4,0,5,0,NaN,vertical,vertical,horizontal,vertical,vertical,none
1a,2,100134,4,50,242,19,F,NA,variable,heterogeneous,4,absent,1.0425329208374,1,vertical,vertical,1,0.694114939371745,green,4,NaN,560.378381699593,687.215136548046,NaN,NaN,887.215136548046,839.621618300407,1039.62161830041,512.784863451954,712.784863451954,360.378381699593,560.378381699593,687.215136548046,0,0,0,0,5,6,5,4,NaN,NaN,vertical,horizontal,horizontal,vertical,none,none
1a,2,100134,4,51,243,19,F,NA,variable,heterogeneous,4,absent,0.892482995986938,1,vertical,vertical,1,1.04704596201579,green,3,NaN,853.017481158529,350.57236181288,NaN,NaN,746.982518841471,849.42763818712,1049.42763818712,653.017481158529,853.017481158529,350.57236181288,550.57236181288,546.982518841471,0,0,0,0,5,5,4,6,NaN,NaN,vertical,horizontal,vertical,horizontal,none,none
1a,2,100134,4,52,244,19,F,NA,variable,heterogeneous,6,absent,0.721335887908936,1,vertical,vertical,1,0.964695390065511,green,5,NaN,661.117046071168,386.139005173917,NaN,NaN,684.232422566416,827.206663668034,938.882953928832,813.860994826083,1054.65053136242,586.654331158049,915.767577433584,372.793336331966,661.117046071168,386.139005173917,545.349468637584,613.345668841951,3,0,6,3,4,5,horizontal,horizontal,vertical,vertical,vertical,horizontal
1a,2,100134,4,53,245,19,F,NA,variable,heterogeneous,4,present,0.570214986801147,1,horizontal,horizontal,1,0.894109185536702,red,2,1,1047.42541020038,661.690083377915,738.309916622085,847.425410200379,738.309916622085,847.425410200379,1047.42541020038,661.690083377915,861.690083377915,352.574589799621,552.574589799621,538.309916622085,0,0,0,0,3,4,3,6,NaN,NaN,horizontal,horizontal,horizontal,horizontal,none,none
