experiment,subject,uniqueID,block,trial,trial_cumulative,age,gender,color_cond_blocking,color_history,shape_type,set_size,distractor,rt,acc,target_orient,response_key,response_made,iti,target_color,target_item,distractor_item,target_X,target_Y,distractor_X,distractor_Y,item1_X,item1_Y,item2_X,item2_Y,item3_X,item3_Y,item4_X,item4_Y,item5_X,item5_Y,item6_X,item6_Y,item1_shape,item2_shape,item3_shape,item4_shape,item5_shape,item6_shape,item1_line,item2_line,item3_line,item4_line,item5_line,item6_line
1a,3,100127,1,1,1,18,F,NA,variable,heterogeneous,3,present,NaN,0,horizontal,none,0,0.623529309492845,red,3,1,704.475318678942,363.568117085469,643.006323791957,800.942742169714,643.006323791957,800.942742169714,1052.5183575291,635.489140744817,704.475318678942,363.568117085469,0,0,0,0,0,0,3,3,4,NaN,NaN,NaN,vertical,vertical,horizontal,none,none,none
1a,3,100127,1,2,2,18,F,NA,variable,heterogeneous,5,absent,1.41486597061157,1,horizontal,horizontal,1,1.02352757087121,red,3,NaN,927.5,379.163522034968,NaN,NaN,826.654758133252,853.60308331891,1049.42763818712,653.017481158529,927.5,379.163522034968,629.371695378491,410.498069503264,567.045908301137,703.717843984329,0,0,5,6,4,5,3,NaN,horizontal,horizontal,horizontal,vertical,vertical,none
1a,3,100127,1,3,3,18,F,NA,variable,heterogeneous,6,present,1.58206701278687,1,vertical,vertical,1,0.729411202210646,red,4,3,760.109211414741,348.13947314824,998.172220171528,439.523300282291,839.890788585259,851.86052685176,1038.06300875679,691.383827134052,998.172220171528,439.523300282291,760.109211414741,348.13947314824,561.936991243214,508.616172865948,601.827779828472,760.476699717708,3,0,5,4,6,3,vertical,horizontal,horizontal,vertical,vertical,vertical
1a,3,100127,1,4,4,18,F,NA,variable,heterogeneous,4,present,1.19847512245178,1,horizontal,horizontal,1,0.835293094928448,green,4,2,548.13947314824,639.890788585259,1051.86052685176,560.109211414741,839.890788585259,851.86052685176,1051.86052685176,560.109211414741,760.109211414741,348.13947314824,548.13947314824,639.890788585259,0,0,0,0,6,5,0,4,NaN,NaN,vertical,horizontal,vertical,horizontal,none,none
1a,3,100127,1,5,5,18,F,NA,variable,heterogeneous,5,present,1.63630199432373,1,horizontal,horizontal,1,0.870587059167715,red,1,3,688.215357568785,829.192481806288,1025.15163617903,480.284751489598,688.215357568785,829.192481806288,983.431649086356,777.137884467044,1025.15163617903,480.284751489598,755.719714694933,348.874022981887,547.481642470899,564.510859255183,0,0,4,0,5,0,3,NaN,horizontal,horizontal,vertical,vertical,horizontal,none
1a,3,100127,1,6,6,18,F,NA,variable,heterogeneous,3,absent,1.14432501792908,1,horizontal,horizontal,1,0.964704297139094,green,1,NaN,895.524681321058,836.431882914531,NaN,NaN,895.524681321058,836.431882914531,956.993676208043,399.057257830286,547.481642470899,564.510859255183,0,0,0,0,0,0,4,3,0,NaN,NaN,NaN,horizontal,vertical,vertical,none,none,none
1a,3,100127,1,7,7,18,F,NA,variable,heterogeneous,6,present,1.05823802947998,1,vertical,vertical,1,0.741175856957069,green,2,5,960.476699717708,798.172220171528,639.523300282292,401.827779828472,708.616172865948,838.063008756786,960.476699717708,798.172220171528,1051.86052685176,560.109211414741,891.383827134052,361.936991243214,639.523300282292,401.827779828472,548.13947314824,639.890788585259,6,4,5,5,0,0,horizontal,vertical,horizontal,horizontal,vertical,vertical
1a,3,100127,1,8,8,18,F,NA,variable,heterogeneous,6,absent,1.01774001121521,1,vertical,vertical,1,0.905881023406982,red,2,NaN,998.172220171528,760.476699717708,NaN,NaN,760.109211414741,851.86052685176,998.172220171528,760.476699717708,1038.06300875679,508.616172865948,839.890788585259,348.13947314824,601.827779828472,439.523300282291,561.936991243214,691.383827134052,3,4,3,6,6,0,horizontal,vertical,horizontal,horizontal,vertical,vertical
1a,3,100127,1,9,9,18,F,NA,variable,heterogeneous,3,present,1.81040501594543,1,horizontal,horizontal,1,0.799999130689181,green,1,3,616.568350913644,777.137884467044,738.309916622085,352.574589799621,616.568350913644,777.137884467044,1045.12173246427,670.287525733335,738.309916622085,352.574589799621,0,0,0,0,0,0,4,3,6,NaN,NaN,NaN,horizontal,horizontal,vertical,none,none,none
1a,3,100127,1,10,10,18,F,NA,variable,heterogeneous,6,absent,1.42924094200134,1,vertical,vertical,1,0.717646547464224,red,3,NaN,1034.72873763037,500.363562235235,NaN,NaN,768.923317431687,853.099268668537,1003.65205506206,753.462830903772,1034.72873763037,500.363562235235,831.076682568313,346.900731331463,596.34794493794,446.537169096228,565.271262369628,699.636437764765,6,5,4,5,3,0,horizontal,vertical,vertical,vertical,vertical,vertical
1a,3,100127,1,11,11,18,F,NA,variable,heterogeneous,6,present,1.5880651473999,1,horizontal,horizontal,1,1.09411549934974,red,5,4,579.163522034968,472.5,800,345,800,855,1020.83647796503,727.5,1020.83647796503,472.5,800,345,579.163522034968,472.5,579.163522034968,727.5,3,6,0,5,4,5,horizontal,horizontal,horizontal,horizontal,horizontal,vertical
1a,3,100127,1,12,12,18,F,NA,variable,heterogeneous,3,present,1.24953699111938,1,vertical,vertical,1,0.682352583224957,red,1,3,883.019879386575,841.107236777826,549.685068220846,551.343706178981,883.019879386575,841.107236777826,967.295052392579,407.549057043193,549.685068220846,551.343706178981,0,0,0,0,0,0,4,6,3,NaN,NaN,NaN,vertical,horizontal,vertical,none,none,none
1a,3,100127,1,13,13,18,F,NA,variable,heterogeneous,5,absent,1.244460105896,1,vertical,vertical,1,1.08235084460332,green,2,NaN,1055,600,NaN,NaN,878.799333565612,842.519411655264,1055,600,878.799333565612,357.480588344736,593.700666434388,450.114760665419,593.700666434388,749.885239334581,0,0,0,4,3,5,6,NaN,horizontal,vertical,vertical,horizontal,horizontal,none
1a,3,100127,1,14,14,18,F,NA,variable,heterogeneous,5,present,0.777462005615234,1,vertical,vertical,1,1.01176291612478,green,3,4,1036.43188291453,504.475318678942,782.212099195248,345.621167183745,664.870587620533,816.252264519889,963.910840470068,795.341332995339,1036.43188291453,504.475318678942,782.212099195248,345.621167183745,552.574589799621,538.309916622085,0,0,5,5,4,0,6,NaN,vertical,vertical,vertical,vertical,horizontal,none
1a,3,100127,1,15,15,18,F,NA,variable,heterogeneous,5,present,1.42664098739624,1,horizontal,horizontal,1,0.658823273732112,green,1,5,915.767577433584,827.206663668034,619.68777079743,780.31222920257,915.767577433584,827.206663668034,1051.86052685176,560.109211414741,839.890788585259,348.13947314824,572.793336331966,484.232422566416,619.68777079743,780.31222920257,0,0,4,6,0,5,3,NaN,horizontal,vertical,vertical,horizontal,vertical,none
1a,3,100127,1,16,16,18,F,NA,variable,heterogeneous,4,present,1.18918991088867,1,horizontal,horizontal,1,1.08235084460332,red,2,4,1016.25226451989,464.870587620533,583.747735480111,735.129412379467,935.129412379467,816.252264519889,1016.25226451989,464.870587620533,664.870587620533,383.747735480111,583.747735480111,735.129412379467,0,0,0,0,3,4,3,5,NaN,NaN,vertical,horizontal,vertical,horizontal,none,none
1a,3,100127,1,17,17,18,F,NA,variable,heterogeneous,6,present,1.3806529045105,1,horizontal,horizontal,1,0.976468951885517,red,2,4,927.5,820.836477965032,927.5,379.163522034968,672.5,820.836477965032,927.5,820.836477965032,1055,600,927.5,379.163522034968,672.5,379.163522034968,545,600,3,4,5,0,3,5,vertical,horizontal,horizontal,vertical,vertical,vertical
1a,3,100127,1,18,18,18,F,NA,variable,heterogeneous,3,absent,0.931677103042603,1,vertical,vertical,1,0.764705166449914,green,3,NaN,545.03883773512,595.549636358493,NaN,NaN,923.626453162816,823.028025320546,931.334709102064,381.422338320961,545.03883773512,595.549636358493,0,0,0,0,0,0,0,5,4,NaN,NaN,NaN,horizontal,horizontal,vertical,none,none,none
1a,3,100127,1,19,19,18,F,NA,variable,heterogeneous,4,present,1.04174900054932,1,vertical,vertical,1,0.764705166449914,green,3,2,696.282156015671,367.045908301137,1032.95409169886,496.282156015671,903.717843984329,832.954091698863,1032.95409169886,496.282156015671,696.282156015671,367.045908301137,567.045908301137,703.717843984329,0,0,0,0,6,5,4,5,NaN,NaN,vertical,horizontal,vertical,horizontal,none,none
1a,3,100127,1,20,20,18,F,NA,variable,heterogeneous,6,absent,1.79103088378906,1,horizontal,horizontal,1,0.611764654746422,red,6,NaN,596.34794493794,753.462830903772,NaN,NaN,831.076682568313,853.099268668537,1034.72873763037,699.636437764765,1003.65205506206,446.537169096228,768.923317431687,346.900731331463,565.271262369628,500.363562235235,596.34794493794,753.462830903772,0,6,3,5,3,4,vertical,horizontal,horizontal,horizontal,horizontal,horizontal
1a,3,100127,1,21,21,18,F,NA,variable,heterogeneous,3,present,0.903529167175293,1,vertical,vertical,1,0.623529309492845,red,3,2,795.549636358493,345.03883773512,1023.02802532055,723.626453162816,581.422338320961,731.334709102064,1023.02802532055,723.626453162816,795.549636358493,345.03883773512,0,0,0,0,0,0,6,0,4,NaN,NaN,NaN,horizontal,vertical,vertical,none,none,none
1a,3,100127,1,22,22,18,F,NA,variable,heterogeneous,6,absent,1.44941592216492,1,horizontal,horizontal,1,1.01176291612478,red,6,NaN,561.936991243214,691.383827134052,NaN,NaN,760.109211414741,851.86052685176,998.172220171528,760.476699717708,1038.06300875679,508.616172865948,839.890788585259,348.13947314824,601.827779828472,439.523300282291,561.936991243214,691.383827134052,0,5,0,3,6,4,horizontal,horizontal,vertical,horizontal,vertical,horizontal
1a,3,100127,1,23,23,18,F,NA,variable,heterogeneous,6,absent,1.87143087387085,1,horizontal,horizontal,1,0.823528440182026,green,6,NaN,639.523300282292,798.172220171528,NaN,NaN,891.383827134052,838.063008756786,1051.86052685176,639.890788585259,960.476699717708,401.827779828472,708.616172865948,361.936991243214,548.13947314824,560.109211414741,639.523300282292,798.172220171528,6,3,6,3,0,4,horizontal,vertical,horizontal,vertical,horizontal,horizontal
1a,3,100127,1,24,24,18,F,NA,variable,heterogeneous,6,present,1.05898880958557,1,vertical,vertical,1,0.882351713914138,green,6,3,668.665290897936,818.577661679039,931.334709102064,381.422338320961,923.626453162816,823.028025320546,1054.96116226488,604.450363641507,931.334709102064,381.422338320961,676.373546837184,376.971974679454,545.03883773512,595.549636358493,668.665290897936,818.577661679039,0,0,3,3,5,4,horizontal,vertical,horizontal,vertical,vertical,vertical
1a,3,100127,1,25,25,18,F,NA,variable,heterogeneous,3,present,1.07402896881104,1,vertical,vertical,1,0.682352583224957,green,2,1,1020.83647796503,727.5,579.163522034968,727.5,579.163522034968,727.5,1020.83647796503,727.5,800,345,0,0,0,0,0,0,5,4,0,NaN,NaN,NaN,horizontal,vertical,horizontal,none,none,none
1a,3,100127,1,26,26,18,F,NA,variable,heterogeneous,6,present,1.04063677787781,1,vertical,vertical,1,0.64705861898569,red,2,6,1051.86052685176,639.890788585259,639.523300282292,798.172220171528,891.383827134052,838.063008756786,1051.86052685176,639.890788585259,960.476699717708,401.827779828472,708.616172865948,361.936991243214,548.13947314824,560.109211414741,639.523300282292,798.172220171528,5,4,0,6,0,3,horizontal,vertical,vertical,vertical,vertical,horizontal
1a,3,100127,1,27,27,18,F,NA,variable,heterogeneous,6,absent,0.992176055908203,1,vertical,vertical,1,0.729411202210646,green,3,NaN,931.334709102064,381.422338320961,NaN,NaN,923.626453162816,823.028025320546,1054.96116226488,604.450363641507,931.334709102064,381.422338320961,676.373546837184,376.971974679454,545.03883773512,595.549636358493,668.665290897936,818.577661679039,3,5,4,6,0,5,horizontal,vertical,vertical,vertical,vertical,vertical
1a,3,100127,1,28,28,18,F,NA,variable,heterogeneous,3,absent,0.823654890060425,1,horizontal,horizontal,1,0.976468951885517,red,1,NaN,983.431649086356,777.137884467044,NaN,NaN,983.431649086356,777.137884467044,861.690083377915,352.574589799621,554.878267535729,670.287525733335,0,0,0,0,0,0,4,5,6,NaN,NaN,NaN,horizontal,horizontal,horizontal,none,none,none
1a,3,100127,1,29,29,18,F,NA,variable,heterogeneous,4,absent,0.651998996734619,1,vertical,vertical,1,0.976468951885517,red,1,NaN,742.637481142314,848.464366520235,NaN,NaN,742.637481142314,848.464366520235,1048.46436652023,657.362518857686,857.362518857686,351.535633479765,551.535633479765,542.637481142314,0,0,0,0,4,0,0,6,NaN,NaN,vertical,vertical,horizontal,horizontal,none,none
1a,3,100127,1,30,30,18,F,NA,variable,heterogeneous,4,absent,0.949450016021729,1,horizontal,horizontal,1,0.811763785435603,red,4,NaN,554.878267535729,670.287525733335,NaN,NaN,870.287525733335,845.121732464271,1045.12173246427,529.712474266665,729.712474266665,354.878267535729,554.878267535729,670.287525733335,0,0,0,0,6,6,0,4,NaN,NaN,horizontal,horizontal,vertical,horizontal,none,none
1a,3,100127,1,31,31,18,F,NA,variable,heterogeneous,3,absent,0.977609872817993,1,vertical,vertical,1,0.658823273732112,red,2,NaN,839.890788585259,348.13947314824,NaN,NaN,998.172220171528,760.476699717708,839.890788585259,348.13947314824,561.936991243214,691.383827134052,0,0,0,0,0,0,6,4,3,NaN,NaN,NaN,vertical,vertical,horizontal,none,none,none
1a,3,100127,1,32,32,18,F,NA,variable,heterogeneous,5,absent,1.10242295265198,1,vertical,vertical,1,0.64705861898569,red,5,NaN,548.13947314824,560.109211414741,NaN,NaN,684.232422566416,827.206663668034,980.31222920257,780.31222920257,1027.20666366803,484.232422566416,760.109211414741,348.13947314824,548.13947314824,560.109211414741,0,0,0,6,3,3,4,NaN,horizontal,vertical,horizontal,vertical,vertical,none
1a,3,100127,1,33,33,18,F,NA,variable,heterogeneous,4,absent,1.74199891090393,1,horizontal,horizontal,1,1.0705861898569,red,3,NaN,755.719714694933,348.874022981887,NaN,NaN,844.280285305067,851.125977018113,1051.12597701811,555.719714694933,755.719714694933,348.874022981887,548.874022981887,644.280285305067,0,0,0,0,5,3,4,6,NaN,NaN,vertical,vertical,horizontal,vertical,none,none
1a,3,100127,1,34,34,18,F,NA,variable,heterogeneous,5,absent,1.88567996025085,1,horizontal,horizontal,1,1.02352757087121,red,4,NaN,738.309916622085,352.574589799621,NaN,NaN,704.475318678942,836.431882914531,995.341332995339,763.910840470068,1016.25226451989,464.870587620533,738.309916622085,352.574589799621,545.621167183745,582.212099195248,0,0,6,3,0,4,6,NaN,vertical,vertical,vertical,horizontal,horizontal,none
1a,3,100127,1,35,35,18,F,NA,variable,heterogeneous,3,absent,1.09316492080688,1,vertical,vertical,1,1.08235084460332,green,3,NaN,561.936991243214,508.616172865948,NaN,NaN,839.890788585259,851.86052685176,998.172220171528,439.523300282291,561.936991243214,508.616172865948,0,0,0,0,0,0,0,5,4,NaN,NaN,NaN,vertical,vertical,vertical,none,none,none
1a,3,100127,1,36,36,18,F,NA,variable,heterogeneous,5,present,1.20807600021362,1,horizontal,horizontal,1,0.635293964239267,green,4,5,712.784863451954,360.378381699593,545.155339110131,608.899371659138,729.712474266665,845.121732464271,1011.40458100154,742.594190385041,1000.94274216971,443.006323791957,712.784863451954,360.378381699593,545.155339110131,608.899371659138,0,0,0,5,3,4,6,NaN,horizontal,vertical,horizontal,horizontal,vertical,none
1a,3,100127,1,37,37,18,F,NA,variable,heterogeneous,5,present,1.03350710868835,1,vertical,vertical,1,0.658823273732112,green,4,3,684.232422566416,372.793336331966,980.31222920257,419.68777079743,760.109211414741,851.86052685176,1027.20666366803,715.767577433584,980.31222920257,419.68777079743,684.232422566416,372.793336331966,548.13947314824,639.890788585259,0,0,6,0,3,4,5,NaN,vertical,vertical,vertical,vertical,vertical,none
1a,3,100127,1,38,38,18,F,NA,variable,heterogeneous,3,present,0.89138388633728,1,horizontal,horizontal,1,0.858822404421293,red,3,1,557.480588344736,678.799333565612,989.501930496736,770.628304621509,989.501930496736,770.628304621509,853.017481158529,350.57236181288,557.480588344736,678.799333565612,0,0,0,0,0,0,5,6,4,NaN,NaN,NaN,vertical,horizontal,horizontal,none,none,none
1a,3,100127,1,39,39,18,F,NA,variable,heterogeneous,3,present,NaN,0,horizontal,none,0,1.0705861898569,green,2,1,1034.72873763037,500.363562235235,768.923317431687,853.099268668537,768.923317431687,853.099268668537,1034.72873763037,500.363562235235,596.34794493794,446.537169096228,0,0,0,0,0,0,6,4,3,NaN,NaN,NaN,vertical,horizontal,horizontal,none,none,none
1a,3,100127,1,40,40,18,F,NA,variable,heterogeneous,5,absent,1.31844711303711,1,vertical,vertical,1,0.964704297139094,green,5,NaN,558.892763222174,683.019879386575,NaN,NaN,804.450363641507,854.96116226488,1043.85771277057,674.554784704298,946.261991269517,391.116228706307,646.537169096228,396.34794493794,558.892763222174,683.019879386575,0,0,3,0,6,5,4,NaN,horizontal,vertical,horizontal,vertical,vertical,none
1a,3,100127,1,41,41,18,F,NA,variable,heterogeneous,4,present,1.37467503547668,1,horizontal,horizontal,1,0.694117237971379,red,3,1,953.462830903772,396.34794493794,646.537169096228,803.65205506206,646.537169096228,803.65205506206,1003.65205506206,753.462830903772,953.462830903772,396.34794493794,596.34794493794,446.537169096228,0,0,0,0,5,3,4,6,NaN,NaN,vertical,vertical,horizontal,vertical,none,none
1a,3,100127,1,42,42,18,F,NA,variable,heterogeneous,4,present,1.12544798851013,1,vertical,vertical,1,0.952939642392672,green,4,3,579.163522034968,727.5,672.5,379.163522034968,927.5,820.836477965032,1020.83647796503,472.5,672.5,379.163522034968,579.163522034968,727.5,0,0,0,0,3,6,6,4,NaN,NaN,horizontal,horizontal,horizontal,vertical,none,none
1a,3,100127,1,43,43,18,F,NA,variable,heterogeneous,5,absent,1.81250500679016,1,horizontal,horizontal,1,0.623529309492845,green,3,NaN,1008.88377129369,453.738008730483,NaN,NaN,716.980120613425,841.107236777826,1003.65205506206,753.462830903772,1008.88377129369,453.738008730483,725.445215295702,356.142287229426,545.03883773512,595.549636358493,0,0,3,3,4,6,5,NaN,vertical,horizontal,horizontal,vertical,vertical,none
1a,3,100127,1,44,44,18,F,NA,variable,heterogeneous,4,absent,0.974907159805298,1,horizontal,horizontal,1,0.89411636866056,green,4,NaN,591.116228706307,453.738008730483,NaN,NaN,653.738008730483,808.883771293693,1008.88377129369,746.261991269517,946.261991269517,391.116228706307,591.116228706307,453.738008730483,0,0,0,0,5,5,6,4,NaN,NaN,horizontal,vertical,vertical,horizontal,none,none
1a,3,100127,1,45,45,18,F,NA,variable,heterogeneous,4,absent,0.960417985916138,1,horizontal,horizontal,1,1.09411549934974,green,3,NaN,760.109211414741,348.13947314824,NaN,NaN,839.890788585259,851.86052685176,1051.86052685176,560.109211414741,760.109211414741,348.13947314824,548.13947314824,639.890788585259,0,0,0,0,5,3,4,6,NaN,NaN,vertical,horizontal,horizontal,vertical,none,none
1a,3,100127,1,46,46,18,F,NA,variable,heterogeneous,3,absent,0.669577121734619,1,horizontal,horizontal,1,0.89411636866056,red,3,NaN,650.114760665419,393.700666434388,NaN,NaN,696.282156015671,832.954091698863,1053.60308331891,573.345241866748,650.114760665419,393.700666434388,0,0,0,0,0,0,5,3,4,NaN,NaN,NaN,vertical,horizontal,horizontal,none,none,none
1a,3,100127,1,47,47,18,F,NA,variable,heterogeneous,4,present,1.4446849822998,1,horizontal,horizontal,1,0.670587928478534,green,2,1,998.172220171528,439.523300282291,960.476699717708,798.172220171528,960.476699717708,798.172220171528,998.172220171528,439.523300282291,639.523300282292,401.827779828472,601.827779828472,760.476699717708,0,0,0,0,6,4,0,5,NaN,NaN,vertical,horizontal,horizontal,horizontal,none,none
1a,3,100127,1,48,48,18,F,NA,variable,heterogeneous,6,absent,1.82587695121765,1,vertical,vertical,1,0.611764654746422,green,4,NaN,680.284751489598,374.848363820974,NaN,NaN,919.715248510402,825.151636179026,1054.84466088987,608.899371659138,935.129412379467,383.747735480111,680.284751489598,374.848363820974,545.155339110131,591.100628340862,664.870587620533,816.252264519889,0,5,0,4,6,5,horizontal,vertical,vertical,vertical,horizontal,vertical
1a,3,100127,1,49,49,18,F,NA,variable,heterogeneous,5,present,1.42202115058899,1,vertical,vertical,1,0.776469821196336,red,2,1,1054.0296480134,577.775285599347,899.636437764765,834.728737630372,899.636437764765,834.728737630372,1054.0296480134,577.775285599347,857.362518857686,351.535633479765,581.422338320961,468.665290897936,607.549057043193,767.295052392579,0,0,0,4,3,5,3,NaN,vertical,vertical,vertical,horizontal,horizontal,none
1a,3,100127,1,50,50,18,F,NA,variable,heterogeneous,4,absent,1.36667680740356,1,vertical,vertical,1,0.788234475942758,green,2,NaN,1047.42541020038,538.309916622085,NaN,NaN,861.690083377915,847.425410200379,1047.42541020038,538.309916622085,738.309916622085,352.574589799621,552.574589799621,661.690083377915,0,0,0,0,6,4,6,3,NaN,NaN,horizontal,vertical,horizontal,vertical,none,none
1a,3,100127,1,51,51,18,F,NA,variable,heterogeneous,3,absent,0.901821136474609,1,vertical,vertical,1,0.776469821196336,red,3,NaN,554.878267535729,670.287525733335,NaN,NaN,983.431649086356,777.137884467044,861.690083377915,352.574589799621,554.878267535729,670.287525733335,0,0,0,0,0,0,0,5,4,NaN,NaN,NaN,horizontal,vertical,vertical,none,none,none
1a,3,100127,1,52,52,18,F,NA,variable,heterogeneous,3,present,0.703840017318726,1,vertical,vertical,1,1.01176291612478,green,2,3,1032.95409169886,703.717843984329,773.345241866748,346.39691668109,593.700666434388,749.885239334581,1032.95409169886,703.717843984329,773.345241866748,346.39691668109,0,0,0,0,0,0,6,4,0,NaN,NaN,NaN,horizontal,vertical,horizontal,none,none,none
1a,3,100127,1,53,53,18,F,NA,variable,heterogeneous,5,present,1.20671105384827,1,horizontal,horizontal,1,0.623529309492845,red,2,1,1054.84466088987,608.899371659138,870.287525733335,845.121732464271,870.287525733335,845.121732464271,1054.84466088987,608.899371659138,887.215136548046,360.378381699593,599.057257830286,443.006323791957,588.595418998464,742.594190385041,0,0,3,4,5,3,0,NaN,vertical,horizontal,vertical,vertical,horizontal,none
1a,3,100127,1,54,54,18,F,NA,variable,heterogeneous,4,absent,0.726623058319092,1,vertical,vertical,1,0.788234475942758,red,2,NaN,1018.57766167904,731.334709102064,NaN,NaN,668.665290897936,818.577661679039,1018.57766167904,731.334709102064,931.334709102064,381.422338320961,581.422338320961,468.665290897936,0,0,0,0,3,4,0,6,NaN,NaN,vertical,vertical,vertical,horizontal,none,none
1a,3,100127,1,55,55,18,F,NA,variable,heterogeneous,4,present,1.43601012229919,1,vertical,vertical,1,0.929410332899827,red,1,4,622.862115532956,783.431649086356,616.568350913644,422.862115532956,622.862115532956,783.431649086356,983.431649086356,777.137884467044,977.137884467044,416.568350913644,616.568350913644,422.862115532956,0,0,0,0,4,6,0,3,NaN,NaN,vertical,vertical,horizontal,vertical,none,none
1a,3,100127,1,56,56,18,F,NA,variable,heterogeneous,6,present,1.43421316146851,1,horizontal,horizontal,1,0.658823273732112,green,1,5,672.5,820.836477965032,672.5,379.163522034968,672.5,820.836477965032,927.5,820.836477965032,1055,600,927.5,379.163522034968,672.5,379.163522034968,545,600,4,3,0,0,3,5,horizontal,vertical,horizontal,horizontal,horizontal,vertical
1a,3,100127,1,57,57,18,F,NA,variable,heterogeneous,4,present,1.30949592590332,1,vertical,vertical,1,0.717646547464224,red,3,1,704.475318678942,363.568117085469,895.524681321058,836.431882914531,895.524681321058,836.431882914531,1036.43188291453,504.475318678942,704.475318678942,363.568117085469,563.568117085469,695.524681321058,0,0,0,0,0,6,4,5,NaN,NaN,vertical,vertical,vertical,vertical,none,none
1a,3,100127,1,58,58,18,F,NA,variable,heterogeneous,5,present,0.743916988372803,1,vertical,vertical,1,0.799999130689181,red,4,2,773.345241866748,346.39691668109,970.628304621509,789.501930496736,672.5,820.836477965032,970.628304621509,789.501930496736,1032.95409169886,496.282156015671,773.345241866748,346.39691668109,550.57236181288,546.982518841471,0,0,0,3,3,4,6,NaN,vertical,vertical,horizontal,vertical,vertical,none
1a,3,100127,1,59,59,18,F,NA,variable,heterogeneous,6,absent,1.96993613243103,1,horizontal,horizontal,1,0.741175856957069,green,4,NaN,721.200666434388,357.480588344736,NaN,NaN,878.799333565612,842.519411655264,1049.42763818712,653.017481158529,970.628304621509,410.498069503264,721.200666434388,357.480588344736,550.57236181288,546.982518841471,629.371695378491,789.501930496736,5,5,0,4,3,0,vertical,vertical,vertical,horizontal,vertical,horizontal
1a,3,100127,1,60,60,18,F,NA,variable,heterogeneous,5,absent,1.76365303993225,1,vertical,vertical,1,0.917645678153405,red,5,NaN,554.878267535729,529.712474266665,NaN,NaN,657.405809614959,811.404581001536,956.993676208043,800.942742169714,1039.62161830041,512.784863451954,791.100628340862,345.155339110131,554.878267535729,529.712474266665,0,0,3,3,6,0,4,NaN,vertical,horizontal,vertical,vertical,vertical,none
1a,3,100127,1,61,61,18,F,NA,variable,heterogeneous,5,absent,NaN,0,horizontal,none,0,0.89411636866056,green,3,NaN,853.017481158529,350.57236181288,NaN,NaN,903.717843984329,832.954091698863,1053.60308331891,573.345241866748,853.017481158529,350.57236181288,579.163522034968,472.5,610.498069503264,770.628304621509,0,0,0,6,4,6,5,NaN,vertical,horizontal,horizontal,vertical,vertical,none
1a,3,100127,1,62,62,18,F,NA,variable,heterogeneous,6,present,1.78333806991577,1,horizontal,horizontal,1,0.905881023406982,green,2,5,970.628304621509,789.501930496736,629.371695378491,410.498069503264,721.200666434388,842.519411655264,970.628304621509,789.501930496736,1049.42763818712,546.982518841471,878.799333565612,357.480588344736,629.371695378491,410.498069503264,550.57236181288,653.017481158529,3,4,6,6,5,3,horizontal,horizontal,horizontal,horizontal,horizontal,vertical
1a,3,100127,1,63,63,18,F,NA,variable,heterogeneous,3,absent,1.02404594421387,1,horizontal,horizontal,1,0.635293964239267,green,1,NaN,586.139005173917,738.882953928832,NaN,NaN,586.139005173917,738.882953928832,1027.20666366803,715.767577433584,786.654331158049,345.349468637584,0,0,0,0,0,0,4,5,6,NaN,NaN,NaN,horizontal,vertical,vertical,none,none,none
1a,3,100127,1,64,64,18,F,NA,variable,heterogeneous,4,absent,0.707935094833374,1,vertical,vertical,1,0.952939642392672,green,2,NaN,1054.0296480134,577.775285599347,NaN,NaN,822.224714400653,854.029648013395,1054.0296480134,577.775285599347,777.775285599347,345.970351986605,545.970351986605,622.224714400653,0,0,0,0,5,4,0,0,NaN,NaN,horizontal,vertical,vertical,horizontal,none,none
1a,3,100127,2,1,65,18,F,NA,variable,heterogeneous,4,present,1.01727890968323,1,vertical,vertical,1,0.788234475942758,red,2,4,1048.46436652023,542.637481142314,551.535633479765,657.362518857686,857.362518857686,848.464366520235,1048.46436652023,542.637481142314,742.637481142314,351.535633479765,551.535633479765,657.362518857686,0,0,0,0,3,4,3,5,NaN,NaN,horizontal,vertical,vertical,vertical,none,none
1a,3,100127,2,2,66,18,F,NA,variable,heterogeneous,5,present,1.59565019607544,1,vertical,vertical,1,0.89411636866056,green,1,3,822.224714400653,854.029648013395,931.334709102064,381.422338320961,822.224714400653,854.029648013395,1048.46436652023,657.362518857686,931.334709102064,381.422338320961,632.704947607421,407.549057043193,565.271262369628,699.636437764765,0,0,4,0,3,3,0,NaN,vertical,vertical,vertical,vertical,horizontal,none
1a,3,100127,2,3,67,18,F,NA,variable,heterogeneous,4,absent,1.22153615951538,1,vertical,vertical,1,1.09411549934974,red,4,NaN,607.549057043193,432.704947607421,NaN,NaN,632.704947607421,792.450942956807,992.450942956807,767.295052392579,967.295052392579,407.549057043193,607.549057043193,432.704947607421,0,0,0,0,0,6,3,4,NaN,NaN,vertical,horizontal,vertical,vertical,none,none
1a,3,100127,2,4,68,18,F,NA,variable,heterogeneous,6,present,1.58864188194275,1,vertical,vertical,1,0.729411202210646,green,4,2,817.787900804752,345.621167183745,1011.40458100154,742.594190385041,782.212099195248,854.378832816255,1011.40458100154,742.594190385041,1029.19248180629,488.215357568785,817.787900804752,345.621167183745,588.595418998464,457.40580961496,570.807518193712,711.784642431215,0,5,0,4,5,6,vertical,vertical,vertical,vertical,vertical,vertical
1a,3,100127,2,5,69,18,F,NA,variable,heterogeneous,4,absent,0.72552490234375,1,vertical,vertical,1,0.64705861898569,green,3,NaN,734.001143498857,353.688914296288,NaN,NaN,865.998856501143,846.311085703712,1046.31108570371,534.001143498857,734.001143498857,353.688914296288,553.688914296288,665.998856501143,0,0,0,0,0,5,4,6,NaN,NaN,vertical,vertical,vertical,vertical,none,none
1a,3,100127,2,6,70,18,F,NA,variable,heterogeneous,5,present,1.65785217285156,1,horizontal,horizontal,1,0.682352583224957,green,5,2,626.090418184063,786.495193912888,1050.31493177915,551.343706178981,923.626453162816,823.028025320546,1050.31493177915,551.343706178981,831.076682568313,346.900731331463,568.891514305654,492.232343256122,626.090418184063,786.495193912888,0,0,3,6,3,6,4,NaN,vertical,horizontal,vertical,vertical,horizontal,none
1a,3,100127,2,7,71,18,F,NA,variable,heterogeneous,3,present,1.15100383758545,1,vertical,vertical,1,0.788234475942758,red,2,1,865.998856501143,353.688914296288,980.31222920257,780.31222920257,980.31222920257,780.31222920257,865.998856501143,353.688914296288,553.688914296288,665.998856501143,0,0,0,0,0,0,5,4,3,NaN,NaN,NaN,horizontal,vertical,horizontal,none,none,none
1a,3,100127,2,8,72,18,F,NA,variable,heterogeneous,3,present,1.66607594490051,1,horizontal,horizontal,1,0.988233606631939,green,3,2,616.568350913644,422.862115532956,1045.12173246427,529.712474266665,738.309916622085,847.425410200379,1045.12173246427,529.712474266665,616.568350913644,422.862115532956,0,0,0,0,0,0,6,0,4,NaN,NaN,NaN,vertical,vertical,horizontal,none,none,none
1a,3,100127,2,9,73,18,F,NA,variable,heterogeneous,6,absent,1.35731506347656,1,horizontal,horizontal,1,1.09411549934974,red,2,NaN,960.476699717708,798.172220171528,NaN,NaN,708.616172865948,838.063008756786,960.476699717708,798.172220171528,1051.86052685176,560.109211414741,891.383827134052,361.936991243214,639.523300282292,401.827779828472,548.13947314824,639.890788585259,6,4,0,0,3,3,horizontal,horizontal,vertical,horizontal,horizontal,vertical
1a,3,100127,2,10,74,18,F,NA,variable,heterogeneous,4,absent,1.17004013061523,1,horizontal,horizontal,1,0.870587059167715,green,4,NaN,568.891514305654,707.767656743878,NaN,NaN,907.767656743878,831.108485694346,1031.10848569435,492.232343256122,692.232343256122,368.891514305654,568.891514305654,707.767656743878,0,0,0,0,0,3,5,4,NaN,NaN,vertical,horizontal,vertical,horizontal,none,none
1a,3,100127,2,11,75,18,F,NA,variable,heterogeneous,5,present,1.13370299339294,1,horizontal,horizontal,1,0.811763785435603,red,3,1,942.594190385041,388.595418998464,808.899371659138,854.844660889869,808.899371659138,854.844660889869,1045.12173246427,670.287525733335,942.594190385041,388.595418998464,643.006323791957,399.057257830286,560.378381699593,687.215136548046,0,0,0,5,4,5,0,NaN,vertical,vertical,horizontal,horizontal,vertical,none
1a,3,100127,2,12,76,18,F,NA,variable,heterogeneous,4,absent,0.641067981719971,1,horizontal,horizontal,1,1.02352757087121,red,2,NaN,1046.31108570371,534.001143498857,NaN,NaN,865.998856501143,846.311085703712,1046.31108570371,534.001143498857,734.001143498857,353.688914296288,553.688914296288,665.998856501143,0,0,0,0,3,4,6,5,NaN,NaN,horizontal,horizontal,horizontal,vertical,none,none
1a,3,100127,2,13,77,18,F,NA,variable,heterogeneous,4,present,1.08583903312683,1,vertical,vertical,1,0.988233606631939,green,3,4,622.862115532956,416.568350913644,616.568350913644,777.137884467044,977.137884467044,783.431649086356,983.431649086356,422.862115532956,622.862115532956,416.568350913644,616.568350913644,777.137884467044,0,0,0,0,3,6,4,5,NaN,NaN,vertical,horizontal,vertical,horizontal,none,none
1a,3,100127,2,14,78,18,F,NA,variable,heterogeneous,4,absent,1.14019203186035,1,horizontal,horizontal,1,0.611764654746422,green,1,NaN,895.524681321058,836.431882914531,NaN,NaN,895.524681321058,836.431882914531,1036.43188291453,504.475318678942,704.475318678942,363.568117085469,563.568117085469,695.524681321058,0,0,0,0,4,0,6,6,NaN,NaN,horizontal,horizontal,horizontal,horizontal,none,none
1a,3,100127,2,15,79,18,F,NA,variable,heterogeneous,6,present,1.13356685638428,1,horizontal,horizontal,1,0.917645678153405,red,5,6,576.971974679454,476.373546837184,581.422338320961,731.334709102064,804.450363641507,854.96116226488,1023.02802532055,723.626453162816,1018.57766167904,468.665290897936,795.549636358493,345.03883773512,576.971974679454,476.373546837184,581.422338320961,731.334709102064,3,6,5,0,4,3,horizontal,vertical,horizontal,horizontal,horizontal,vertical
1a,3,100127,2,16,80,18,F,NA,variable,heterogeneous,4,absent,NaN,0,horizontal,none,0,0.776469821196336,red,4,NaN,545.155339110131,591.100628340862,NaN,NaN,791.100628340862,854.844660889869,1054.84466088987,608.899371659138,808.899371659138,345.155339110131,545.155339110131,591.100628340862,0,0,0,0,5,3,5,4,NaN,NaN,horizontal,vertical,vertical,horizontal,none,none
1a,3,100127,2,17,81,18,F,NA,variable,heterogeneous,6,absent,NaN,0,vertical,none,0,1.08235084460332,green,6,NaN,657.405809614959,811.404581001536,NaN,NaN,911.784642431215,829.192481806288,1054.37883281626,617.787900804752,942.594190385041,388.595418998464,688.215357568785,370.807518193712,545.621167183745,582.212099195248,657.405809614959,811.404581001536,3,5,5,0,3,4,horizontal,vertical,horizontal,horizontal,horizontal,vertical
1a,3,100127,2,18,82,18,F,NA,variable,heterogeneous,3,absent,1.2598729133606,1,horizontal,horizontal,1,0.682352583224957,green,3,NaN,668.665290897936,381.422338320961,NaN,NaN,676.373546837184,823.028025320546,1054.96116226488,595.549636358493,668.665290897936,381.422338320961,0,0,0,0,0,0,0,5,4,NaN,NaN,NaN,horizontal,vertical,horizontal,none,none,none
1a,3,100127,2,19,83,18,F,NA,variable,heterogeneous,5,absent,1.38974285125732,1,vertical,vertical,1,1.02352757087121,green,5,NaN,550.57236181288,653.017481158529,NaN,NaN,773.345241866748,853.60308331891,1032.95409169886,703.717843984329,970.628304621509,410.498069503264,672.5,379.163522034968,550.57236181288,653.017481158529,0,0,6,3,0,6,4,NaN,horizontal,vertical,horizontal,horizontal,vertical,none
1a,3,100127,2,20,84,18,F,NA,variable,heterogeneous,3,absent,1.09474015235901,1,horizontal,horizontal,1,1.04705688036405,red,1,NaN,773.345241866748,853.60308331891,NaN,NaN,773.345241866748,853.60308331891,1032.95409169886,496.282156015671,593.700666434388,450.114760665419,0,0,0,0,0,0,4,6,5,NaN,NaN,NaN,horizontal,vertical,vertical,none,none,none
1a,3,100127,2,21,85,18,F,NA,variable,heterogeneous,5,present,1.06693601608276,1,vertical,vertical,1,0.705881892717802,red,5,1,552.574589799621,538.309916622085,664.870587620533,816.252264519889,664.870587620533,816.252264519889,963.910840470068,795.341332995339,1036.43188291453,504.475318678942,782.212099195248,345.621167183745,552.574589799621,538.309916622085,0,0,5,3,3,0,4,NaN,vertical,vertical,vertical,horizontal,vertical,none
1a,3,100127,2,22,86,18,F,NA,variable,heterogeneous,3,absent,0.705118894577026,1,horizontal,horizontal,1,0.635293964239267,green,3,NaN,546.900731331463,568.923317431687,NaN,NaN,899.636437764765,834.728737630372,953.462830903772,396.34794493794,546.900731331463,568.923317431687,0,0,0,0,0,0,3,3,4,NaN,NaN,NaN,vertical,vertical,horizontal,none,none,none
1a,3,100127,2,23,87,18,F,NA,variable,heterogeneous,3,absent,0.783850908279419,1,vertical,vertical,1,0.611764654746422,green,1,NaN,672.5,820.836477965032,NaN,NaN,672.5,820.836477965032,1055,600,672.5,379.163522034968,0,0,0,0,0,0,4,3,5,NaN,NaN,NaN,vertical,vertical,horizontal,none,none,none
1a,3,100127,2,24,88,18,F,NA,variable,heterogeneous,6,present,1.01438498497009,1,vertical,vertical,1,0.741175856957069,red,3,6,1006.29933356561,450.114760665419,593.700666434388,749.885239334581,826.654758133252,853.60308331891,1032.95409169886,703.717843984329,1006.29933356561,450.114760665419,773.345241866748,346.39691668109,567.045908301137,496.282156015671,593.700666434388,749.885239334581,0,6,4,3,5,0,vertical,horizontal,vertical,vertical,vertical,vertical
1a,3,100127,2,25,89,18,F,NA,variable,heterogeneous,3,absent,0.700088024139404,1,vertical,vertical,1,0.858822404421293,green,2,NaN,1036.43188291453,504.475318678942,NaN,NaN,764.510859255183,852.518357529101,1036.43188291453,504.475318678942,599.057257830286,443.006323791957,0,0,0,0,0,0,5,4,6,NaN,NaN,NaN,vertical,vertical,horizontal,none,none,none
1a,3,100127,2,26,90,18,F,NA,variable,heterogeneous,5,absent,1.00553393363953,1,horizontal,horizontal,1,0.764705166449914,green,1,NaN,927.5,820.836477965032,NaN,NaN,927.5,820.836477965032,1049.42763818712,546.982518841471,826.654758133252,346.39691668109,567.045908301137,496.282156015671,629.371695378491,789.501930496736,0,0,4,6,5,6,3,NaN,horizontal,vertical,horizontal,vertical,vertical,none
1a,3,100127,2,27,91,18,F,NA,variable,heterogeneous,5,absent,1.08140802383423,1,vertical,vertical,1,0.776469821196336,red,3,NaN,989.501930496736,429.371695378491,NaN,NaN,746.982518841471,849.42763818712,1020.83647796503,727.5,989.501930496736,429.371695378491,696.282156015671,367.045908301137,546.39691668109,626.654758133252,0,0,0,3,4,5,0,NaN,vertical,horizontal,vertical,horizontal,vertical,none
1a,3,100127,2,28,92,18,F,NA,variable,heterogeneous,4,absent,1.44656085968018,1,vertical,vertical,1,0.764705166449914,red,3,NaN,891.383827134052,361.936991243214,NaN,NaN,708.616172865948,838.063008756786,1038.06300875679,691.383827134052,891.383827134052,361.936991243214,561.936991243214,508.616172865948,0,0,0,0,5,0,4,3,NaN,NaN,horizontal,vertical,vertical,vertical,none,none
1a,3,100127,2,29,93,18,F,NA,variable,heterogeneous,4,present,0.960933923721313,1,horizontal,horizontal,1,1.05882153511047,red,2,1,1016.25226451989,464.870587620533,935.129412379467,816.252264519889,935.129412379467,816.252264519889,1016.25226451989,464.870587620533,664.870587620533,383.747735480111,583.747735480111,735.129412379467,0,0,0,0,6,4,3,5,NaN,NaN,horizontal,horizontal,vertical,vertical,none,none
1a,3,100127,2,30,94,18,F,NA,variable,heterogeneous,6,present,1.12500715255737,1,horizontal,horizontal,1,0.64705861898569,green,6,1,561.936991243214,691.383827134052,760.109211414741,851.86052685176,760.109211414741,851.86052685176,998.172220171528,760.476699717708,1038.06300875679,508.616172865948,839.890788585259,348.13947314824,601.827779828472,439.523300282291,561.936991243214,691.383827134052,0,6,3,6,3,4,vertical,horizontal,horizontal,horizontal,vertical,horizontal
1a,3,100127,2,31,95,18,F,NA,variable,heterogeneous,4,absent,1.15715289115906,1,vertical,vertical,1,0.870587059167715,green,3,NaN,721.200666434388,357.480588344736,NaN,NaN,878.799333565612,842.519411655264,1042.51941165526,521.200666434388,721.200666434388,357.480588344736,557.480588344736,678.799333565612,0,0,0,0,5,0,4,3,NaN,NaN,horizontal,vertical,vertical,horizontal,none,none
1a,3,100127,2,32,96,18,F,NA,variable,heterogeneous,3,absent,0.988734006881714,1,horizontal,horizontal,1,0.811763785435603,red,1,NaN,967.295052392579,792.450942956807,NaN,NaN,967.295052392579,792.450942956807,883.019879386575,358.892763222174,549.685068220846,648.656293821019,0,0,0,0,0,0,4,5,6,NaN,NaN,NaN,horizontal,horizontal,horizontal,none,none,none
1a,3,100127,2,33,97,18,F,NA,variable,heterogeneous,6,absent,NaN,0,horizontal,none,0,0.611764654746422,green,5,NaN,664.870587620533,383.747735480111,NaN,NaN,680.284751489598,825.151636179026,935.129412379467,816.252264519889,1054.84466088987,591.100628340862,919.715248510402,374.848363820974,664.870587620533,383.747735480111,545.155339110131,608.899371659138,6,5,3,0,4,6,vertical,horizontal,horizontal,vertical,horizontal,vertical
1a,3,100127,2,34,98,18,F,NA,variable,heterogeneous,4,present,0.963265895843506,1,vertical,vertical,1,0.905881023406982,red,3,2,938.882953928832,386.139005173917,1013.86099482608,738.882953928832,661.117046071168,813.860994826083,1013.86099482608,738.882953928832,938.882953928832,386.139005173917,586.139005173917,461.117046071168,0,0,0,0,0,3,4,5,NaN,NaN,vertical,horizontal,vertical,horizontal,none,none
1a,3,100127,2,35,99,18,F,NA,variable,heterogeneous,6,absent,NaN,0,horizontal,none,0,0.870587059167715,red,5,NaN,607.549057043193,432.704947607421,NaN,NaN,751.343706178981,850.314931779154,992.450942956807,767.295052392579,1041.10723677783,516.980120613425,848.656293821019,349.685068220846,607.549057043193,432.704947607421,558.892763222174,683.019879386575,5,5,3,6,4,6,vertical,horizontal,vertical,horizontal,horizontal,vertical
1a,3,100127,2,36,100,18,F,NA,variable,heterogeneous,6,present,1.88166308403015,1,horizontal,horizontal,1,0.64705861898569,red,6,2,588.595418998464,742.594190385041,1029.19248180629,711.784642431215,817.787900804752,854.378832816255,1029.19248180629,711.784642431215,1011.40458100154,457.40580961496,782.212099195248,345.621167183745,570.807518193712,488.215357568785,588.595418998464,742.594190385041,0,6,3,5,3,4,vertical,horizontal,vertical,vertical,vertical,horizontal
1a,3,100127,2,37,101,18,F,NA,variable,heterogeneous,4,present,1.69663190841675,1,horizontal,horizontal,1,0.858822404421293,green,3,2,696.282156015671,367.045908301137,1032.95409169886,496.282156015671,903.717843984329,832.954091698863,1032.95409169886,496.282156015671,696.282156015671,367.045908301137,567.045908301137,703.717843984329,0,0,0,0,3,5,4,5,NaN,NaN,vertical,vertical,horizontal,horizontal,none,none
1a,3,100127,2,38,102,18,F,NA,variable,heterogeneous,6,absent,0.806786775588989,1,vertical,vertical,1,0.999998261378362,red,6,NaN,545.155339110131,608.899371659138,NaN,NaN,680.284751489598,825.151636179026,935.129412379467,816.252264519889,1054.84466088987,591.100628340862,919.715248510402,374.848363820974,664.870587620533,383.747735480111,545.155339110131,608.899371659138,0,3,0,6,6,4,horizontal,horizontal,horizontal,horizontal,horizontal,vertical
1a,3,100127,2,39,103,18,F,NA,variable,heterogeneous,3,absent,0.64043402671814,1,vertical,vertical,1,0.658823273732112,red,1,NaN,704.475318678942,836.431882914531,NaN,NaN,704.475318678942,836.431882914531,1052.5183575291,564.510859255183,643.006323791957,399.057257830286,0,0,0,0,0,0,4,0,5,NaN,NaN,NaN,vertical,horizontal,horizontal,none,none,none
1a,3,100127,2,40,104,18,F,NA,variable,heterogeneous,5,present,1.205885887146,1,horizontal,horizontal,1,0.635293964239267,green,5,2,629.371695378491,789.501930496736,1049.42763818712,546.982518841471,927.5,820.836477965032,1049.42763818712,546.982518841471,826.654758133252,346.39691668109,567.045908301137,496.282156015671,629.371695378491,789.501930496736,0,0,5,3,6,6,4,NaN,horizontal,vertical,vertical,vertical,horizontal,none
1a,3,100127,2,41,105,18,F,NA,variable,heterogeneous,3,present,0.57221794128418,1,horizontal,horizontal,1,0.694117237971379,red,3,1,549.685068220846,648.656293821019,967.295052392579,792.450942956807,967.295052392579,792.450942956807,883.019879386575,358.892763222174,549.685068220846,648.656293821019,0,0,0,0,0,0,3,6,4,NaN,NaN,NaN,vertical,vertical,horizontal,none,none,none
1a,3,100127,2,42,106,18,F,NA,variable,heterogeneous,4,present,1.0305449962616,1,horizontal,horizontal,1,0.94117498764625,green,2,4,1051.12597701811,644.280285305067,548.874022981887,555.719714694933,755.719714694933,851.125977018113,1051.12597701811,644.280285305067,844.280285305067,348.874022981887,548.874022981887,555.719714694933,0,0,0,0,5,4,6,5,NaN,NaN,horizontal,horizontal,horizontal,vertical,none,none
1a,3,100127,2,43,107,18,F,NA,variable,heterogeneous,6,absent,1.06068515777588,1,horizontal,horizontal,1,0.870587059167715,green,1,NaN,700.363562235235,834.728737630372,NaN,NaN,700.363562235235,834.728737630372,953.462830903772,803.65205506206,1053.09926866854,568.923317431687,899.636437764765,365.271262369628,646.537169096228,396.34794493794,546.900731331463,631.076682568313,4,5,0,5,3,6,horizontal,horizontal,horizontal,horizontal,horizontal,vertical
1a,3,100127,2,44,108,18,F,NA,variable,heterogeneous,3,present,1.04717707633972,1,vertical,vertical,1,1.04705688036405,green,1,2,664.870587620533,816.252264519889,1054.84466088987,608.899371659138,664.870587620533,816.252264519889,1054.84466088987,608.899371659138,680.284751489598,374.848363820974,0,0,0,0,0,0,4,0,3,NaN,NaN,NaN,vertical,vertical,vertical,none,none,none
1a,3,100127,2,45,109,18,F,NA,variable,heterogeneous,5,present,1.15497517585754,1,horizontal,horizontal,1,0.729411202210646,red,1,4,949.885239334581,806.299333565612,557.480588344736,521.200666434388,949.885239334581,806.299333565612,1042.51941165526,521.200666434388,800,345,557.480588344736,521.200666434388,650.114760665419,806.299333565612,0,0,4,5,5,3,3,NaN,horizontal,horizontal,horizontal,vertical,vertical,none
1a,3,100127,2,46,110,18,F,NA,variable,heterogeneous,5,absent,0.779286861419678,1,vertical,vertical,1,0.858822404421293,green,2,NaN,1013.86099482608,738.882953928832,NaN,NaN,734.001143498857,846.311085703712,1013.86099482608,738.882953928832,998.172220171528,439.523300282291,708.616172865948,361.936991243214,545.349468637584,613.345668841951,0,0,0,4,3,5,0,NaN,horizontal,vertical,vertical,vertical,vertical,none
1a,3,100127,2,47,111,18,F,NA,variable,heterogeneous,3,present,0.693403959274292,1,vertical,vertical,1,0.905881023406982,green,1,2,992.450942956807,767.295052392579,848.656293821019,349.685068220846,992.450942956807,767.295052392579,848.656293821019,349.685068220846,558.892763222174,683.019879386575,0,0,0,0,0,0,4,0,6,NaN,NaN,NaN,vertical,vertical,horizontal,none,none,none
1a,3,100127,2,48,112,18,F,NA,variable,heterogeneous,5,present,0.752449989318848,1,vertical,vertical,1,1.05882153511047,red,2,1,1018.57766167904,731.334709102064,742.637481142314,848.464366520235,742.637481142314,848.464366520235,1018.57766167904,731.334709102064,992.450942956807,432.704947607421,700.363562235235,365.271262369628,545.970351986605,622.224714400653,0,0,6,4,0,5,3,NaN,vertical,vertical,vertical,horizontal,horizontal,none
1a,3,100127,2,49,113,18,F,NA,variable,heterogeneous,5,present,1.63730907440186,0,vertical,horizontal,1,1.0705861898569,green,1,5,919.715248510402,825.151636179026,622.862115532956,783.431649086356,919.715248510402,825.151636179026,1051.12597701811,555.719714694933,835.489140744817,347.4816424709,570.807518193712,488.215357568785,622.862115532956,783.431649086356,0,0,4,3,5,3,5,NaN,vertical,horizontal,horizontal,horizontal,vertical,none
1a,3,100127,2,50,114,18,F,NA,variable,heterogeneous,3,absent,1.57562184333801,1,vertical,vertical,1,0.870587059167715,red,1,NaN,696.282156015671,832.954091698863,NaN,NaN,696.282156015671,832.954091698863,1053.60308331891,573.345241866748,650.114760665419,393.700666434388,0,0,0,0,0,0,4,3,6,NaN,NaN,NaN,vertical,horizontal,vertical,none,none,none
1a,3,100127,2,51,115,18,F,NA,variable,heterogeneous,6,absent,1.75604295730591,1,vertical,vertical,1,0.823528440182026,green,3,NaN,1003.65205506206,446.537169096228,NaN,NaN,831.076682568313,853.099268668537,1034.72873763037,699.636437764765,1003.65205506206,446.537169096228,768.923317431687,346.900731331463,565.271262369628,500.363562235235,596.34794493794,753.462830903772,3,3,4,0,0,6,vertical,vertical,vertical,horizontal,horizontal,vertical
1a,3,100127,2,52,116,18,F,NA,variable,heterogeneous,5,absent,1.72268080711365,1,vertical,vertical,1,0.964704297139094,red,4,NaN,672.5,379.163522034968,NaN,NaN,773.345241866748,853.60308331891,1032.95409169886,703.717843984329,970.628304621509,410.498069503264,672.5,379.163522034968,550.57236181288,653.017481158529,0,0,0,3,3,4,6,NaN,vertical,horizontal,vertical,vertical,horizontal,none
1a,3,100127,2,53,117,18,F,NA,variable,heterogeneous,5,absent,0.978517055511475,1,horizontal,horizontal,1,0.670587928478534,red,2,NaN,1053.09926866854,568.923317431687,NaN,NaN,907.767656743878,831.108485694346,1053.09926866854,568.923317431687,848.656293821019,349.685068220846,576.971974679454,476.373546837184,613.504806087112,773.909581815937,0,0,0,4,5,3,6,NaN,vertical,horizontal,vertical,horizontal,horizontal,none
1a,3,100127,2,54,118,18,F,NA,variable,heterogeneous,4,present,1.80350589752197,1,vertical,vertical,1,0.658823273732112,green,1,4,907.767656743878,831.108485694346,568.891514305654,707.767656743878,907.767656743878,831.108485694346,1031.10848569435,492.232343256122,692.232343256122,368.891514305654,568.891514305654,707.767656743878,0,0,0,0,4,0,3,0,NaN,NaN,vertical,vertical,horizontal,vertical,none,none
1a,3,100127,2,55,119,18,F,NA,variable,heterogeneous,5,absent,1.66078090667725,1,horizontal,horizontal,1,0.635293964239267,red,5,NaN,558.892763222174,683.019879386575,NaN,NaN,804.450363641507,854.96116226488,1043.85771277057,674.554784704298,946.261991269517,391.116228706307,646.537169096228,396.34794493794,558.892763222174,683.019879386575,0,0,5,0,6,5,4,NaN,horizontal,vertical,vertical,horizontal,horizontal,none
1a,3,100127,2,56,120,18,F,NA,variable,heterogeneous,6,present,1.57458996772766,1,vertical,vertical,1,0.823528440182026,green,3,6,1042.51941165526,521.200666434388,557.480588344736,678.799333565612,746.982518841471,849.42763818712,989.501930496736,770.628304621509,1042.51941165526,521.200666434388,853.017481158529,350.57236181288,610.498069503264,429.371695378491,557.480588344736,678.799333565612,6,3,4,6,0,0,horizontal,vertical,vertical,horizontal,vertical,vertical
1a,3,100127,2,57,121,18,F,NA,variable,heterogeneous,6,absent,1.294105052948,1,vertical,vertical,1,0.6,red,1,NaN,844.280285305067,851.125977018113,NaN,NaN,844.280285305067,851.125977018113,1039.62161830041,687.215136548046,995.341332995339,436.089159529932,755.719714694933,348.874022981887,560.378381699593,512.784863451954,604.658667004661,763.910840470068,4,0,6,0,3,3,vertical,horizontal,horizontal,vertical,horizontal,horizontal
1a,3,100127,2,58,122,18,F,NA,variable,heterogeneous,6,present,0.700850009918213,1,horizontal,horizontal,1,0.823528440182026,green,2,4,956.993676208043,800.942742169714,895.524681321058,363.568117085469,704.475318678942,836.431882914531,956.993676208043,800.942742169714,1052.5183575291,564.510859255183,895.524681321058,363.568117085469,643.006323791957,399.057257830286,547.481642470899,635.489140744817,6,4,0,5,3,6,horizontal,horizontal,horizontal,vertical,vertical,horizontal
1a,3,100127,2,59,123,18,F,NA,variable,heterogeneous,5,absent,1.80642509460449,1,horizontal,horizontal,1,0.964704297139094,green,4,NaN,700.363562235235,365.271262369628,NaN,NaN,742.637481142314,848.464366520235,1018.57766167904,731.334709102064,992.450942956807,432.704947607421,700.363562235235,365.271262369628,545.970351986605,622.224714400653,0,0,3,3,0,4,5,NaN,vertical,horizontal,vertical,horizontal,horizontal,none
1a,3,100127,2,60,124,18,F,NA,variable,heterogeneous,3,present,1.51969194412231,1,horizontal,horizontal,1,0.658823273732112,green,2,3,923.626453162816,376.971974679454,545.03883773512,604.450363641507,931.334709102064,818.577661679039,923.626453162816,376.971974679454,545.03883773512,604.450363641507,0,0,0,0,0,0,0,4,6,NaN,NaN,NaN,horizontal,horizontal,vertical,none,none,none
1a,3,100127,2,61,125,18,F,NA,variable,heterogeneous,3,present,0.815215110778809,1,horizontal,horizontal,1,0.84705774967487,red,3,2,561.936991243214,691.383827134052,839.890788585259,348.13947314824,998.172220171528,760.476699717708,839.890788585259,348.13947314824,561.936991243214,691.383827134052,0,0,0,0,0,0,3,0,4,NaN,NaN,NaN,horizontal,horizontal,horizontal,none,none,none
1a,3,100127,2,62,126,18,F,NA,variable,heterogeneous,4,present,0.724492073059082,1,horizontal,horizontal,1,0.635293964239267,red,4,2,613.504806087112,773.909581815937,986.495193912888,426.090418184063,973.909581815937,786.495193912888,986.495193912888,426.090418184063,626.090418184063,413.504806087112,613.504806087112,773.909581815937,0,0,0,0,3,6,0,4,NaN,NaN,vertical,vertical,vertical,horizontal,none,none
1a,3,100127,2,63,127,18,F,NA,variable,heterogeneous,3,present,0.984156847000122,1,vertical,vertical,1,0.658823273732112,red,3,2,751.343706178981,349.685068220846,1041.10723677783,683.019879386575,607.549057043193,767.295052392579,1041.10723677783,683.019879386575,751.343706178981,349.685068220846,0,0,0,0,0,0,3,0,4,NaN,NaN,NaN,horizontal,horizontal,vertical,none,none,none
1a,3,100127,2,64,128,18,F,NA,variable,heterogeneous,6,present,0.920606136322021,1,vertical,vertical,1,0.635293964239267,red,2,6,983.431649086356,777.137884467044,554.878267535729,670.287525733335,738.309916622085,847.425410200379,983.431649086356,777.137884467044,1045.12173246427,529.712474266665,861.690083377915,352.574589799621,616.568350913644,422.862115532956,554.878267535729,670.287525733335,6,4,0,3,5,0,horizontal,vertical,horizontal,vertical,vertical,vertical
1a,3,100127,3,1,129,18,F,NA,variable,heterogeneous,5,present,1.83755111694336,1,horizontal,horizontal,1,0.717646547464224,green,5,2,545.155339110131,591.100628340862,1000.94274216971,756.993676208043,712.784863451954,839.621618300407,1000.94274216971,756.993676208043,1011.40458100154,457.40580961496,729.712474266665,354.878267535729,545.155339110131,591.100628340862,0,0,5,3,3,0,4,NaN,vertical,vertical,vertical,horizontal,horizontal,none
1a,3,100127,3,2,130,18,F,NA,variable,heterogeneous,6,present,0.816697120666504,1,horizontal,horizontal,1,0.917645678153405,green,5,1,546.900731331463,568.923317431687,899.636437764765,834.728737630372,899.636437764765,834.728737630372,1053.09926866854,631.076682568313,953.462830903772,396.34794493794,700.363562235235,365.271262369628,546.900731331463,568.923317431687,646.537169096228,803.65205506206,6,0,6,3,4,5,vertical,horizontal,vertical,vertical,horizontal,horizontal
1a,3,100127,3,3,131,18,F,NA,variable,heterogeneous,6,present,0.684119939804077,1,horizontal,horizontal,1,0.741175856957069,red,2,6,1054.84466088987,608.899371659138,664.870587620533,816.252264519889,919.715248510402,825.151636179026,1054.84466088987,608.899371659138,935.129412379467,383.747735480111,680.284751489598,374.848363820974,545.155339110131,591.100628340862,664.870587620533,816.252264519889,3,4,0,6,0,5,vertical,horizontal,horizontal,horizontal,vertical,vertical
1a,3,100127,3,4,132,18,F,NA,variable,heterogeneous,5,absent,1.31488418579102,1,vertical,vertical,1,0.835293094928448,red,5,NaN,556.142287229426,525.445215295702,NaN,NaN,653.738008730483,808.883771293693,953.462830903772,803.65205506206,1041.10723677783,516.980120613425,795.549636358493,345.03883773512,556.142287229426,525.445215295702,0,0,6,3,0,6,4,NaN,vertical,vertical,vertical,vertical,vertical,none
1a,3,100127,3,5,133,18,F,NA,variable,heterogeneous,3,present,0.750232934951782,1,vertical,vertical,1,0.84705774967487,red,3,2,607.549057043193,432.704947607421,1041.10723677783,516.980120613425,751.343706178981,850.314931779154,1041.10723677783,516.980120613425,607.549057043193,432.704947607421,0,0,0,0,0,0,3,3,4,NaN,NaN,NaN,horizontal,vertical,vertical,none,none,none
1a,3,100127,3,6,134,18,F,NA,variable,heterogeneous,6,absent,1.11225199699402,1,vertical,vertical,1,0.94117498764625,green,4,NaN,760.109211414741,348.13947314824,NaN,NaN,839.890788585259,851.86052685176,1038.06300875679,691.383827134052,998.172220171528,439.523300282291,760.109211414741,348.13947314824,561.936991243214,508.616172865948,601.827779828472,760.476699717708,5,0,6,4,6,3,horizontal,horizontal,horizontal,vertical,horizontal,horizontal
1a,3,100127,3,7,135,18,F,NA,variable,heterogeneous,5,absent,1.5817768573761,1,horizontal,horizontal,1,0.964704297139094,red,2,NaN,983.431649086356,777.137884467044,NaN,NaN,688.215357568785,829.192481806288,983.431649086356,777.137884467044,1025.15163617903,480.284751489598,755.719714694933,348.874022981887,547.481642470899,564.510859255183,0,0,5,4,3,5,6,NaN,horizontal,horizontal,vertical,horizontal,horizontal,none
1a,3,100127,3,8,136,18,F,NA,variable,heterogeneous,3,absent,0.789506912231445,1,horizontal,horizontal,1,1.01176291612478,red,2,NaN,1042.51941165526,521.200666434388,NaN,NaN,746.982518841471,849.42763818712,1042.51941165526,521.200666434388,610.498069503264,429.371695378491,0,0,0,0,0,0,3,4,3,NaN,NaN,NaN,horizontal,horizontal,vertical,none,none,none
1a,3,100127,3,9,137,18,F,NA,variable,heterogeneous,3,absent,0.92628288269043,1,horizontal,horizontal,1,0.823528440182026,green,1,NaN,992.450942956807,767.295052392579,NaN,NaN,992.450942956807,767.295052392579,848.656293821019,349.685068220846,558.892763222174,683.019879386575,0,0,0,0,0,0,4,5,0,NaN,NaN,NaN,horizontal,horizontal,horizontal,none,none,none
1a,3,100127,3,10,138,18,F,NA,variable,heterogeneous,4,present,0.790701150894165,1,vertical,vertical,1,0.694117237971379,green,3,4,632.704947607421,407.549057043193,607.549057043193,767.295052392579,967.295052392579,792.450942956807,992.450942956807,432.704947607421,632.704947607421,407.549057043193,607.549057043193,767.295052392579,0,0,0,0,5,3,4,5,NaN,NaN,vertical,vertical,vertical,horizontal,none,none
1a,3,100127,3,11,139,18,F,NA,variable,heterogeneous,3,absent,0.85510516166687,1,vertical,vertical,1,0.799999130689181,green,1,NaN,646.537169096228,803.65205506206,NaN,NaN,646.537169096228,803.65205506206,1053.09926866854,631.076682568313,700.363562235235,365.271262369628,0,0,0,0,0,0,4,5,0,NaN,NaN,NaN,vertical,vertical,horizontal,none,none,none
1a,3,100127,3,12,140,18,F,NA,variable,heterogeneous,5,present,1.14582681655884,1,vertical,vertical,1,1.08235084460332,red,1,3,688.215357568785,829.192481806288,1025.15163617903,480.284751489598,688.215357568785,829.192481806288,983.431649086356,777.137884467044,1025.15163617903,480.284751489598,755.719714694933,348.874022981887,547.481642470899,564.510859255183,0,0,4,3,5,6,5,NaN,vertical,horizontal,vertical,vertical,vertical,none
1a,3,100127,3,13,141,18,F,NA,variable,heterogeneous,6,absent,1.42510890960693,1,horizontal,horizontal,1,0.623529309492845,green,4,NaN,672.5,379.163522034968,NaN,NaN,927.5,820.836477965032,1055,600,927.5,379.163522034968,672.5,379.163522034968,545,600,672.5,820.836477965032,0,6,0,4,3,5,horizontal,vertical,vertical,horizontal,horizontal,horizontal
1a,3,100127,3,14,142,18,F,NA,variable,heterogeneous,6,absent,1.35055899620056,1,horizontal,horizontal,1,0.623529309492845,green,1,NaN,903.717843984329,832.954091698863,NaN,NaN,903.717843984329,832.954091698863,1053.60308331891,626.654758133252,949.885239334581,393.700666434388,696.282156015671,367.045908301137,546.39691668109,573.345241866748,650.114760665419,806.299333565612,4,5,6,0,3,5,horizontal,horizontal,vertical,vertical,horizontal,vertical
1a,3,100127,3,15,143,18,F,NA,variable,heterogeneous,5,present,1.01692795753479,1,vertical,vertical,1,0.764705166449914,green,3,1,1006.29933356561,450.114760665419,721.200666434388,842.519411655264,721.200666434388,842.519411655264,1006.29933356561,749.885239334581,1006.29933356561,450.114760665419,721.200666434388,357.480588344736,545,600,0,0,3,6,4,5,6,NaN,vertical,horizontal,vertical,horizontal,horizontal,none
1a,3,100127,3,16,144,18,F,NA,variable,heterogeneous,5,present,1.05400681495667,1,vertical,vertical,1,1.03529222561763,red,2,5,1053.09926866854,631.076682568313,576.971974679454,723.626453162816,848.656293821019,850.314931779154,1053.09926866854,631.076682568313,907.767656743878,368.891514305654,613.504806087112,426.090418184063,576.971974679454,723.626453162816,0,0,0,4,3,6,5,NaN,vertical,vertical,horizontal,horizontal,horizontal,none
1a,3,100127,3,17,145,18,F,NA,variable,heterogeneous,6,present,1.55925297737122,1,vertical,vertical,1,0.988233606631939,red,4,6,895.524681321058,363.568117085469,547.481642470899,635.489140744817,704.475318678942,836.431882914531,956.993676208043,800.942742169714,1052.5183575291,564.510859255183,895.524681321058,363.568117085469,643.006323791957,399.057257830286,547.481642470899,635.489140744817,3,6,6,4,0,5,horizontal,horizontal,vertical,vertical,horizontal,horizontal
1a,3,100127,3,18,146,18,F,NA,variable,heterogeneous,3,present,0.763565063476562,1,horizontal,horizontal,1,0.64705861898569,green,1,3,992.450942956807,767.295052392579,558.892763222174,683.019879386575,992.450942956807,767.295052392579,848.656293821019,349.685068220846,558.892763222174,683.019879386575,0,0,0,0,0,0,4,6,0,NaN,NaN,NaN,horizontal,horizontal,horizontal,none,none,none
1a,3,100127,3,19,147,18,F,NA,variable,heterogeneous,3,absent,1.06032705307007,1,vertical,vertical,1,0.870587059167715,red,3,NaN,613.504806087112,426.090418184063,NaN,NaN,742.637481142314,848.464366520235,1043.85771277057,525.445215295702,613.504806087112,426.090418184063,0,0,0,0,0,0,3,6,4,NaN,NaN,NaN,horizontal,horizontal,vertical,none,none,none
1a,3,100127,3,20,148,18,F,NA,variable,heterogeneous,6,present,NaN,0,vertical,none,0,0.858822404421293,green,5,4,661.117046071168,386.139005173917,915.767577433584,372.793336331966,684.232422566416,827.206663668034,938.882953928832,813.860994826083,1054.65053136242,586.654331158049,915.767577433584,372.793336331966,661.117046071168,386.139005173917,545.349468637584,613.345668841951,5,6,0,3,4,3,vertical,horizontal,vertical,vertical,vertical,horizontal
1a,3,100127,3,21,149,18,F,NA,variable,heterogeneous,6,present,1.05238008499146,1,horizontal,horizontal,1,1.05882153511047,red,2,1,1049.42763818712,653.017481158529,878.799333565612,842.519411655264,878.799333565612,842.519411655264,1049.42763818712,653.017481158529,970.628304621509,410.498069503264,721.200666434388,357.480588344736,550.57236181288,546.982518841471,629.371695378491,789.501930496736,6,4,0,5,3,3,vertical,horizontal,horizontal,vertical,horizontal,horizontal
1a,3,100127,3,22,150,18,F,NA,variable,heterogeneous,4,present,1.03647494316101,1,vertical,vertical,1,0.94117498764625,red,1,2,963.910840470068,795.341332995339,995.341332995339,436.089159529932,963.910840470068,795.341332995339,995.341332995339,436.089159529932,636.089159529932,404.658667004661,604.658667004661,763.910840470068,0,0,0,0,4,3,5,3,NaN,NaN,vertical,horizontal,horizontal,horizontal,none,none
1a,3,100127,3,23,151,18,F,NA,variable,heterogeneous,5,absent,0.956981897354126,1,vertical,vertical,1,0.776469821196336,green,1,NaN,786.654331158049,854.650531362416,NaN,NaN,786.654331158049,854.650531362416,1038.06300875679,691.383827134052,960.476699717708,401.827779828472,661.117046071168,386.139005173917,553.688914296288,665.998856501143,0,0,4,6,6,0,5,NaN,vertical,horizontal,vertical,vertical,vertical,none
1a,3,100127,3,24,152,18,F,NA,variable,heterogeneous,3,present,1.39668297767639,1,horizontal,horizontal,1,0.811763785435603,green,3,2,782.212099195248,345.621167183745,1029.19248180629,711.784642431215,588.595418998464,742.594190385041,1029.19248180629,711.784642431215,782.212099195248,345.621167183745,0,0,0,0,0,0,0,5,4,NaN,NaN,NaN,vertical,horizontal,horizontal,none,none,none
1a,3,100127,3,25,153,18,F,NA,variable,heterogeneous,6,absent,1.17847514152527,1,vertical,vertical,1,0.705881892717802,red,1,NaN,861.690083377915,847.425410200379,NaN,NaN,861.690083377915,847.425410200379,1045.12173246427,670.287525733335,983.431649086356,422.862115532956,738.309916622085,352.574589799621,554.878267535729,529.712474266665,616.568350913644,777.137884467044,4,5,6,6,3,5,vertical,vertical,vertical,horizontal,vertical,horizontal
1a,3,100127,3,26,154,18,F,NA,variable,heterogeneous,4,present,1.36126303672791,1,horizontal,horizontal,1,0.94117498764625,green,1,2,764.510859255183,852.518357529101,1052.5183575291,635.489140744817,764.510859255183,852.518357529101,1052.5183575291,635.489140744817,835.489140744817,347.4816424709,547.481642470899,564.510859255183,0,0,0,0,4,0,3,3,NaN,NaN,horizontal,horizontal,horizontal,vertical,none,none
1a,3,100127,3,27,155,18,F,NA,variable,heterogeneous,4,absent,0.957587003707886,1,vertical,vertical,1,0.64705861898569,green,4,NaN,560.378381699593,687.215136548046,NaN,NaN,887.215136548046,839.621618300407,1039.62161830041,512.784863451954,712.784863451954,360.378381699593,560.378381699593,687.215136548046,0,0,0,0,5,6,6,4,NaN,NaN,horizontal,vertical,vertical,vertical,none,none
1a,3,100127,3,28,156,18,F,NA,variable,heterogeneous,6,present,NaN,0,vertical,none,0,0.811763785435603,red,4,1,800,345,800,855,800,855,1020.83647796503,727.5,1020.83647796503,472.5,800,345,579.163522034968,472.5,579.163522034968,727.5,6,5,0,4,5,0,vertical,vertical,horizontal,vertical,vertical,horizontal
1a,3,100127,3,29,157,18,F,NA,variable,heterogeneous,5,absent,1.54543781280518,1,horizontal,horizontal,1,0.799999130689181,green,4,NaN,734.001143498857,353.688914296288,NaN,NaN,708.616172865948,838.063008756786,998.172220171528,760.476699717708,1013.86099482608,461.117046071168,734.001143498857,353.688914296288,545.349468637584,586.654331158049,0,0,3,3,0,4,6,NaN,vertical,vertical,horizontal,horizontal,vertical,none
1a,3,100127,3,30,158,18,F,NA,variable,heterogeneous,6,present,1.70794701576233,1,horizontal,horizontal,1,0.964704297139094,green,2,3,1038.06300875679,691.383827134052,998.172220171528,439.523300282291,839.890788585259,851.86052685176,1038.06300875679,691.383827134052,998.172220171528,439.523300282291,760.109211414741,348.13947314824,561.936991243214,508.616172865948,601.827779828472,760.476699717708,6,4,3,3,6,0,vertical,horizontal,vertical,vertical,vertical,vertical
1a,3,100127,3,31,159,18,F,NA,variable,heterogeneous,4,absent,1.3423478603363,1,horizontal,horizontal,1,0.999998261378362,red,3,NaN,688.215357568785,370.807518193712,NaN,NaN,911.784642431215,829.192481806288,1029.19248180629,488.215357568785,688.215357568785,370.807518193712,570.807518193712,711.784642431215,0,0,0,0,6,3,4,6,NaN,NaN,horizontal,horizontal,horizontal,vertical,none,none
1a,3,100127,3,32,160,18,F,NA,variable,heterogeneous,4,absent,0.762834072113037,1,horizontal,horizontal,1,0.682352583224957,green,4,NaN,551.535633479765,657.362518857686,NaN,NaN,857.362518857686,848.464366520235,1048.46436652023,542.637481142314,742.637481142314,351.535633479765,551.535633479765,657.362518857686,0,0,0,0,0,5,6,4,NaN,NaN,horizontal,horizontal,horizontal,horizontal,none,none
1a,3,100127,3,33,161,18,F,NA,variable,heterogeneous,4,absent,0.741831064224243,1,vertical,vertical,1,0.776469821196336,red,4,NaN,567.045908301137,703.717843984329,NaN,NaN,903.717843984329,832.954091698863,1032.95409169886,496.282156015671,696.282156015671,367.045908301137,567.045908301137,703.717843984329,0,0,0,0,5,0,0,4,NaN,NaN,horizontal,horizontal,vertical,vertical,none,none
1a,3,100127,3,34,162,18,F,NA,variable,heterogeneous,3,absent,1.60196900367737,1,horizontal,horizontal,1,0.858822404421293,red,1,NaN,692.232343256122,831.108485694346,NaN,NaN,692.232343256122,831.108485694346,1054.0296480134,577.775285599347,653.738008730483,391.116228706307,0,0,0,0,0,0,4,3,6,NaN,NaN,NaN,horizontal,vertical,horizontal,none,none,none
1a,3,100127,3,35,163,18,F,NA,variable,heterogeneous,5,present,1.05628299713135,1,horizontal,horizontal,1,1.09411549934974,green,1,3,903.717843984329,832.954091698863,853.017481158529,350.57236181288,903.717843984329,832.954091698863,1053.60308331891,573.345241866748,853.017481158529,350.57236181288,579.163522034968,472.5,610.498069503264,770.628304621509,0,0,4,0,3,0,5,NaN,horizontal,horizontal,horizontal,vertical,vertical,none
1a,3,100127,3,36,164,18,F,NA,variable,heterogeneous,4,present,0.847381114959717,1,horizontal,horizontal,1,1.09411549934974,green,1,2,664.870587620533,816.252264519889,1016.25226451989,735.129412379467,664.870587620533,816.252264519889,1016.25226451989,735.129412379467,935.129412379467,383.747735480111,583.747735480111,464.870587620533,0,0,0,0,4,6,3,0,NaN,NaN,horizontal,vertical,horizontal,vertical,none,none
1a,3,100127,3,37,165,18,F,NA,variable,heterogeneous,6,absent,0.668918132781982,1,vertical,vertical,1,0.623529309492845,red,6,NaN,581.422338320961,731.334709102064,NaN,NaN,804.450363641507,854.96116226488,1023.02802532055,723.626453162816,1018.57766167904,468.665290897936,795.549636358493,345.03883773512,576.971974679454,476.373546837184,581.422338320961,731.334709102064,6,5,5,3,3,4,horizontal,vertical,vertical,horizontal,vertical,vertical
1a,3,100127,3,38,166,18,F,NA,variable,heterogeneous,4,present,0.786634922027588,1,horizontal,horizontal,1,0.811763785435603,red,2,3,1046.31108570371,665.998856501143,865.998856501143,353.688914296288,734.001143498857,846.311085703712,1046.31108570371,665.998856501143,865.998856501143,353.688914296288,553.688914296288,534.001143498857,0,0,0,0,3,4,5,0,NaN,NaN,vertical,horizontal,horizontal,horizontal,none,none
1a,3,100127,3,39,167,18,F,NA,variable,heterogeneous,3,present,1.12681198120117,1,vertical,vertical,1,0.823528440182026,red,1,3,716.980120613425,841.107236777826,632.704947607421,407.549057043193,716.980120613425,841.107236777826,1050.31493177915,551.343706178981,632.704947607421,407.549057043193,0,0,0,0,0,0,4,3,3,NaN,NaN,NaN,vertical,vertical,horizontal,none,none,none
1a,3,100127,3,40,168,18,F,NA,variable,heterogeneous,3,absent,0.710500001907349,1,vertical,vertical,1,1.04705688036405,red,3,NaN,561.936991243214,508.616172865948,NaN,NaN,839.890788585259,851.86052685176,998.172220171528,439.523300282291,561.936991243214,508.616172865948,0,0,0,0,0,0,6,5,4,NaN,NaN,NaN,vertical,horizontal,vertical,none,none,none
1a,3,100127,3,41,169,18,F,NA,variable,heterogeneous,5,absent,0.990545034408569,1,horizontal,horizontal,1,1.08235084460332,green,5,NaN,545.970351986605,577.775285599347,NaN,NaN,700.363562235235,834.728737630372,992.450942956807,767.295052392579,1018.57766167904,468.665290897936,742.637481142314,351.535633479765,545.970351986605,577.775285599347,0,0,6,5,0,0,4,NaN,horizontal,vertical,vertical,horizontal,horizontal,none
1a,3,100127,3,42,170,18,F,NA,variable,heterogeneous,6,absent,0.994729042053223,1,horizontal,horizontal,1,0.611764654746422,red,2,NaN,953.462830903772,803.65205506206,NaN,NaN,700.363562235235,834.728737630372,953.462830903772,803.65205506206,1053.09926866854,568.923317431687,899.636437764765,365.271262369628,646.537169096228,396.34794493794,546.900731331463,631.076682568313,0,4,0,6,3,5,horizontal,horizontal,vertical,horizontal,vertical,horizontal
1a,3,100127,3,43,171,18,F,NA,variable,heterogeneous,4,absent,0.952358961105347,1,vertical,vertical,1,0.682352583224957,red,4,NaN,550.57236181288,546.982518841471,NaN,NaN,746.982518841471,849.42763818712,1049.42763818712,653.017481158529,853.017481158529,350.57236181288,550.57236181288,546.982518841471,0,0,0,0,3,5,6,4,NaN,NaN,vertical,horizontal,vertical,vertical,none,none
1a,3,100127,3,44,172,18,F,NA,variable,heterogeneous,4,absent,1.08004808425903,1,vertical,vertical,1,0.611764654746422,green,4,NaN,567.045908301137,703.717843984329,NaN,NaN,903.717843984329,832.954091698863,1032.95409169886,496.282156015671,696.282156015671,367.045908301137,567.045908301137,703.717843984329,0,0,0,0,6,0,5,4,NaN,NaN,horizontal,horizontal,horizontal,vertical,none,none
1a,3,100127,3,45,173,18,F,NA,variable,heterogeneous,3,present,0.746948957443237,1,vertical,vertical,1,1.05882153511047,green,2,3,1048.46436652023,657.362518857686,725.445215295702,356.142287229426,626.090418184063,786.495193912888,1048.46436652023,657.362518857686,725.445215295702,356.142287229426,0,0,0,0,0,0,0,4,5,NaN,NaN,NaN,horizontal,vertical,vertical,none,none,none
1a,3,100127,3,46,174,18,F,NA,variable,heterogeneous,4,present,0.858476877212524,1,vertical,vertical,1,0.623529309492845,red,2,3,1041.10723677783,516.980120613425,716.980120613425,358.892763222174,883.019879386575,841.107236777826,1041.10723677783,516.980120613425,716.980120613425,358.892763222174,558.892763222174,683.019879386575,0,0,0,0,0,4,0,3,NaN,NaN,horizontal,vertical,horizontal,vertical,none,none
1a,3,100127,3,47,175,18,F,NA,variable,heterogeneous,3,absent,0.725270986557007,1,vertical,vertical,1,0.670587928478534,green,1,NaN,1003.65205506206,753.462830903772,NaN,NaN,1003.65205506206,753.462830903772,831.076682568313,346.900731331463,565.271262369628,699.636437764765,0,0,0,0,0,0,4,6,3,NaN,NaN,NaN,vertical,vertical,vertical,none,none,none
1a,3,100127,3,48,176,18,F,NA,variable,heterogeneous,4,present,1.74751210212708,1,vertical,vertical,1,0.776469821196336,green,2,3,1003.65205506206,446.537169096228,646.537169096228,396.34794493794,953.462830903772,803.65205506206,1003.65205506206,446.537169096228,646.537169096228,396.34794493794,596.34794493794,753.462830903772,0,0,0,0,0,4,5,3,NaN,NaN,vertical,vertical,horizontal,horizontal,none,none
1a,3,100127,3,49,177,18,F,NA,variable,heterogeneous,6,present,1.03509497642517,1,vertical,vertical,1,0.623529309492845,green,5,3,551.535633479765,542.637481142314,973.909581815937,413.504806087112,874.554784704298,843.857712770574,1048.46436652023,657.362518857686,973.909581815937,413.504806087112,725.445215295702,356.142287229426,551.535633479765,542.637481142314,626.090418184063,786.495193912888,0,6,0,3,4,5,horizontal,horizontal,horizontal,vertical,vertical,vertical
1a,3,100127,3,50,178,18,F,NA,variable,heterogeneous,6,absent,1.40023708343506,1,vertical,vertical,1,0.811763785435603,green,6,NaN,604.658667004661,763.910840470068,NaN,NaN,844.280285305067,851.125977018113,1039.62161830041,687.215136548046,995.341332995339,436.089159529932,755.719714694933,348.874022981887,560.378381699593,512.784863451954,604.658667004661,763.910840470068,6,6,5,0,5,4,vertical,horizontal,horizontal,vertical,vertical,vertical
1a,3,100127,3,51,179,18,F,NA,variable,heterogeneous,5,present,0.973038196563721,1,vertical,vertical,1,1.02352757087121,green,2,1,1053.09926866854,568.923317431687,907.767656743878,831.108485694346,907.767656743878,831.108485694346,1053.09926866854,568.923317431687,848.656293821019,349.685068220846,576.971974679454,476.373546837184,613.504806087112,773.909581815937,0,0,0,4,3,6,0,NaN,horizontal,vertical,horizontal,horizontal,vertical,none
1a,3,100127,3,52,180,18,F,NA,variable,heterogeneous,4,absent,0.722732067108154,1,horizontal,horizontal,1,0.905881023406982,green,2,NaN,1048.46436652023,542.637481142314,NaN,NaN,857.362518857686,848.464366520235,1048.46436652023,542.637481142314,742.637481142314,351.535633479765,551.535633479765,657.362518857686,0,0,0,0,5,4,3,6,NaN,NaN,horizontal,horizontal,vertical,vertical,none,none
1a,3,100127,3,53,181,18,F,NA,variable,heterogeneous,4,absent,1.63043999671936,1,horizontal,horizontal,1,0.858822404421293,red,3,NaN,696.282156015671,367.045908301137,NaN,NaN,903.717843984329,832.954091698863,1032.95409169886,496.282156015671,696.282156015671,367.045908301137,567.045908301137,703.717843984329,0,0,0,0,5,5,4,0,NaN,NaN,horizontal,horizontal,horizontal,vertical,none,none
1a,3,100127,3,54,182,18,F,NA,variable,heterogeneous,6,absent,1.48038911819458,1,horizontal,horizontal,1,0.858822404421293,red,4,NaN,755.719714694933,348.874022981887,NaN,NaN,844.280285305067,851.125977018113,1039.62161830041,687.215136548046,995.341332995339,436.089159529932,755.719714694933,348.874022981887,560.378381699593,512.784863451954,604.658667004661,763.910840470068,5,6,0,4,6,0,horizontal,horizontal,vertical,horizontal,vertical,horizontal
1a,3,100127,3,55,183,18,F,NA,variable,heterogeneous,5,present,0.811002969741821,1,horizontal,horizontal,1,1.05882153511047,red,1,4,738.309916622085,847.425410200379,704.475318678942,363.568117085469,738.309916622085,847.425410200379,1016.25226451989,735.129412379467,995.341332995339,436.089159529932,704.475318678942,363.568117085469,545.621167183745,617.787900804752,0,0,4,6,0,6,0,NaN,horizontal,horizontal,vertical,vertical,vertical,none
1a,3,100127,3,56,184,18,F,NA,variable,heterogeneous,5,absent,1.35474395751953,1,vertical,vertical,1,0.752940511703491,red,2,NaN,1051.12597701811,555.719714694933,NaN,NaN,919.715248510402,825.151636179026,1051.12597701811,555.719714694933,835.489140744817,347.4816424709,570.807518193712,488.215357568785,622.862115532956,783.431649086356,0,0,5,4,5,3,6,NaN,horizontal,vertical,horizontal,vertical,vertical,none
1a,3,100127,3,57,185,18,F,NA,variable,heterogeneous,3,present,1.17463207244873,1,horizontal,horizontal,1,0.823528440182026,red,1,3,672.5,820.836477965032,672.5,379.163522034968,672.5,820.836477965032,1055,600,672.5,379.163522034968,0,0,0,0,0,0,4,0,0,NaN,NaN,NaN,horizontal,horizontal,horizontal,none,none,none
1a,3,100127,3,58,186,18,F,NA,variable,heterogeneous,5,present,1.5984091758728,1,horizontal,horizontal,1,0.799999130689181,red,1,3,664.870587620533,816.252264519889,1036.43188291453,504.475318678942,664.870587620533,816.252264519889,963.910840470068,795.341332995339,1036.43188291453,504.475318678942,782.212099195248,345.621167183745,552.574589799621,538.309916622085,0,0,4,3,5,5,6,NaN,horizontal,horizontal,horizontal,vertical,vertical,none
1a,3,100127,3,59,187,18,F,NA,variable,heterogeneous,5,absent,0.857841014862061,1,vertical,vertical,1,0.988233606631939,green,5,NaN,576.971974679454,723.626453162816,NaN,NaN,848.656293821019,850.314931779154,1053.09926866854,631.076682568313,907.767656743878,368.891514305654,613.504806087112,426.090418184063,576.971974679454,723.626453162816,0,0,3,5,5,6,4,NaN,horizontal,horizontal,vertical,vertical,vertical,none
1a,3,100127,3,60,188,18,F,NA,variable,heterogeneous,3,absent,1.43124413490295,1,horizontal,horizontal,1,0.988233606631939,green,1,NaN,992.450942956807,767.295052392579,NaN,NaN,992.450942956807,767.295052392579,848.656293821019,349.685068220846,558.892763222174,683.019879386575,0,0,0,0,0,0,4,5,3,NaN,NaN,NaN,horizontal,vertical,vertical,none,none,none
1a,3,100127,3,61,189,18,F,NA,variable,heterogeneous,5,absent,1.01294708251953,1,horizontal,horizontal,1,0.84705774967487,red,4,NaN,570.807518193712,488.215357568785,NaN,NaN,919.715248510402,825.151636179026,1051.12597701811,555.719714694933,835.489140744817,347.4816424709,570.807518193712,488.215357568785,622.862115532956,783.431649086356,0,0,6,0,0,4,3,NaN,horizontal,vertical,horizontal,horizontal,horizontal,none
1a,3,100127,3,62,190,18,F,NA,variable,heterogeneous,3,present,0.83934211730957,1,horizontal,horizontal,1,1.09411549934974,red,1,2,650.114760665419,806.299333565612,1053.60308331891,626.654758133252,650.114760665419,806.299333565612,1053.60308331891,626.654758133252,696.282156015671,367.045908301137,0,0,0,0,0,0,4,6,0,NaN,NaN,NaN,horizontal,horizontal,horizontal,none,none,none
1a,3,100127,3,63,191,18,F,NA,variable,heterogeneous,3,present,0.680277109146118,1,vertical,vertical,1,0.799999130689181,green,1,2,643.006323791957,800.942742169714,1052.5183575291,635.489140744817,643.006323791957,800.942742169714,1052.5183575291,635.489140744817,704.475318678942,363.568117085469,0,0,0,0,0,0,4,0,5,NaN,NaN,NaN,vertical,horizontal,horizontal,none,none,none
1a,3,100127,3,64,192,18,F,NA,variable,heterogeneous,4,present,1.32314395904541,1,horizontal,horizontal,1,0.658823273732112,red,3,2,725.445215295702,356.142287229426,1043.85771277057,525.445215295702,874.554784704298,843.857712770574,1043.85771277057,525.445215295702,725.445215295702,356.142287229426,556.142287229426,674.554784704298,0,0,0,0,6,0,4,3,NaN,NaN,horizontal,vertical,horizontal,vertical,none,none
1a,3,100127,4,1,193,18,F,NA,variable,heterogeneous,6,absent,1.4743070602417,1,horizontal,horizontal,1,0.682352583224957,red,1,NaN,768.923317431687,853.099268668537,NaN,NaN,768.923317431687,853.099268668537,1003.65205506206,753.462830903772,1034.72873763037,500.363562235235,831.076682568313,346.900731331463,596.34794493794,446.537169096228,565.271262369628,699.636437764765,4,0,5,6,3,0,horizontal,horizontal,horizontal,vertical,vertical,vertical
1a,3,100127,4,2,194,18,F,NA,variable,heterogeneous,6,absent,0.709890127182007,1,horizontal,horizontal,1,0.705881892717802,green,5,NaN,547.481642470899,564.510859255183,NaN,NaN,895.524681321058,836.431882914531,1052.5183575291,635.489140744817,956.993676208043,399.057257830286,704.475318678942,363.568117085469,547.481642470899,564.510859255183,643.006323791957,800.942742169714,0,5,3,6,4,5,vertical,vertical,horizontal,vertical,horizontal,vertical
1a,3,100127,4,3,195,18,F,NA,variable,heterogeneous,5,present,0.531778812408447,1,horizontal,horizontal,1,0.764705166449914,red,5,1,565.271262369628,699.636437764765,822.224714400653,854.029648013395,822.224714400653,854.029648013395,1048.46436652023,657.362518857686,931.334709102064,381.422338320961,632.704947607421,407.549057043193,565.271262369628,699.636437764765,0,0,5,0,3,5,4,NaN,horizontal,horizontal,horizontal,horizontal,horizontal,none
1a,3,100127,4,4,196,18,F,NA,variable,heterogeneous,4,present,0.740108013153076,1,vertical,vertical,1,1.08235084460332,red,2,3,1013.86099482608,461.117046071168,661.117046071168,386.139005173917,938.882953928832,813.860994826083,1013.86099482608,461.117046071168,661.117046071168,386.139005173917,586.139005173917,738.882953928832,0,0,0,0,6,4,3,6,NaN,NaN,horizontal,vertical,vertical,vertical,none,none
1a,3,100127,4,5,197,18,F,NA,variable,heterogeneous,5,absent,0.778723001480103,1,horizontal,horizontal,1,0.976468951885517,green,5,NaN,579.163522034968,727.5,NaN,NaN,853.017481158529,849.42763818712,1053.60308331891,626.654758133252,903.717843984329,367.045908301137,610.498069503264,429.371695378491,579.163522034968,727.5,0,0,5,6,3,0,4,NaN,vertical,vertical,vertical,horizontal,horizontal,none
1a,3,100127,4,6,198,18,F,NA,variable,heterogeneous,5,absent,1.29474806785583,1,vertical,vertical,1,0.999998261378362,green,4,NaN,692.232343256122,368.891514305654,NaN,NaN,751.343706178981,850.314931779154,1023.02802532055,723.626453162816,986.495193912888,426.090418184063,692.232343256122,368.891514305654,546.900731331463,631.076682568313,0,0,0,3,6,4,5,NaN,horizontal,vertical,vertical,vertical,vertical,none
1a,3,100127,4,7,199,18,F,NA,variable,heterogeneous,3,present,0.96255898475647,1,vertical,vertical,1,0.882351713914138,green,1,3,688.215357568785,829.192481806288,657.405809614959,388.595418998464,688.215357568785,829.192481806288,1054.37883281626,582.212099195248,657.405809614959,388.595418998464,0,0,0,0,0,0,4,6,0,NaN,NaN,NaN,vertical,horizontal,vertical,none,none,none
1a,3,100127,4,8,200,18,F,NA,variable,heterogeneous,6,present,1.528559923172,1,horizontal,horizontal,1,0.741175856957069,green,2,6,1000.94274216971,756.993676208043,563.568117085469,695.524681321058,764.510859255183,852.518357529101,1000.94274216971,756.993676208043,1036.43188291453,504.475318678942,835.489140744817,347.4816424709,599.057257830286,443.006323791957,563.568117085469,695.524681321058,5,4,6,6,3,5,vertical,horizontal,vertical,vertical,vertical,horizontal
1a,3,100127,4,9,201,18,F,NA,variable,heterogeneous,6,absent,0.670437097549438,1,horizontal,horizontal,1,0.741175856957069,red,6,NaN,547.481642470899,635.489140744817,NaN,NaN,704.475318678942,836.431882914531,956.993676208043,800.942742169714,1052.5183575291,564.510859255183,895.524681321058,363.568117085469,643.006323791957,399.057257830286,547.481642470899,635.489140744817,3,3,5,0,6,4,horizontal,horizontal,vertical,vertical,horizontal,horizontal
1a,3,100127,4,10,202,18,F,NA,variable,heterogeneous,4,absent,0.735994100570679,1,vertical,vertical,1,1.01176291612478,red,1,NaN,980.31222920257,780.31222920257,NaN,NaN,980.31222920257,780.31222920257,980.31222920257,419.68777079743,619.68777079743,419.68777079743,619.68777079743,780.31222920257,0,0,0,0,4,6,3,3,NaN,NaN,vertical,horizontal,vertical,vertical,none,none
1a,3,100127,4,11,203,18,F,NA,variable,heterogeneous,6,present,1.01293396949768,1,horizontal,horizontal,1,0.89411636866056,green,1,3,738.309916622085,847.425410200379,1045.12173246427,529.712474266665,738.309916622085,847.425410200379,983.431649086356,777.137884467044,1045.12173246427,529.712474266665,861.690083377915,352.574589799621,616.568350913644,422.862115532956,554.878267535729,670.287525733335,4,6,0,3,5,6,horizontal,horizontal,vertical,horizontal,horizontal,horizontal
1a,3,100127,4,12,204,18,F,NA,variable,heterogeneous,6,present,0.727720975875854,1,vertical,vertical,1,0.917645678153405,red,6,4,636.089159529932,795.341332995339,712.784863451954,360.378381699593,887.215136548046,839.621618300407,1051.12597701811,644.280285305067,963.910840470068,404.658667004661,712.784863451954,360.378381699593,548.874022981887,555.719714694933,636.089159529932,795.341332995339,0,3,0,5,5,4,horizontal,horizontal,vertical,horizontal,vertical,vertical
1a,3,100127,4,13,205,18,F,NA,variable,heterogeneous,5,present,1.08601403236389,1,vertical,vertical,1,0.976468951885517,red,4,5,576.971974679454,476.373546837184,613.504806087112,773.909581815937,907.767656743878,831.108485694346,1053.09926866854,568.923317431687,848.656293821019,349.685068220846,576.971974679454,476.373546837184,613.504806087112,773.909581815937,0,0,5,0,0,4,6,NaN,horizontal,vertical,vertical,vertical,horizontal,none
1a,3,100127,4,14,206,18,F,NA,variable,heterogeneous,3,present,1.33210587501526,1,horizontal,horizontal,1,0.811763785435603,green,2,1,977.137884467044,416.568350913644,870.287525733335,845.121732464271,870.287525733335,845.121732464271,977.137884467044,416.568350913644,552.574589799621,538.309916622085,0,0,0,0,0,0,5,4,3,NaN,NaN,NaN,vertical,horizontal,horizontal,none,none,none
1a,3,100127,4,15,207,18,F,NA,variable,heterogeneous,5,present,1.47396183013916,1,horizontal,horizontal,1,0.741175856957069,red,3,2,1038.06300875679,508.616172865948,960.476699717708,798.172220171528,661.117046071168,813.860994826083,960.476699717708,798.172220171528,1038.06300875679,508.616172865948,786.654331158049,345.349468637584,553.688914296288,534.001143498857,0,0,5,6,4,0,3,NaN,horizontal,vertical,horizontal,vertical,vertical,none
1a,3,100127,4,16,208,18,F,NA,variable,heterogeneous,6,present,0.663962125778198,1,vertical,vertical,1,0.623529309492845,green,2,4,1053.60308331891,626.654758133252,696.282156015671,367.045908301137,903.717843984329,832.954091698863,1053.60308331891,626.654758133252,949.885239334581,393.700666434388,696.282156015671,367.045908301137,546.39691668109,573.345241866748,650.114760665419,806.299333565612,3,4,0,0,6,5,vertical,vertical,vertical,horizontal,horizontal,horizontal
1a,3,100127,4,17,209,18,F,NA,variable,heterogeneous,5,absent,0.78303599357605,1,vertical,vertical,1,0.882351713914138,green,5,NaN,547.481642470899,635.489140744817,NaN,NaN,755.719714694933,851.125977018113,1025.15163617903,719.715248510402,983.431649086356,422.862115532956,688.215357568785,370.807518193712,547.481642470899,635.489140744817,0,0,6,3,5,0,4,NaN,horizontal,vertical,vertical,horizontal,vertical,none
1a,3,100127,4,18,210,18,F,NA,variable,heterogeneous,3,absent,0.779420137405396,1,vertical,vertical,1,0.623529309492845,red,1,NaN,956.993676208043,800.942742169714,NaN,NaN,956.993676208043,800.942742169714,895.524681321058,363.568117085469,547.481642470899,635.489140744817,0,0,0,0,0,0,4,3,5,NaN,NaN,NaN,vertical,horizontal,horizontal,none,none,none
1a,3,100127,4,19,211,18,F,NA,variable,heterogeneous,5,absent,1.12037205696106,1,horizontal,horizontal,1,0.870587059167715,green,4,NaN,557.480588344736,521.200666434388,NaN,NaN,949.885239334581,806.299333565612,1042.51941165526,521.200666434388,800,345,557.480588344736,521.200666434388,650.114760665419,806.299333565612,0,0,6,0,0,4,6,NaN,horizontal,horizontal,horizontal,horizontal,vertical,none
1a,3,100127,4,20,212,18,F,NA,variable,heterogeneous,3,absent,0.733585119247437,1,vertical,vertical,1,0.905881023406982,green,1,NaN,586.139005173917,738.882953928832,NaN,NaN,586.139005173917,738.882953928832,1027.20666366803,715.767577433584,786.654331158049,345.349468637584,0,0,0,0,0,0,4,0,3,NaN,NaN,NaN,vertical,horizontal,vertical,none,none,none
1a,3,100127,4,21,213,18,F,NA,variable,heterogeneous,5,absent,0.761057138442993,1,horizontal,horizontal,1,1.04705688036405,red,1,NaN,729.712474266665,845.121732464271,NaN,NaN,729.712474266665,845.121732464271,1011.40458100154,742.594190385041,1000.94274216971,443.006323791957,712.784863451954,360.378381699593,545.155339110131,608.899371659138,0,0,4,0,6,5,0,NaN,horizontal,vertical,vertical,horizontal,horizontal,none
1a,3,100127,4,22,214,18,F,NA,variable,heterogeneous,4,present,0.738710880279541,1,horizontal,horizontal,1,0.929410332899827,green,4,1,545.621167183745,617.787900804752,817.787900804752,854.378832816255,817.787900804752,854.378832816255,1054.37883281626,582.212099195248,782.212099195248,345.621167183745,545.621167183745,617.787900804752,0,0,0,0,6,0,3,4,NaN,NaN,horizontal,horizontal,vertical,horizontal,none,none
1a,3,100127,4,23,215,18,F,NA,variable,heterogeneous,4,absent,0.637435913085938,1,vertical,vertical,1,0.776469821196336,green,1,NaN,923.626453162816,823.028025320546,NaN,NaN,923.626453162816,823.028025320546,1023.02802532055,476.373546837184,676.373546837184,376.971974679454,576.971974679454,723.626453162816,0,0,0,0,4,3,6,6,NaN,NaN,vertical,horizontal,horizontal,vertical,none,none
1a,3,100127,4,24,216,18,F,NA,variable,heterogeneous,5,present,0.779783964157104,1,vertical,vertical,1,0.682352583224957,green,5,1,557.480588344736,678.799333565612,800,855,800,855,1042.51941165526,678.799333565612,949.885239334581,393.700666434388,650.114760665419,393.700666434388,557.480588344736,678.799333565612,0,0,6,0,3,5,4,NaN,horizontal,vertical,vertical,horizontal,vertical,none
1a,3,100127,4,25,217,18,F,NA,variable,heterogeneous,3,present,0.64640212059021,1,vertical,vertical,1,0.929410332899827,red,3,1,552.574589799621,661.690083377915,977.137884467044,783.431649086356,977.137884467044,783.431649086356,870.287525733335,354.878267535729,552.574589799621,661.690083377915,0,0,0,0,0,0,5,6,4,NaN,NaN,NaN,vertical,vertical,vertical,none,none,none
1a,3,100127,4,26,218,18,F,NA,variable,heterogeneous,3,present,0.821203947067261,1,horizontal,horizontal,1,0.694117237971379,green,1,3,919.715248510402,825.151636179026,545.155339110131,591.100628340862,919.715248510402,825.151636179026,935.129412379467,383.747735480111,545.155339110131,591.100628340862,0,0,0,0,0,0,4,0,3,NaN,NaN,NaN,horizontal,horizontal,vertical,none,none,none
1a,3,100127,4,27,219,18,F,NA,variable,heterogeneous,4,absent,0.734931945800781,1,horizontal,horizontal,1,0.64705861898569,red,1,NaN,626.090418184063,786.495193912888,NaN,NaN,626.090418184063,786.495193912888,986.495193912888,773.909581815937,973.909581815937,413.504806087112,613.504806087112,426.090418184063,0,0,0,0,4,0,6,0,NaN,NaN,horizontal,horizontal,horizontal,horizontal,none,none
1a,3,100127,4,28,220,18,F,NA,variable,heterogeneous,4,absent,1.20677304267883,1,horizontal,horizontal,1,0.858822404421293,green,3,NaN,622.862115532956,416.568350913644,NaN,NaN,977.137884467044,783.431649086356,983.431649086356,422.862115532956,622.862115532956,416.568350913644,616.568350913644,777.137884467044,0,0,0,0,3,0,4,0,NaN,NaN,vertical,vertical,horizontal,horizontal,none,none
1a,3,100127,4,29,221,18,F,NA,variable,heterogeneous,3,present,0.859185934066772,1,horizontal,horizontal,1,0.799999130689181,red,1,3,953.462830903772,803.65205506206,546.900731331463,631.076682568313,953.462830903772,803.65205506206,899.636437764765,365.271262369628,546.900731331463,631.076682568313,0,0,0,0,0,0,4,3,0,NaN,NaN,NaN,horizontal,vertical,vertical,none,none,none
1a,3,100127,4,30,222,18,F,NA,variable,heterogeneous,6,absent,0.756613969802856,1,vertical,vertical,1,0.999998261378362,green,2,NaN,989.501930496736,770.628304621509,NaN,NaN,746.982518841471,849.42763818712,989.501930496736,770.628304621509,1042.51941165526,521.200666434388,853.017481158529,350.57236181288,610.498069503264,429.371695378491,557.480588344736,678.799333565612,5,4,0,0,3,6,vertical,vertical,horizontal,vertical,vertical,vertical
1a,3,100127,4,31,223,18,F,NA,variable,heterogeneous,6,absent,0.598744869232178,1,vertical,vertical,1,0.952939642392672,red,2,NaN,1054.84466088987,608.899371659138,NaN,NaN,919.715248510402,825.151636179026,1054.84466088987,608.899371659138,935.129412379467,383.747735480111,680.284751489598,374.848363820974,545.155339110131,591.100628340862,664.870587620533,816.252264519889,0,4,5,0,6,5,vertical,vertical,horizontal,vertical,horizontal,vertical
1a,3,100127,4,32,224,18,F,NA,variable,heterogeneous,4,present,1.24392700195312,1,horizontal,horizontal,1,0.623529309492845,green,4,2,579.163522034968,472.5,1020.83647796503,727.5,672.5,820.836477965032,1020.83647796503,727.5,927.5,379.163522034968,579.163522034968,472.5,0,0,0,0,3,0,0,4,NaN,NaN,vertical,horizontal,vertical,horizontal,none,none
1a,3,100127,4,33,225,18,F,NA,variable,heterogeneous,6,present,0.593919038772583,1,vertical,vertical,1,1.05882153511047,green,2,5,1053.09926866854,631.076682568313,546.900731331463,568.923317431687,899.636437764765,834.728737630372,1053.09926866854,631.076682568313,953.462830903772,396.34794493794,700.363562235235,365.271262369628,546.900731331463,568.923317431687,646.537169096228,803.65205506206,5,4,0,6,3,6,horizontal,vertical,vertical,vertical,vertical,horizontal
1a,3,100127,4,34,226,18,F,NA,variable,heterogeneous,6,present,0.765630960464478,1,vertical,vertical,1,0.788234475942758,red,2,5,927.5,820.836477965032,672.5,379.163522034968,672.5,820.836477965032,927.5,820.836477965032,1055,600,927.5,379.163522034968,672.5,379.163522034968,545,600,6,4,6,3,3,0,vertical,vertical,vertical,horizontal,vertical,horizontal
1a,3,100127,4,35,227,18,F,NA,variable,heterogeneous,3,absent,1.42595720291138,1,vertical,vertical,1,1.03529222561763,green,3,NaN,760.109211414741,348.13947314824,NaN,NaN,601.827779828472,760.476699717708,1038.06300875679,691.383827134052,760.109211414741,348.13947314824,0,0,0,0,0,0,0,3,4,NaN,NaN,NaN,vertical,horizontal,vertical,none,none,none
1a,3,100127,4,36,228,18,F,NA,variable,heterogeneous,4,present,1.02418684959412,1,horizontal,horizontal,1,1.0705861898569,red,4,2,560.378381699593,512.784863451954,1039.62161830041,687.215136548046,712.784863451954,839.621618300407,1039.62161830041,687.215136548046,887.215136548046,360.378381699593,560.378381699593,512.784863451954,0,0,0,0,0,0,5,4,NaN,NaN,horizontal,horizontal,vertical,horizontal,none,none
1a,3,100127,4,37,229,18,F,NA,variable,heterogeneous,4,absent,1.31773519515991,1,vertical,vertical,1,0.84705774967487,green,2,NaN,986.495193912888,426.090418184063,NaN,NaN,973.909581815937,786.495193912888,986.495193912888,426.090418184063,626.090418184063,413.504806087112,613.504806087112,773.909581815937,0,0,0,0,6,4,6,3,NaN,NaN,vertical,vertical,horizontal,horizontal,none,none
1a,3,100127,4,38,230,18,F,NA,variable,heterogeneous,6,present,1.01860308647156,1,horizontal,horizontal,1,0.905881023406982,red,4,5,688.215357568785,370.807518193712,545.621167183745,582.212099195248,911.784642431215,829.192481806288,1054.37883281626,617.787900804752,942.594190385041,388.595418998464,688.215357568785,370.807518193712,545.621167183745,582.212099195248,657.405809614959,811.404581001536,0,6,5,4,6,3,horizontal,vertical,vertical,horizontal,horizontal,horizontal
1a,3,100127,4,39,231,18,F,NA,variable,heterogeneous,5,absent,1.24772095680237,1,vertical,vertical,1,0.835293094928448,red,2,NaN,1054.0296480134,577.775285599347,NaN,NaN,899.636437764765,834.728737630372,1054.0296480134,577.775285599347,857.362518857686,351.535633479765,581.422338320961,468.665290897936,607.549057043193,767.295052392579,0,0,3,4,0,6,3,NaN,vertical,vertical,vertical,horizontal,horizontal,none
1a,3,100127,4,40,232,18,F,NA,variable,heterogeneous,3,absent,0.678527116775513,1,horizontal,horizontal,1,0.870587059167715,green,2,NaN,1049.42763818712,653.017481158529,NaN,NaN,629.371695378491,789.501930496736,1049.42763818712,653.017481158529,721.200666434388,357.480588344736,0,0,0,0,0,0,3,4,6,NaN,NaN,NaN,horizontal,horizontal,horizontal,none,none,none
1a,3,100127,4,41,233,18,F,NA,variable,heterogeneous,4,present,1.48193097114563,1,horizontal,horizontal,1,0.682352583224957,red,3,2,626.090418184063,413.504806087112,986.495193912888,426.090418184063,973.909581815937,786.495193912888,986.495193912888,426.090418184063,626.090418184063,413.504806087112,613.504806087112,773.909581815937,0,0,0,0,6,0,4,5,NaN,NaN,horizontal,vertical,horizontal,vertical,none,none
1a,3,100127,4,42,234,18,F,NA,variable,heterogeneous,5,present,0.796663045883179,1,horizontal,horizontal,1,0.64705861898569,green,2,4,1043.85771277057,525.445215295702,558.892763222174,516.980120613425,946.261991269517,808.883771293693,1043.85771277057,525.445215295702,804.450363641507,345.03883773512,558.892763222174,516.980120613425,646.537169096228,803.65205506206,0,0,0,4,0,3,5,NaN,vertical,horizontal,vertical,vertical,vertical,none
1a,3,100127,4,43,235,18,F,NA,variable,heterogeneous,3,present,0.90897798538208,1,horizontal,horizontal,1,0.823528440182026,red,1,2,629.371695378491,789.501930496736,1049.42763818712,653.017481158529,629.371695378491,789.501930496736,1049.42763818712,653.017481158529,721.200666434388,357.480588344736,0,0,0,0,0,0,4,0,6,NaN,NaN,NaN,horizontal,vertical,horizontal,none,none,none
1a,3,100127,4,44,236,18,F,NA,variable,heterogeneous,5,absent,0.759696960449219,1,vertical,vertical,1,0.799999130689181,red,2,NaN,1050.31493177915,648.656293821019,NaN,NaN,831.076682568313,853.099268668537,1050.31493177915,648.656293821019,923.626453162816,376.971974679454,626.090418184063,413.504806087112,568.891514305654,707.767656743878,0,0,3,4,0,6,5,NaN,horizontal,vertical,vertical,vertical,horizontal,none
1a,3,100127,4,45,237,18,F,NA,variable,heterogeneous,3,absent,0.934107065200806,1,horizontal,horizontal,1,0.764705166449914,red,2,NaN,1008.88377129369,453.738008730483,NaN,NaN,822.224714400653,854.029648013395,1008.88377129369,453.738008730483,568.891514305654,492.232343256122,0,0,0,0,0,0,3,4,3,NaN,NaN,NaN,vertical,horizontal,vertical,none,none,none
1a,3,100127,4,46,238,18,F,NA,variable,heterogeneous,5,present,1.55498909950256,1,vertical,vertical,1,0.694117237971379,green,4,3,734.001143498857,353.688914296288,1013.86099482608,461.117046071168,708.616172865948,838.063008756786,998.172220171528,760.476699717708,1013.86099482608,461.117046071168,734.001143498857,353.688914296288,545.349468637584,586.654331158049,0,0,6,5,6,4,5,NaN,horizontal,horizontal,horizontal,vertical,vertical,none
1a,3,100127,4,47,239,18,F,NA,variable,heterogeneous,4,absent,0.699875116348267,1,vertical,vertical,1,0.882351713914138,red,3,NaN,636.089159529932,404.658667004661,NaN,NaN,963.910840470068,795.341332995339,995.341332995339,436.089159529932,636.089159529932,404.658667004661,604.658667004661,763.910840470068,0,0,0,0,3,5,4,5,NaN,NaN,horizontal,horizontal,vertical,vertical,none,none
1a,3,100127,4,48,240,18,F,NA,variable,heterogeneous,6,absent,1.2973530292511,1,vertical,vertical,1,0.976468951885517,red,5,NaN,546.39691668109,573.345241866748,NaN,NaN,903.717843984329,832.954091698863,1053.60308331891,626.654758133252,949.885239334581,393.700666434388,696.282156015671,367.045908301137,546.39691668109,573.345241866748,650.114760665419,806.299333565612,5,0,6,5,4,3,horizontal,horizontal,vertical,horizontal,vertical,vertical
1a,3,100127,4,49,241,18,F,NA,variable,heterogeneous,4,absent,1.59870600700378,1,horizontal,horizontal,1,0.752940511703491,green,2,NaN,1018.57766167904,731.334709102064,NaN,NaN,668.665290897936,818.577661679039,1018.57766167904,731.334709102064,931.334709102064,381.422338320961,581.422338320961,468.665290897936,0,0,0,0,6,4,6,3,NaN,NaN,vertical,horizontal,vertical,horizontal,none,none
1a,3,100127,4,50,242,18,F,NA,variable,heterogeneous,3,present,0.728396892547607,1,vertical,vertical,1,1.08235084460332,red,3,2,545.970351986605,577.775285599347,946.261991269517,391.116228706307,907.767656743878,831.108485694346,946.261991269517,391.116228706307,545.970351986605,577.775285599347,0,0,0,0,0,0,6,0,4,NaN,NaN,NaN,horizontal,vertical,vertical,none,none,none
1a,3,100127,4,51,243,18,F,NA,variable,heterogeneous,6,absent,0.773378133773804,1,horizontal,horizontal,1,0.694117237971379,green,6,NaN,554.878267535729,670.287525733335,NaN,NaN,738.309916622085,847.425410200379,983.431649086356,777.137884467044,1045.12173246427,529.712474266665,861.690083377915,352.574589799621,616.568350913644,422.862115532956,554.878267535729,670.287525733335,5,0,0,6,3,4,horizontal,vertical,vertical,horizontal,horizontal,horizontal
1a,3,100127,4,52,244,18,F,NA,variable,heterogeneous,4,absent,0.622649908065796,1,horizontal,horizontal,1,0.89411636866056,red,4,NaN,545.03883773512,595.549636358493,NaN,NaN,795.549636358493,854.96116226488,1054.96116226488,604.450363641507,804.450363641507,345.03883773512,545.03883773512,595.549636358493,0,0,0,0,6,5,0,4,NaN,NaN,vertical,vertical,vertical,horizontal,none,none
1a,3,100127,4,53,245,18,F,NA,variable,heterogeneous,3,present,1.08541488647461,1,vertical,vertical,1,1.09411549934974,green,2,1,915.767577433584,372.793336331966,938.882953928832,813.860994826083,938.882953928832,813.860994826083,915.767577433584,372.793336331966,545.349468637584,613.345668841951,0,0,0,0,0,0,6,4,0,NaN,NaN,NaN,vertical,vertical,horizontal,none,none,none
1a,3,100127,4,54,246,18,F,NA,variable,heterogeneous,5,present,0.885442972183228,1,horizontal,horizontal,1,0.705881892717802,green,5,4,550.57236181288,653.017481158529,672.5,379.163522034968,773.345241866748,853.60308331891,1032.95409169886,703.717843984329,970.628304621509,410.498069503264,672.5,379.163522034968,550.57236181288,653.017481158529,0,0,0,0,5,3,4,NaN,horizontal,horizontal,vertical,vertical,horizontal,none
