experiment,subject,uniqueID,block,trial,trial_cumulative,age,gender,color_cond_blocking,color_history,shape_type,set_size,distractor,rt,acc,target_orient,response_key,response_made,iti,target_color,target_item,distractor_item,target_X,target_Y,distractor_X,distractor_Y,item1_X,item1_Y,item2_X,item2_Y,item3_X,item3_Y,item4_X,item4_Y,item5_X,item5_Y,item6_X,item6_Y,item1_shape,item2_shape,item3_shape,item4_shape,item5_shape,item6_shape,item1_line,item2_line,item3_line,item4_line,item5_line,item6_line
1a,4,100135,1,1,1,21,M,NA,variable,heterogeneous,6,present,1.0001380443573,0,vertical,horizontal,1,0.611764509027654,green,6,3,545.155339110131,608.899371659138,1054.84466088987,591.100628340862,680.284751489598,825.151636179026,935.129412379467,816.252264519889,1054.84466088987,591.100628340862,919.715248510402,374.848363820974,664.870587620533,383.747735480111,545.155339110131,608.899371659138,0,5,0,6,3,4,horizontal,vertical,vertical,vertical,horizontal,vertical
1a,4,100135,1,2,2,21,M,NA,variable,heterogeneous,6,present,0.887042999267578,0,horizontal,vertical,1,0.94117076180198,green,6,5,545.03883773512,604.450363641507,668.665290897936,381.422338320961,676.373546837184,823.028025320546,931.334709102064,818.577661679039,1054.96116226488,595.549636358493,923.626453162816,376.971974679454,668.665290897936,381.422338320961,545.03883773512,604.450363641507,0,6,3,3,0,4,vertical,vertical,vertical,vertical,horizontal,horizontal
1a,4,100135,1,3,3,21,M,NA,variable,heterogeneous,4,present,0.932914972305298,0,horizontal,vertical,1,0.611764509027654,red,3,1,870.287525733335,354.878267535729,729.712474266665,845.121732464271,729.712474266665,845.121732464271,1045.12173246427,670.287525733335,870.287525733335,354.878267535729,554.878267535729,529.712474266665,0,0,0,0,3,3,4,5,NaN,NaN,horizontal,vertical,horizontal,horizontal,none,none
1a,4,100135,1,4,4,21,M,NA,variable,heterogeneous,6,absent,1.40554189682007,1,horizontal,horizontal,1,0.682351563193581,red,4,NaN,773.345241866748,346.39691668109,NaN,NaN,826.654758133252,853.60308331891,1032.95409169886,703.717843984329,1006.29933356561,450.114760665419,773.345241866748,346.39691668109,567.045908301137,496.282156015671,593.700666434388,749.885239334581,0,5,0,4,3,3,horizontal,horizontal,horizontal,horizontal,horizontal,horizontal
1a,4,100135,1,5,5,21,M,NA,variable,heterogeneous,6,present,1.84778094291687,1,horizontal,horizontal,1,0.70588058124889,green,5,3,672.5,379.163522034968,1055,600,672.5,820.836477965032,927.5,820.836477965032,1055,600,927.5,379.163522034968,672.5,379.163522034968,545,600,0,3,3,0,4,6,horizontal,horizontal,horizontal,vertical,horizontal,horizontal
1a,4,100135,1,6,6,21,M,NA,variable,heterogeneous,6,absent,1.15096879005432,0,horizontal,vertical,1,0.694116072221236,green,3,NaN,1054.37883281626,582.212099195248,NaN,NaN,688.215357568785,829.192481806288,942.594190385041,811.404581001536,1054.37883281626,582.212099195248,911.784642431215,370.807518193712,657.405809614959,388.595418998464,545.621167183745,617.787900804752,0,5,4,3,6,3,horizontal,vertical,horizontal,vertical,vertical,horizontal
1a,4,100135,1,7,7,21,M,NA,variable,heterogeneous,4,present,NaN,0,horizontal,none,0,0.611764509027654,green,1,3,721.200666434388,842.519411655264,878.799333565612,357.480588344736,721.200666434388,842.519411655264,1042.51941165526,678.799333565612,878.799333565612,357.480588344736,557.480588344736,521.200666434388,0,0,0,0,4,0,5,0,NaN,NaN,horizontal,horizontal,horizontal,horizontal,none,none
1a,4,100135,1,8,8,21,M,NA,variable,heterogeneous,3,absent,1.03041505813599,1,vertical,vertical,1,0.776467635414817,red,3,NaN,546.39691668109,626.654758133252,NaN,NaN,949.885239334581,806.299333565612,903.717843984329,367.045908301137,546.39691668109,626.654758133252,0,0,0,0,0,0,0,5,4,NaN,NaN,NaN,horizontal,horizontal,vertical,none,none,none
1a,4,100135,1,9,9,21,M,NA,variable,heterogeneous,5,absent,1.71285700798035,0,vertical,horizontal,1,0.682351563193581,red,4,NaN,782.212099195248,345.621167183745,NaN,NaN,664.870587620533,816.252264519889,963.910840470068,795.341332995339,1036.43188291453,504.475318678942,782.212099195248,345.621167183745,552.574589799621,538.309916622085,0,0,5,3,0,4,6,NaN,vertical,vertical,vertical,vertical,vertical,none
1a,4,100135,1,10,10,21,M,NA,variable,heterogeneous,5,present,NaN,0,horizontal,none,0,0.741174108331854,green,1,2,742.637481142314,848.464366520235,1018.57766167904,731.334709102064,742.637481142314,848.464366520235,1018.57766167904,731.334709102064,992.450942956807,432.704947607421,700.363562235235,365.271262369628,545.970351986605,622.224714400653,0,0,4,0,5,3,3,NaN,horizontal,vertical,horizontal,vertical,horizontal,none
1a,4,100135,1,11,11,21,M,NA,variable,heterogeneous,6,present,1.22754192352295,0,horizontal,vertical,1,1.07058036110618,red,1,6,672.5,820.836477965032,545,600,672.5,820.836477965032,927.5,820.836477965032,1055,600,927.5,379.163522034968,672.5,379.163522034968,545,600,4,6,5,3,5,0,horizontal,horizontal,vertical,horizontal,horizontal,vertical
1a,4,100135,1,12,12,21,M,NA,variable,heterogeneous,4,present,0.753201007843018,0,vertical,horizontal,1,0.647058036110618,green,1,3,696.282156015671,832.954091698863,903.717843984329,367.045908301137,696.282156015671,832.954091698863,1032.95409169886,703.717843984329,903.717843984329,367.045908301137,567.045908301137,496.282156015671,0,0,0,0,4,5,0,5,NaN,NaN,vertical,horizontal,vertical,horizontal,none,none
1a,4,100135,1,13,13,21,M,NA,variable,heterogeneous,5,present,0.925464868545532,1,vertical,vertical,1,0.647058036110618,green,1,5,915.767577433584,827.206663668034,619.68777079743,780.31222920257,915.767577433584,827.206663668034,1051.86052685176,560.109211414741,839.890788585259,348.13947314824,572.793336331966,484.232422566416,619.68777079743,780.31222920257,0,0,4,6,0,0,6,NaN,vertical,vertical,horizontal,horizontal,horizontal,none
1a,4,100135,1,14,14,21,M,NA,variable,heterogeneous,3,present,1.32640314102173,1,horizontal,horizontal,1,0.717645090276545,green,1,2,804.450363641507,854.96116226488,1018.57766167904,468.665290897936,804.450363641507,854.96116226488,1018.57766167904,468.665290897936,576.971974679454,476.373546837184,0,0,0,0,0,0,4,0,3,NaN,NaN,NaN,horizontal,vertical,vertical,none,none,none
1a,4,100135,1,15,15,21,M,NA,variable,heterogeneous,6,present,0.640892028808594,1,vertical,vertical,1,0.988228797912598,green,3,1,983.431649086356,422.862115532956,861.690083377915,847.425410200379,861.690083377915,847.425410200379,1045.12173246427,670.287525733335,983.431649086356,422.862115532956,738.309916622085,352.574589799621,554.878267535729,529.712474266665,616.568350913644,777.137884467044,3,5,4,6,0,6,vertical,vertical,vertical,horizontal,horizontal,horizontal
1a,4,100135,1,16,16,21,M,NA,variable,heterogeneous,4,absent,1.11667203903198,1,horizontal,horizontal,1,0.94117076180198,green,4,NaN,545.03883773512,595.549636358493,NaN,NaN,795.549636358493,854.96116226488,1054.96116226488,604.450363641507,804.450363641507,345.03883773512,545.03883773512,595.549636358493,0,0,0,0,5,0,6,4,NaN,NaN,vertical,horizontal,vertical,horizontal,none,none
1a,4,100135,1,17,17,21,M,NA,variable,heterogeneous,5,present,1.29838490486145,1,vertical,vertical,1,0.752938617359508,red,3,2,995.341332995339,436.089159529932,1016.25226451989,735.129412379467,738.309916622085,847.425410200379,1016.25226451989,735.129412379467,995.341332995339,436.089159529932,704.475318678942,363.568117085469,545.621167183745,617.787900804752,0,0,6,0,4,3,0,NaN,vertical,horizontal,vertical,vertical,horizontal,none
1a,4,100135,1,18,18,21,M,NA,variable,heterogeneous,6,absent,1.32009792327881,1,vertical,vertical,1,0.976464288884943,green,3,NaN,938.882953928832,386.139005173917,NaN,NaN,915.767577433584,827.206663668034,1054.65053136242,613.345668841951,938.882953928832,386.139005173917,684.232422566416,372.793336331966,545.349468637584,586.654331158049,661.117046071168,813.860994826083,3,3,4,5,6,6,vertical,vertical,vertical,vertical,horizontal,horizontal
1a,4,100135,1,19,19,21,M,NA,variable,heterogeneous,3,absent,1.10980582237244,1,horizontal,horizontal,1,0.752938617359508,red,3,NaN,786.654331158049,345.349468637584,NaN,NaN,586.139005173917,738.882953928832,1027.20666366803,715.767577433584,786.654331158049,345.349468637584,0,0,0,0,0,0,6,6,4,NaN,NaN,NaN,vertical,vertical,horizontal,none,none,none
1a,4,100135,1,20,20,21,M,NA,variable,heterogeneous,6,absent,0.727176904678345,0,vertical,horizontal,1,0.752938617359508,green,1,NaN,895.524681321058,836.431882914531,NaN,NaN,895.524681321058,836.431882914531,1052.5183575291,635.489140744817,956.993676208043,399.057257830286,704.475318678942,363.568117085469,547.481642470899,564.510859255183,643.006323791957,800.942742169714,4,5,0,0,6,5,vertical,horizontal,horizontal,horizontal,horizontal,horizontal
1a,4,100135,1,21,21,21,M,NA,variable,heterogeneous,3,absent,0.940001964569092,0,horizontal,vertical,1,0.70588058124889,red,3,NaN,700.363562235235,365.271262369628,NaN,NaN,646.537169096228,803.65205506206,1053.09926866854,631.076682568313,700.363562235235,365.271262369628,0,0,0,0,0,0,0,5,4,NaN,NaN,NaN,horizontal,vertical,horizontal,none,none,none
1a,4,100135,1,22,22,21,M,NA,variable,heterogeneous,4,present,1.32017397880554,1,horizontal,horizontal,1,0.858819198608398,red,4,1,579.163522034968,727.5,927.5,820.836477965032,927.5,820.836477965032,1020.83647796503,472.5,672.5,379.163522034968,579.163522034968,727.5,0,0,0,0,5,3,6,4,NaN,NaN,vertical,vertical,horizontal,horizontal,none,none
1a,4,100135,1,23,23,21,M,NA,variable,heterogeneous,6,absent,NaN,0,vertical,none,0,0.870583707636053,red,2,NaN,1013.86099482608,738.882953928832,NaN,NaN,786.654331158049,854.650531362416,1013.86099482608,738.882953928832,1027.20666366803,484.232422566416,813.345668841951,345.349468637584,586.139005173917,461.117046071168,572.793336331966,715.767577433584,6,4,3,3,6,5,vertical,vertical,horizontal,horizontal,horizontal,vertical
1a,4,100135,1,24,24,21,M,NA,variable,heterogeneous,3,absent,1.43263602256775,1,horizontal,horizontal,1,0.811761162497781,green,3,NaN,591.116228706307,453.738008730483,NaN,NaN,777.775285599347,854.029648013395,1031.10848569435,492.232343256122,591.116228706307,453.738008730483,0,0,0,0,0,0,5,3,4,NaN,NaN,NaN,vertical,vertical,horizontal,none,none,none
1a,4,100135,1,25,25,21,M,NA,variable,heterogeneous,6,present,0.846086025238037,1,vertical,vertical,1,1.02352232499556,red,1,6,874.554784704298,843.857712770574,626.090418184063,786.495193912888,874.554784704298,843.857712770574,1048.46436652023,657.362518857686,973.909581815937,413.504806087112,725.445215295702,356.142287229426,551.535633479765,542.637481142314,626.090418184063,786.495193912888,4,6,5,3,6,5,vertical,vertical,horizontal,vertical,horizontal,vertical
1a,4,100135,1,26,26,21,M,NA,variable,heterogeneous,3,present,1.06726789474487,1,horizontal,horizontal,1,0.999993306940252,red,2,3,935.129412379467,383.747735480111,545.155339110131,591.100628340862,919.715248510402,825.151636179026,935.129412379467,383.747735480111,545.155339110131,591.100628340862,0,0,0,0,0,0,6,4,0,NaN,NaN,NaN,vertical,horizontal,vertical,none,none,none
1a,4,100135,1,27,27,21,M,NA,variable,heterogeneous,3,present,1.22272610664368,1,vertical,vertical,1,0.694116072221236,green,1,3,653.738008730483,808.883771293693,692.232343256122,368.891514305654,653.738008730483,808.883771293693,1054.0296480134,622.224714400653,692.232343256122,368.891514305654,0,0,0,0,0,0,4,3,5,NaN,NaN,NaN,vertical,horizontal,horizontal,none,none,none
1a,4,100135,1,28,28,21,M,NA,variable,heterogeneous,5,absent,1.65173411369324,0,horizontal,vertical,1,1.02352232499556,red,3,NaN,960.476699717708,401.827779828472,NaN,NaN,786.654331158049,854.650531362416,1038.06300875679,691.383827134052,960.476699717708,401.827779828472,661.117046071168,386.139005173917,553.688914296288,665.998856501143,0,0,0,5,4,3,3,NaN,vertical,horizontal,horizontal,vertical,horizontal,none
1a,4,100135,1,29,29,21,M,NA,variable,heterogeneous,5,present,0.998281002044678,1,vertical,vertical,1,0.658822545138272,red,4,2,560.378381699593,512.784863451954,1045.12173246427,529.712474266665,942.594190385041,811.404581001536,1045.12173246427,529.712474266665,808.899371659138,345.155339110131,560.378381699593,512.784863451954,643.006323791957,800.942742169714,0,0,6,3,3,4,6,NaN,horizontal,vertical,vertical,vertical,vertical,none
1a,4,100135,1,30,30,21,M,NA,variable,heterogeneous,4,absent,0.723090887069702,0,vertical,horizontal,1,1.03528683402322,red,2,NaN,1053.60308331891,626.654758133252,NaN,NaN,773.345241866748,853.60308331891,1053.60308331891,626.654758133252,826.654758133252,346.39691668109,546.39691668109,573.345241866748,0,0,0,0,5,4,6,0,NaN,NaN,horizontal,vertical,vertical,vertical,none,none
1a,4,100135,1,31,31,21,M,NA,variable,heterogeneous,4,absent,1.29098796844482,0,vertical,horizontal,1,1.07058036110618,green,4,NaN,567.045908301137,496.282156015671,NaN,NaN,696.282156015671,832.954091698863,1032.95409169886,703.717843984329,903.717843984329,367.045908301137,567.045908301137,496.282156015671,0,0,0,0,5,0,3,4,NaN,NaN,horizontal,vertical,vertical,vertical,none,none
1a,4,100135,1,32,32,21,M,NA,variable,heterogeneous,4,absent,0.853191137313843,1,horizontal,horizontal,1,0.999993306940252,green,3,NaN,870.287525733335,354.878267535729,NaN,NaN,729.712474266665,845.121732464271,1045.12173246427,670.287525733335,870.287525733335,354.878267535729,554.878267535729,529.712474266665,0,0,0,0,5,5,4,6,NaN,NaN,vertical,vertical,horizontal,vertical,none,none
1a,4,100135,1,33,33,21,M,NA,variable,heterogeneous,3,absent,0.933084964752197,1,vertical,vertical,1,0.741174108331854,green,3,NaN,782.212099195248,345.621167183745,NaN,NaN,588.595418998464,742.594190385041,1029.19248180629,711.784642431215,782.212099195248,345.621167183745,0,0,0,0,0,0,0,5,4,NaN,NaN,NaN,vertical,vertical,vertical,none,none,none
1a,4,100135,1,34,34,21,M,NA,variable,heterogeneous,3,present,0.85307788848877,1,vertical,vertical,1,1.05881585207852,red,3,2,742.637481142314,351.535633479765,1043.85771277057,674.554784704298,613.504806087112,773.909581815937,1043.85771277057,674.554784704298,742.637481142314,351.535633479765,0,0,0,0,0,0,0,3,4,NaN,NaN,NaN,vertical,horizontal,vertical,none,none,none
1a,4,100135,1,35,35,21,M,NA,variable,heterogeneous,6,absent,0.69174599647522,1,horizontal,horizontal,1,0.870583707636053,green,3,NaN,1053.60308331891,573.345241866748,NaN,NaN,696.282156015671,832.954091698863,949.885239334581,806.299333565612,1053.60308331891,573.345241866748,903.717843984329,367.045908301137,650.114760665419,393.700666434388,546.39691668109,626.654758133252,6,0,4,6,5,5,vertical,vertical,horizontal,horizontal,horizontal,vertical
1a,4,100135,1,36,36,21,M,NA,variable,heterogeneous,6,absent,1.33876395225525,1,horizontal,horizontal,1,0.658822545138272,red,5,NaN,553.688914296288,534.001143498857,NaN,NaN,865.998856501143,846.311085703712,1046.31108570371,665.998856501143,980.31222920257,419.68777079743,734.001143498857,353.688914296288,553.688914296288,534.001143498857,619.68777079743,780.31222920257,6,3,0,5,4,6,horizontal,horizontal,vertical,horizontal,horizontal,horizontal
1a,4,100135,1,37,37,21,M,NA,variable,heterogeneous,5,absent,1.19626593589783,1,horizontal,horizontal,1,0.929406252774325,green,5,NaN,545.621167183745,582.212099195248,NaN,NaN,704.475318678942,836.431882914531,995.341332995339,763.910840470068,1016.25226451989,464.870587620533,738.309916622085,352.574589799621,545.621167183745,582.212099195248,0,0,3,5,6,0,4,NaN,vertical,horizontal,horizontal,vertical,horizontal,none
1a,4,100135,1,38,38,21,M,NA,variable,heterogeneous,5,present,0.992596864700317,1,horizontal,horizontal,1,0.811761162497781,green,4,3,643.006323791957,399.057257830286,942.594190385041,388.595418998464,808.899371659138,854.844660889869,1045.12173246427,670.287525733335,942.594190385041,388.595418998464,643.006323791957,399.057257830286,560.378381699593,687.215136548046,0,0,0,5,0,4,6,NaN,vertical,horizontal,horizontal,horizontal,horizontal,none
1a,4,100135,1,39,39,21,M,NA,variable,heterogeneous,3,present,0.7131028175354,1,vertical,vertical,1,0.623529018055309,green,2,1,1052.5183575291,564.510859255183,704.475318678942,836.431882914531,704.475318678942,836.431882914531,1052.5183575291,564.510859255183,643.006323791957,399.057257830286,0,0,0,0,0,0,6,4,0,NaN,NaN,NaN,vertical,vertical,horizontal,none,none,none
1a,4,100135,1,40,40,21,M,NA,variable,heterogeneous,3,absent,0.532656908035278,1,vertical,vertical,1,0.647058036110618,green,2,NaN,1051.12597701811,644.280285305067,NaN,NaN,636.089159529932,795.341332995339,1051.12597701811,644.280285305067,712.784863451954,360.378381699593,0,0,0,0,0,0,3,4,3,NaN,NaN,NaN,vertical,vertical,vertical,none,none,none
1a,4,100135,1,41,41,21,M,NA,variable,heterogeneous,4,absent,0.617611885070801,1,horizontal,horizontal,1,0.717645090276545,red,2,NaN,1013.86099482608,738.882953928832,NaN,NaN,661.117046071168,813.860994826083,1013.86099482608,738.882953928832,938.882953928832,386.139005173917,586.139005173917,461.117046071168,0,0,0,0,3,4,5,5,NaN,NaN,horizontal,horizontal,horizontal,horizontal,none,none
1a,4,100135,1,42,42,21,M,NA,variable,heterogeneous,5,absent,1.72068190574646,0,vertical,horizontal,1,0.929406252774325,green,1,NaN,800,855,NaN,NaN,800,855,1042.51941165526,678.799333565612,949.885239334581,393.700666434388,650.114760665419,393.700666434388,557.480588344736,678.799333565612,0,0,4,6,6,0,5,NaN,vertical,horizontal,vertical,vertical,vertical,none
1a,4,100135,1,43,43,21,M,NA,variable,heterogeneous,5,present,0.943363189697266,1,horizontal,horizontal,1,0.999993306940252,red,3,1,995.341332995339,436.089159529932,738.309916622085,847.425410200379,738.309916622085,847.425410200379,1016.25226451989,735.129412379467,995.341332995339,436.089159529932,704.475318678942,363.568117085469,545.621167183745,617.787900804752,0,0,6,0,4,5,6,NaN,vertical,horizontal,horizontal,horizontal,vertical,none
1a,4,100135,1,44,44,21,M,NA,variable,heterogeneous,4,absent,0.931636810302734,0,vertical,horizontal,1,0.658822545138272,green,1,NaN,700.363562235235,834.728737630372,NaN,NaN,700.363562235235,834.728737630372,1034.72873763037,699.636437764765,899.636437764765,365.271262369628,565.271262369628,500.363562235235,0,0,0,0,4,0,5,6,NaN,NaN,vertical,vertical,horizontal,horizontal,none,none
1a,4,100135,1,45,45,21,M,NA,variable,heterogeneous,3,present,0.613671064376831,1,vertical,vertical,1,0.752938617359508,red,3,1,568.891514305654,707.767656743878,1008.88377129369,746.261991269517,1008.88377129369,746.261991269517,822.224714400653,345.970351986605,568.891514305654,707.767656743878,0,0,0,0,0,0,5,6,4,NaN,NaN,NaN,vertical,vertical,vertical,none,none,none
1a,4,100135,1,46,46,21,M,NA,variable,heterogeneous,4,present,0.784956932067871,1,vertical,vertical,1,0.741174108331854,red,1,2,977.137884467044,783.431649086356,983.431649086356,422.862115532956,977.137884467044,783.431649086356,983.431649086356,422.862115532956,622.862115532956,416.568350913644,616.568350913644,777.137884467044,0,0,0,0,4,5,3,3,NaN,NaN,vertical,vertical,horizontal,vertical,none,none
1a,4,100135,1,47,47,21,M,NA,variable,heterogeneous,5,absent,0.785795927047729,1,vertical,vertical,1,0.858819198608398,green,2,NaN,1042.51941165526,678.799333565612,NaN,NaN,800,855,1042.51941165526,678.799333565612,949.885239334581,393.700666434388,650.114760665419,393.700666434388,557.480588344736,678.799333565612,0,0,3,4,6,6,0,NaN,horizontal,vertical,horizontal,vertical,vertical,none
1a,4,100135,1,48,48,21,M,NA,variable,heterogeneous,4,absent,1.03158688545227,1,horizontal,horizontal,1,1.09410937916149,red,2,NaN,1053.09926866854,568.923317431687,NaN,NaN,831.076682568313,853.099268668537,1053.09926866854,568.923317431687,768.923317431687,346.900731331463,546.900731331463,631.076682568313,0,0,0,0,0,4,6,3,NaN,NaN,vertical,horizontal,horizontal,horizontal,none,none
1a,4,100135,1,49,49,21,M,NA,variable,heterogeneous,5,absent,0.844851970672607,1,vertical,vertical,1,1.02352232499556,red,3,NaN,938.882953928832,386.139005173917,NaN,NaN,813.345668841951,854.650531362416,1046.31108570371,665.998856501143,938.882953928832,386.139005173917,639.523300282292,401.827779828472,561.936991243214,691.383827134052,0,0,5,6,4,0,0,NaN,horizontal,vertical,vertical,vertical,horizontal,none
1a,4,100135,1,50,50,21,M,NA,variable,heterogeneous,4,present,1.19876313209534,0,vertical,horizontal,1,0.847054689580744,green,3,2,853.017481158529,350.57236181288,1049.42763818712,653.017481158529,746.982518841471,849.42763818712,1049.42763818712,653.017481158529,853.017481158529,350.57236181288,550.57236181288,546.982518841471,0,0,0,0,6,6,4,5,NaN,NaN,horizontal,vertical,vertical,vertical,none,none
1a,4,100135,1,51,51,21,M,NA,variable,heterogeneous,6,absent,1.93052315711975,0,vertical,horizontal,1,0.776467635414817,red,5,NaN,664.870587620533,383.747735480111,NaN,NaN,680.284751489598,825.151636179026,935.129412379467,816.252264519889,1054.84466088987,591.100628340862,919.715248510402,374.848363820974,664.870587620533,383.747735480111,545.155339110131,608.899371659138,5,3,6,5,4,6,horizontal,horizontal,horizontal,vertical,vertical,horizontal
1a,4,100135,1,52,52,21,M,NA,variable,heterogeneous,4,absent,1.10145592689514,1,vertical,vertical,1,0.999993306940252,red,2,NaN,1023.02802532055,476.373546837184,NaN,NaN,923.626453162816,823.028025320546,1023.02802532055,476.373546837184,676.373546837184,376.971974679454,576.971974679454,723.626453162816,0,0,0,0,0,4,6,3,NaN,NaN,vertical,vertical,horizontal,vertical,none,none
1a,4,100135,1,53,53,21,M,NA,variable,heterogeneous,3,present,0.796163082122803,1,horizontal,horizontal,1,1.02352232499556,red,2,1,1055,600,672.5,820.836477965032,672.5,820.836477965032,1055,600,672.5,379.163522034968,0,0,0,0,0,0,6,4,5,NaN,NaN,NaN,horizontal,horizontal,horizontal,none,none,none
1a,4,100135,1,54,54,21,M,NA,variable,heterogeneous,6,present,1.90464305877686,1,horizontal,horizontal,1,0.635293527082963,red,6,1,545.155339110131,608.899371659138,680.284751489598,825.151636179026,680.284751489598,825.151636179026,935.129412379467,816.252264519889,1054.84466088987,591.100628340862,919.715248510402,374.848363820974,664.870587620533,383.747735480111,545.155339110131,608.899371659138,3,6,5,0,0,4,vertical,horizontal,vertical,horizontal,horizontal,horizontal
1a,4,100135,1,55,55,21,M,NA,variable,heterogeneous,4,present,1.33495903015137,1,horizontal,horizontal,1,0.988228797912598,green,3,1,729.712474266665,354.878267535729,870.287525733335,845.121732464271,870.287525733335,845.121732464271,1045.12173246427,529.712474266665,729.712474266665,354.878267535729,554.878267535729,670.287525733335,0,0,0,0,3,0,4,3,NaN,NaN,horizontal,horizontal,horizontal,vertical,none,none
1a,4,100135,1,56,56,21,M,NA,variable,heterogeneous,5,absent,0.802872896194458,1,horizontal,horizontal,1,0.647058036110618,green,3,NaN,1042.51941165526,521.200666434388,NaN,NaN,650.114760665419,806.299333565612,949.885239334581,806.299333565612,1042.51941165526,521.200666434388,800,345,557.480588344736,521.200666434388,0,0,5,5,4,0,6,NaN,vertical,vertical,horizontal,horizontal,horizontal,none
1a,4,100135,1,57,57,21,M,NA,variable,heterogeneous,3,absent,0.676873922348022,1,horizontal,horizontal,1,0.882348216663707,green,2,NaN,986.495193912888,426.090418184063,NaN,NaN,857.362518857686,848.464366520235,986.495193912888,426.090418184063,556.142287229426,525.445215295702,0,0,0,0,0,0,0,4,6,NaN,NaN,NaN,vertical,horizontal,vertical,none,none,none
1a,4,100135,1,58,58,21,M,NA,variable,heterogeneous,4,present,1.34300303459167,1,vertical,vertical,1,0.635293527082963,red,3,1,696.282156015671,367.045908301137,903.717843984329,832.954091698863,903.717843984329,832.954091698863,1032.95409169886,496.282156015671,696.282156015671,367.045908301137,567.045908301137,703.717843984329,0,0,0,0,5,6,4,3,NaN,NaN,horizontal,vertical,vertical,horizontal,none,none
1a,4,100135,1,59,59,21,M,NA,variable,heterogeneous,5,present,1.52057600021362,0,vertical,horizontal,1,0.917641743746671,green,4,5,563.568117085469,504.475318678942,636.089159529932,795.341332995339,935.129412379467,816.252264519889,1047.42541020038,538.309916622085,817.787900804752,345.621167183745,563.568117085469,504.475318678942,636.089159529932,795.341332995339,0,0,3,6,5,4,5,NaN,horizontal,vertical,vertical,vertical,horizontal,none
1a,4,100135,1,60,60,21,M,NA,variable,heterogeneous,3,present,1.46419596672058,1,horizontal,horizontal,1,0.847054689580744,green,1,2,629.371695378491,789.501930496736,1049.42763818712,653.017481158529,629.371695378491,789.501930496736,1049.42763818712,653.017481158529,721.200666434388,357.480588344736,0,0,0,0,0,0,4,0,6,NaN,NaN,NaN,horizontal,horizontal,vertical,none,none,none
1a,4,100135,1,61,61,21,M,NA,variable,heterogeneous,6,present,1.62441492080688,0,vertical,horizontal,1,0.752938617359508,red,5,2,661.117046071168,386.139005173917,938.882953928832,813.860994826083,684.232422566416,827.206663668034,938.882953928832,813.860994826083,1054.65053136242,586.654331158049,915.767577433584,372.793336331966,661.117046071168,386.139005173917,545.349468637584,613.345668841951,0,6,5,3,4,0,vertical,horizontal,horizontal,horizontal,vertical,vertical
1a,4,100135,1,62,62,21,M,NA,variable,heterogeneous,5,absent,1.83746790885925,0,horizontal,vertical,1,0.999993306940252,red,5,NaN,545.970351986605,577.775285599347,NaN,NaN,700.363562235235,834.728737630372,992.450942956807,767.295052392579,1018.57766167904,468.665290897936,742.637481142314,351.535633479765,545.970351986605,577.775285599347,0,0,3,3,6,5,4,NaN,vertical,vertical,vertical,vertical,horizontal,none
1a,4,100135,1,63,63,21,M,NA,variable,heterogeneous,3,absent,0.772613048553467,1,vertical,vertical,1,0.70588058124889,red,2,NaN,1054.0296480134,622.224714400653,NaN,NaN,653.738008730483,808.883771293693,1054.0296480134,622.224714400653,692.232343256122,368.891514305654,0,0,0,0,0,0,3,4,6,NaN,NaN,NaN,vertical,vertical,horizontal,none,none,none
1a,4,100135,1,64,64,21,M,NA,variable,heterogeneous,5,present,1.33326506614685,0,horizontal,vertical,1,1.04705134305087,red,3,4,986.495193912888,426.090418184063,692.232343256122,368.891514305654,751.343706178981,850.314931779154,1023.02802532055,723.626453162816,986.495193912888,426.090418184063,692.232343256122,368.891514305654,546.900731331463,631.076682568313,0,0,5,6,4,3,0,NaN,vertical,horizontal,horizontal,horizontal,horizontal,none
1a,4,100135,2,1,65,21,M,NA,variable,heterogeneous,6,absent,1.71990704536438,1,horizontal,horizontal,1,0.929406252774325,red,4,NaN,716.980120613425,358.892763222174,NaN,NaN,883.019879386575,841.107236777826,1050.31493177915,648.656293821019,967.295052392579,407.549057043193,716.980120613425,358.892763222174,549.685068220846,551.343706178981,632.704947607421,792.450942956807,5,5,0,4,6,3,vertical,vertical,vertical,horizontal,horizontal,vertical
1a,4,100135,2,2,66,21,M,NA,variable,heterogeneous,4,present,0.879394054412842,1,vertical,vertical,1,1.04705134305087,green,4,2,547.481642470899,635.489140744817,1052.5183575291,564.510859255183,835.489140744817,852.518357529101,1052.5183575291,564.510859255183,764.510859255183,347.4816424709,547.481642470899,635.489140744817,0,0,0,0,6,0,3,4,NaN,NaN,vertical,vertical,vertical,vertical,none,none
1a,4,100135,2,3,67,21,M,NA,variable,heterogeneous,6,absent,0.966945171356201,1,vertical,vertical,1,1.09410937916149,red,1,NaN,915.767577433584,827.206663668034,NaN,NaN,915.767577433584,827.206663668034,1054.65053136242,613.345668841951,938.882953928832,386.139005173917,684.232422566416,372.793336331966,545.349468637584,586.654331158049,661.117046071168,813.860994826083,4,6,5,0,3,6,vertical,vertical,horizontal,vertical,horizontal,vertical
1a,4,100135,2,4,68,21,M,NA,variable,heterogeneous,3,present,1.34805512428284,1,horizontal,horizontal,1,1.05881585207852,green,3,1,558.892763222174,683.019879386575,992.450942956807,767.295052392579,992.450942956807,767.295052392579,848.656293821019,349.685068220846,558.892763222174,683.019879386575,0,0,0,0,0,0,3,5,4,NaN,NaN,NaN,horizontal,vertical,horizontal,none,none,none
1a,4,100135,2,5,69,21,M,NA,variable,heterogeneous,6,absent,1.97724485397339,1,horizontal,horizontal,1,0.70588058124889,green,5,NaN,552.574589799621,538.309916622085,NaN,NaN,870.287525733335,845.121732464271,1047.42541020038,661.690083377915,977.137884467044,416.568350913644,729.712474266665,354.878267535729,552.574589799621,538.309916622085,622.862115532956,783.431649086356,6,5,5,3,4,0,vertical,vertical,vertical,vertical,horizontal,vertical
1a,4,100135,2,6,70,21,M,NA,variable,heterogeneous,3,present,1.00353693962097,1,horizontal,horizontal,1,0.729409599304199,red,2,1,883.019879386575,358.892763222174,967.295052392579,792.450942956807,967.295052392579,792.450942956807,883.019879386575,358.892763222174,549.685068220846,648.656293821019,0,0,0,0,0,0,5,4,0,NaN,NaN,NaN,vertical,horizontal,vertical,none,none,none
1a,4,100135,2,7,71,21,M,NA,variable,heterogeneous,5,absent,0.992162942886353,1,vertical,vertical,1,0.823525671525435,red,3,NaN,956.993676208043,399.057257830286,NaN,NaN,791.100628340862,854.844660889869,1039.62161830041,687.215136548046,956.993676208043,399.057257830286,657.405809614959,388.595418998464,554.878267535729,670.287525733335,0,0,3,6,4,0,3,NaN,vertical,vertical,vertical,vertical,horizontal,none
1a,4,100135,2,8,72,21,M,NA,variable,heterogeneous,5,absent,NaN,0,vertical,none,0,0.670587054165927,green,1,NaN,657.405809614959,811.404581001536,NaN,NaN,657.405809614959,811.404581001536,956.993676208043,800.942742169714,1039.62161830041,512.784863451954,791.100628340862,345.155339110131,554.878267535729,529.712474266665,0,0,4,0,3,6,3,NaN,vertical,horizontal,horizontal,horizontal,horizontal,none
1a,4,100135,2,9,73,21,M,NA,variable,heterogeneous,5,present,1.37394785881042,1,horizontal,horizontal,1,0.799996653470126,red,5,3,552.574589799621,661.690083377915,963.910840470068,404.658667004661,782.212099195248,854.378832816255,1036.43188291453,695.524681321058,963.910840470068,404.658667004661,664.870587620533,383.747735480111,552.574589799621,661.690083377915,0,0,3,0,6,3,4,NaN,vertical,vertical,vertical,vertical,horizontal,none
1a,4,100135,2,10,74,21,M,NA,variable,heterogeneous,6,absent,NaN,0,vertical,none,0,1.03528683402322,red,6,NaN,568.891514305654,707.767656743878,NaN,NaN,777.775285599347,854.029648013395,1008.88377129369,746.261991269517,1031.10848569435,492.232343256122,822.224714400653,345.970351986605,591.116228706307,453.738008730483,568.891514305654,707.767656743878,5,6,5,3,0,4,vertical,vertical,vertical,vertical,vertical,vertical
1a,4,100135,2,11,75,21,M,NA,variable,heterogeneous,5,present,NaN,0,horizontal,none,0,0.70588058124889,green,4,3,601.827779828472,439.523300282291,891.383827134052,361.936991243214,865.998856501143,846.311085703712,1054.65053136242,613.345668841951,891.383827134052,361.936991243214,601.827779828472,439.523300282291,586.139005173917,738.882953928832,0,0,5,3,6,4,3,NaN,horizontal,horizontal,vertical,horizontal,horizontal,none
1a,4,100135,2,12,76,21,M,NA,variable,heterogeneous,5,present,0.618734836578369,1,horizontal,horizontal,1,0.894112725691362,green,5,3,629.371695378491,789.501930496736,826.654758133252,346.39691668109,927.5,820.836477965032,1049.42763818712,546.982518841471,826.654758133252,346.39691668109,567.045908301137,496.282156015671,629.371695378491,789.501930496736,0,0,0,5,0,6,4,NaN,horizontal,horizontal,vertical,horizontal,horizontal,none
1a,4,100135,2,13,77,21,M,NA,variable,heterogeneous,5,absent,0.756354093551636,1,horizontal,horizontal,1,1.04705134305087,red,5,NaN,599.057257830286,756.993676208043,NaN,NaN,887.215136548046,839.621618300407,1054.84466088987,591.100628340862,870.287525733335,354.878267535729,588.595418998464,457.40580961496,599.057257830286,756.993676208043,0,0,3,5,5,3,4,NaN,vertical,vertical,vertical,vertical,horizontal,none
1a,4,100135,2,14,78,21,M,NA,variable,heterogeneous,4,absent,1.33012390136719,1,vertical,vertical,1,0.741174108331854,red,1,NaN,938.882953928832,813.860994826083,NaN,NaN,938.882953928832,813.860994826083,1013.86099482608,461.117046071168,661.117046071168,386.139005173917,586.139005173917,738.882953928832,0,0,0,0,4,5,0,0,NaN,NaN,vertical,horizontal,vertical,horizontal,none,none
1a,4,100135,2,15,79,21,M,NA,variable,heterogeneous,5,present,1.74219298362732,1,vertical,vertical,1,0.647058036110618,red,4,1,567.045908301137,496.282156015671,927.5,820.836477965032,927.5,820.836477965032,1049.42763818712,546.982518841471,826.654758133252,346.39691668109,567.045908301137,496.282156015671,629.371695378491,789.501930496736,0,0,0,6,3,4,6,NaN,horizontal,vertical,vertical,vertical,vertical,none
1a,4,100135,2,16,80,21,M,NA,variable,heterogeneous,5,present,1.26707482337952,1,vertical,vertical,1,0.882348216663707,red,2,5,967.295052392579,792.450942956807,551.535633479765,542.637481142314,668.665290897936,818.577661679039,967.295052392579,792.450942956807,1034.72873763037,500.363562235235,777.775285599347,345.970351986605,551.535633479765,542.637481142314,0,0,6,4,0,5,3,NaN,vertical,vertical,horizontal,vertical,horizontal,none
1a,4,100135,2,17,81,21,M,NA,variable,heterogeneous,3,absent,0.897111177444458,1,horizontal,horizontal,1,0.635293527082963,green,3,NaN,672.5,379.163522034968,NaN,NaN,672.5,820.836477965032,1055,600,672.5,379.163522034968,0,0,0,0,0,0,3,0,4,NaN,NaN,NaN,horizontal,horizontal,horizontal,none,none,none
1a,4,100135,2,18,82,21,M,NA,variable,heterogeneous,4,present,1.38384509086609,1,vertical,vertical,1,1.02352232499556,green,4,1,545.03883773512,604.450363641507,804.450363641507,854.96116226488,804.450363641507,854.96116226488,1054.96116226488,595.549636358493,795.549636358493,345.03883773512,545.03883773512,604.450363641507,0,0,0,0,5,6,3,4,NaN,NaN,horizontal,vertical,vertical,vertical,none,none
1a,4,100135,2,19,83,21,M,NA,variable,heterogeneous,3,absent,0.970197200775146,1,horizontal,horizontal,1,0.929406252774325,red,3,NaN,613.504806087112,426.090418184063,NaN,NaN,742.637481142314,848.464366520235,1043.85771277057,525.445215295702,613.504806087112,426.090418184063,0,0,0,0,0,0,3,5,4,NaN,NaN,NaN,vertical,horizontal,horizontal,none,none,none
1a,4,100135,2,20,84,21,M,NA,variable,heterogeneous,5,present,1.20302605628967,0,horizontal,vertical,1,0.647058036110618,red,2,5,1034.72873763037,699.636437764765,551.535633479765,657.362518857686,777.775285599347,854.029648013395,1034.72873763037,699.636437764765,967.295052392579,407.549057043193,668.665290897936,381.422338320961,551.535633479765,657.362518857686,0,0,0,4,0,3,5,NaN,horizontal,horizontal,horizontal,horizontal,horizontal,none
1a,4,100135,2,21,85,21,M,NA,variable,heterogeneous,4,absent,0.874138116836548,1,horizontal,horizontal,1,0.94117076180198,green,2,NaN,1039.62161830041,512.784863451954,NaN,NaN,887.215136548046,839.621618300407,1039.62161830041,512.784863451954,712.784863451954,360.378381699593,560.378381699593,687.215136548046,0,0,0,0,0,4,0,6,NaN,NaN,horizontal,horizontal,horizontal,vertical,none,none
1a,4,100135,2,22,86,21,M,NA,variable,heterogeneous,4,present,1.68116497993469,1,vertical,vertical,1,1.09410937916149,red,4,3,601.827779828472,760.476699717708,639.523300282292,401.827779828472,960.476699717708,798.172220171528,998.172220171528,439.523300282291,639.523300282292,401.827779828472,601.827779828472,760.476699717708,0,0,0,0,3,0,0,4,NaN,NaN,horizontal,horizontal,horizontal,vertical,none,none
1a,4,100135,2,23,87,21,M,NA,variable,heterogeneous,3,present,1.02109384536743,1,vertical,vertical,1,0.870583707636053,red,3,1,716.980120613425,358.892763222174,632.704947607421,792.450942956807,632.704947607421,792.450942956807,1050.31493177915,648.656293821019,716.980120613425,358.892763222174,0,0,0,0,0,0,5,6,4,NaN,NaN,NaN,vertical,vertical,vertical,none,none,none
1a,4,100135,2,24,88,21,M,NA,variable,heterogeneous,4,present,0.794445037841797,1,horizontal,horizontal,1,1.05881585207852,green,2,1,1032.95409169886,496.282156015671,903.717843984329,832.954091698863,903.717843984329,832.954091698863,1032.95409169886,496.282156015671,696.282156015671,367.045908301137,567.045908301137,703.717843984329,0,0,0,0,6,4,3,5,NaN,NaN,horizontal,horizontal,horizontal,vertical,none,none
1a,4,100135,2,25,89,21,M,NA,variable,heterogeneous,4,present,0.760731220245361,1,horizontal,horizontal,1,0.70588058124889,red,2,4,1054.84466088987,608.899371659138,545.155339110131,591.100628340862,791.100628340862,854.844660889869,1054.84466088987,608.899371659138,808.899371659138,345.155339110131,545.155339110131,591.100628340862,0,0,0,0,5,4,6,0,NaN,NaN,vertical,horizontal,horizontal,vertical,none,none
1a,4,100135,2,26,90,21,M,NA,variable,heterogeneous,6,present,1.60257196426392,1,vertical,vertical,1,0.729409599304199,green,1,2,725.445215295702,843.857712770574,973.909581815937,786.495193912888,725.445215295702,843.857712770574,973.909581815937,786.495193912888,1048.46436652023,542.637481142314,874.554784704298,356.142287229426,626.090418184063,413.504806087112,551.535633479765,657.362518857686,4,3,3,6,6,0,vertical,vertical,horizontal,horizontal,vertical,vertical
1a,4,100135,2,27,91,21,M,NA,variable,heterogeneous,4,present,1.25909113883972,1,horizontal,horizontal,1,0.811761162497781,red,2,1,995.341332995339,763.910840470068,636.089159529932,795.341332995339,636.089159529932,795.341332995339,995.341332995339,763.910840470068,963.910840470068,404.658667004661,604.658667004661,436.089159529932,0,0,0,0,0,4,5,6,NaN,NaN,vertical,horizontal,horizontal,horizontal,none,none
1a,4,100135,2,28,92,21,M,NA,variable,heterogeneous,3,present,1.96885681152344,1,vertical,vertical,1,1.01175781596791,green,2,1,865.998856501143,353.688914296288,980.31222920257,780.31222920257,980.31222920257,780.31222920257,865.998856501143,353.688914296288,553.688914296288,665.998856501143,0,0,0,0,0,0,5,4,6,NaN,NaN,NaN,vertical,vertical,horizontal,none,none,none
1a,4,100135,2,29,93,21,M,NA,variable,heterogeneous,6,present,1.48934698104858,1,vertical,vertical,1,0.647058036110618,green,1,4,813.345668841951,854.650531362416,786.654331158049,345.349468637584,813.345668841951,854.650531362416,1027.20666366803,715.767577433584,1013.86099482608,461.117046071168,786.654331158049,345.349468637584,572.793336331966,484.232422566416,586.139005173917,738.882953928832,4,5,3,6,6,0,vertical,vertical,vertical,vertical,vertical,horizontal
1a,4,100135,2,30,94,21,M,NA,variable,heterogeneous,3,absent,1.48465204238892,1,horizontal,horizontal,1,1.07058036110618,green,1,NaN,629.371695378491,789.501930496736,NaN,NaN,629.371695378491,789.501930496736,1049.42763818712,653.017481158529,721.200666434388,357.480588344736,0,0,0,0,0,0,4,6,3,NaN,NaN,NaN,horizontal,horizontal,horizontal,none,none,none
1a,4,100135,2,31,95,21,M,NA,variable,heterogeneous,4,present,0.823131084442139,1,vertical,vertical,1,1.02352232499556,red,4,3,545.155339110131,591.100628340862,808.899371659138,345.155339110131,791.100628340862,854.844660889869,1054.84466088987,608.899371659138,808.899371659138,345.155339110131,545.155339110131,591.100628340862,0,0,0,0,0,5,5,4,NaN,NaN,vertical,horizontal,vertical,vertical,none,none
1a,4,100135,2,32,96,21,M,NA,variable,heterogeneous,4,absent,0.777585983276367,1,horizontal,horizontal,1,0.682351563193581,red,4,NaN,570.807518193712,711.784642431215,NaN,NaN,911.784642431215,829.192481806288,1029.19248180629,488.215357568785,688.215357568785,370.807518193712,570.807518193712,711.784642431215,0,0,0,0,0,6,5,4,NaN,NaN,horizontal,horizontal,horizontal,horizontal,none,none
1a,4,100135,2,33,97,21,M,NA,variable,heterogeneous,4,absent,0.798711061477661,1,vertical,vertical,1,0.870583707636053,red,2,NaN,1039.62161830041,512.784863451954,NaN,NaN,887.215136548046,839.621618300407,1039.62161830041,512.784863451954,712.784863451954,360.378381699593,560.378381699593,687.215136548046,0,0,0,0,0,4,0,3,NaN,NaN,horizontal,vertical,horizontal,horizontal,none,none
1a,4,100135,2,34,98,21,M,NA,variable,heterogeneous,6,present,NaN,0,horizontal,none,0,1.09410937916149,red,3,1,1039.62161830041,512.784863451954,755.719714694933,851.125977018113,755.719714694933,851.125977018113,995.341332995339,763.910840470068,1039.62161830041,512.784863451954,844.280285305067,348.874022981887,604.658667004661,436.089159529932,560.378381699593,687.215136548046,5,3,4,3,5,0,horizontal,horizontal,horizontal,horizontal,horizontal,horizontal
1a,4,100135,2,35,99,21,M,NA,variable,heterogeneous,3,absent,1.10242199897766,1,vertical,vertical,1,1.07058036110618,red,2,NaN,1053.60308331891,626.654758133252,NaN,NaN,650.114760665419,806.299333565612,1053.60308331891,626.654758133252,696.282156015671,367.045908301137,0,0,0,0,0,0,6,4,3,NaN,NaN,NaN,horizontal,vertical,vertical,none,none,none
1a,4,100135,2,36,100,21,M,NA,variable,heterogeneous,5,present,1.30852603912354,1,vertical,vertical,1,0.799996653470126,green,5,3,548.874022981887,555.719714694933,1029.19248180629,488.215357568785,680.284751489598,825.151636179026,977.137884467044,783.431649086356,1029.19248180629,488.215357568785,764.510859255183,347.4816424709,548.874022981887,555.719714694933,0,0,6,3,0,6,4,NaN,horizontal,horizontal,horizontal,vertical,vertical,none
1a,4,100135,2,37,101,21,M,NA,variable,heterogeneous,5,absent,0.652080059051514,1,vertical,vertical,1,0.858819198608398,red,4,NaN,568.891514305654,492.232343256122,NaN,NaN,923.626453162816,823.028025320546,1050.31493177915,551.343706178981,831.076682568313,346.900731331463,568.891514305654,492.232343256122,626.090418184063,786.495193912888,0,0,3,6,0,4,5,NaN,horizontal,horizontal,vertical,vertical,horizontal,none
1a,4,100135,2,38,102,21,M,NA,variable,heterogeneous,3,absent,0.70417308807373,1,horizontal,horizontal,1,0.729409599304199,red,1,NaN,970.628304621509,789.501930496736,NaN,NaN,970.628304621509,789.501930496736,878.799333565612,357.480588344736,550.57236181288,653.017481158529,0,0,0,0,0,0,4,5,5,NaN,NaN,NaN,horizontal,horizontal,horizontal,none,none,none
1a,4,100135,2,39,103,21,M,NA,variable,heterogeneous,3,present,1.91715097427368,1,vertical,vertical,1,0.752938617359508,red,3,1,632.704947607421,407.549057043193,716.980120613425,841.107236777826,716.980120613425,841.107236777826,1050.31493177915,551.343706178981,632.704947607421,407.549057043193,0,0,0,0,0,0,5,6,4,NaN,NaN,NaN,vertical,horizontal,vertical,none,none,none
1a,4,100135,2,40,104,21,M,NA,variable,heterogeneous,4,absent,0.635406970977783,1,horizontal,horizontal,1,0.776467635414817,red,4,NaN,561.936991243214,691.383827134052,NaN,NaN,891.383827134052,838.063008756786,1038.06300875679,508.616172865948,708.616172865948,361.936991243214,561.936991243214,691.383827134052,0,0,0,0,0,6,0,4,NaN,NaN,vertical,horizontal,horizontal,horizontal,none,none
1a,4,100135,2,41,105,21,M,NA,variable,heterogeneous,6,present,1.76139688491821,0,horizontal,vertical,1,1.05881585207852,green,1,5,688.215357568785,829.192481806288,657.405809614959,388.595418998464,688.215357568785,829.192481806288,942.594190385041,811.404581001536,1054.37883281626,582.212099195248,911.784642431215,370.807518193712,657.405809614959,388.595418998464,545.621167183745,617.787900804752,4,6,0,6,3,0,horizontal,horizontal,horizontal,horizontal,horizontal,vertical
1a,4,100135,2,42,106,21,M,NA,variable,heterogeneous,4,absent,1.62160015106201,1,vertical,vertical,1,0.823525671525435,green,3,NaN,692.232343256122,368.891514305654,NaN,NaN,907.767656743878,831.108485694346,1031.10848569435,492.232343256122,692.232343256122,368.891514305654,568.891514305654,707.767656743878,0,0,0,0,5,0,4,0,NaN,NaN,vertical,horizontal,vertical,horizontal,none,none
1a,4,100135,2,43,107,21,M,NA,variable,heterogeneous,6,absent,1.43034410476685,1,horizontal,horizontal,1,0.823525671525435,green,5,NaN,586.139005173917,461.117046071168,NaN,NaN,786.654331158049,854.650531362416,1013.86099482608,738.882953928832,1027.20666366803,484.232422566416,813.345668841951,345.349468637584,586.139005173917,461.117046071168,572.793336331966,715.767577433584,6,5,3,0,4,3,vertical,horizontal,vertical,vertical,horizontal,horizontal
1a,4,100135,2,44,108,21,M,NA,variable,heterogeneous,3,absent,1.81336212158203,1,vertical,vertical,1,1.09410937916149,green,2,NaN,1048.46436652023,657.362518857686,NaN,NaN,626.090418184063,786.495193912888,1048.46436652023,657.362518857686,725.445215295702,356.142287229426,0,0,0,0,0,0,5,4,3,NaN,NaN,NaN,horizontal,vertical,vertical,none,none,none
1a,4,100135,2,45,109,21,M,NA,variable,heterogeneous,6,present,1.00022196769714,1,horizontal,horizontal,1,0.94117076180198,red,3,4,980.31222920257,419.68777079743,734.001143498857,353.688914296288,865.998856501143,846.311085703712,1046.31108570371,665.998856501143,980.31222920257,419.68777079743,734.001143498857,353.688914296288,553.688914296288,534.001143498857,619.68777079743,780.31222920257,6,5,4,0,5,0,horizontal,vertical,horizontal,horizontal,horizontal,horizontal
1a,4,100135,2,46,110,21,M,NA,variable,heterogeneous,3,present,1.92611885070801,1,horizontal,horizontal,1,0.670587054165927,green,3,1,734.001143498857,353.688914296288,619.68777079743,780.31222920257,619.68777079743,780.31222920257,1046.31108570371,665.998856501143,734.001143498857,353.688914296288,0,0,0,0,0,0,0,0,4,NaN,NaN,NaN,horizontal,horizontal,horizontal,none,none,none
1a,4,100135,2,47,111,21,M,NA,variable,heterogeneous,5,absent,1.70434498786926,0,horizontal,vertical,1,0.788232144442472,red,2,NaN,992.450942956807,767.295052392579,NaN,NaN,700.363562235235,834.728737630372,992.450942956807,767.295052392579,1018.57766167904,468.665290897936,742.637481142314,351.535633479765,545.970351986605,577.775285599347,0,0,0,4,0,6,6,NaN,vertical,horizontal,vertical,horizontal,horizontal,none
1a,4,100135,2,48,112,21,M,NA,variable,heterogeneous,6,absent,NaN,0,horizontal,none,0,0.999993306940252,red,5,NaN,546.39691668109,573.345241866748,NaN,NaN,903.717843984329,832.954091698863,1053.60308331891,626.654758133252,949.885239334581,393.700666434388,696.282156015671,367.045908301137,546.39691668109,573.345241866748,650.114760665419,806.299333565612,3,0,5,6,4,5,horizontal,horizontal,vertical,vertical,horizontal,horizontal
1a,4,100135,2,49,113,21,M,NA,variable,heterogeneous,5,absent,NaN,0,horizontal,none,0,0.964699779857289,green,3,NaN,804.450363641507,345.03883773512,NaN,NaN,946.261991269517,808.883771293693,1043.85771277057,525.445215295702,804.450363641507,345.03883773512,558.892763222174,516.980120613425,646.537169096228,803.65205506206,0,0,5,3,4,5,0,NaN,horizontal,horizontal,horizontal,horizontal,horizontal,none
1a,4,100135,2,50,114,21,M,NA,variable,heterogeneous,4,present,0.987011909484863,1,horizontal,horizontal,1,0.611764509027654,green,4,3,552.574589799621,538.309916622085,861.690083377915,352.574589799621,738.309916622085,847.425410200379,1047.42541020038,661.690083377915,861.690083377915,352.574589799621,552.574589799621,538.309916622085,0,0,0,0,0,3,5,4,NaN,NaN,horizontal,vertical,horizontal,horizontal,none,none
1a,4,100135,2,51,115,21,M,NA,variable,heterogeneous,6,absent,1.39571905136108,1,vertical,vertical,1,0.847054689580744,green,4,NaN,883.019879386575,358.892763222174,NaN,NaN,716.980120613425,841.107236777826,967.295052392579,792.450942956807,1050.31493177915,551.343706178981,883.019879386575,358.892763222174,632.704947607421,407.549057043193,549.685068220846,648.656293821019,5,3,0,4,5,0,horizontal,horizontal,vertical,vertical,horizontal,vertical
1a,4,100135,2,52,116,21,M,NA,variable,heterogeneous,3,absent,0.926359891891479,1,vertical,vertical,1,0.717645090276545,red,3,NaN,545.349468637584,613.345668841951,NaN,NaN,938.882953928832,813.860994826083,915.767577433584,372.793336331966,545.349468637584,613.345668841951,0,0,0,0,0,0,6,6,4,NaN,NaN,NaN,vertical,vertical,vertical,none,none,none
1a,4,100135,2,53,117,21,M,NA,variable,heterogeneous,6,absent,0.957534790039062,1,vertical,vertical,1,1.02352232499556,green,4,NaN,923.626453162816,376.971974679454,NaN,NaN,676.373546837184,823.028025320546,931.334709102064,818.577661679039,1054.96116226488,595.549636358493,923.626453162816,376.971974679454,668.665290897936,381.422338320961,545.03883773512,604.450363641507,5,6,3,4,5,0,horizontal,vertical,vertical,vertical,horizontal,horizontal
1a,4,100135,2,54,118,21,M,NA,variable,heterogeneous,6,present,1.24414801597595,1,vertical,vertical,1,0.764703126387163,red,6,2,563.568117085469,695.524681321058,1000.94274216971,756.993676208043,764.510859255183,852.518357529101,1000.94274216971,756.993676208043,1036.43188291453,504.475318678942,835.489140744817,347.4816424709,599.057257830286,443.006323791957,563.568117085469,695.524681321058,3,3,0,0,5,4,vertical,vertical,vertical,vertical,horizontal,vertical
1a,4,100135,2,55,119,21,M,NA,variable,heterogeneous,5,absent,1.49831080436707,1,horizontal,horizontal,1,0.658822545138272,green,3,NaN,946.261991269517,391.116228706307,NaN,NaN,804.450363641507,854.96116226488,1043.85771277057,674.554784704298,946.261991269517,391.116228706307,646.537169096228,396.34794493794,558.892763222174,683.019879386575,0,0,5,6,4,3,0,NaN,vertical,horizontal,horizontal,vertical,horizontal,none
1a,4,100135,2,56,120,21,M,NA,variable,heterogeneous,4,absent,1.11107993125916,1,horizontal,horizontal,1,0.929406252774325,green,4,NaN,601.827779828472,760.476699717708,NaN,NaN,960.476699717708,798.172220171528,998.172220171528,439.523300282291,639.523300282292,401.827779828472,601.827779828472,760.476699717708,0,0,0,0,0,3,5,4,NaN,NaN,horizontal,horizontal,horizontal,horizontal,none,none
1a,4,100135,2,57,121,21,M,NA,variable,heterogeneous,6,present,1.87823295593262,0,horizontal,vertical,1,0.835290180553089,green,2,3,931.334709102064,818.577661679039,1054.96116226488,595.549636358493,676.373546837184,823.028025320546,931.334709102064,818.577661679039,1054.96116226488,595.549636358493,923.626453162816,376.971974679454,668.665290897936,381.422338320961,545.03883773512,604.450363641507,5,4,5,3,3,0,vertical,horizontal,vertical,horizontal,vertical,horizontal
1a,4,100135,2,58,122,21,M,NA,variable,heterogeneous,6,present,1.48772406578064,1,vertical,vertical,1,0.988228797912598,red,2,4,1045.12173246427,670.287525733335,738.309916622085,352.574589799621,861.690083377915,847.425410200379,1045.12173246427,670.287525733335,983.431649086356,422.862115532956,738.309916622085,352.574589799621,554.878267535729,529.712474266665,616.568350913644,777.137884467044,6,4,3,0,0,3,vertical,vertical,horizontal,horizontal,vertical,vertical
1a,4,100135,2,59,123,21,M,NA,variable,heterogeneous,5,present,1.61245799064636,1,vertical,vertical,1,0.94117076180198,green,3,4,813.345668841951,345.349468637584,561.936991243214,508.616172865948,938.882953928832,813.860994826083,1046.31108570371,534.001143498857,813.345668841951,345.349468637584,561.936991243214,508.616172865948,639.523300282292,798.172220171528,0,0,6,5,4,3,3,NaN,horizontal,horizontal,vertical,vertical,vertical,none
1a,4,100135,2,60,124,21,M,NA,variable,heterogeneous,3,present,1.50708413124084,1,vertical,vertical,1,0.70588058124889,green,3,2,552.574589799621,661.690083377915,870.287525733335,354.878267535729,977.137884467044,783.431649086356,870.287525733335,354.878267535729,552.574589799621,661.690083377915,0,0,0,0,0,0,5,3,4,NaN,NaN,NaN,horizontal,horizontal,vertical,none,none,none
1a,4,100135,2,61,125,21,M,NA,variable,heterogeneous,3,absent,0.688374996185303,1,vertical,vertical,1,0.741174108331854,green,2,NaN,1031.10848569435,492.232343256122,NaN,NaN,777.775285599347,854.029648013395,1031.10848569435,492.232343256122,591.116228706307,453.738008730483,0,0,0,0,0,0,3,4,6,NaN,NaN,NaN,vertical,vertical,vertical,none,none,none
1a,4,100135,2,62,126,21,M,NA,variable,heterogeneous,3,present,0.751178026199341,1,horizontal,horizontal,1,1.03528683402322,red,2,3,938.882953928832,386.139005173917,545.349468637584,586.654331158049,915.767577433584,827.206663668034,938.882953928832,386.139005173917,545.349468637584,586.654331158049,0,0,0,0,0,0,3,4,0,NaN,NaN,NaN,horizontal,horizontal,horizontal,none,none,none
1a,4,100135,2,63,127,21,M,NA,variable,heterogeneous,5,absent,1.44082498550415,1,vertical,vertical,1,0.94117076180198,green,2,NaN,963.910840470068,795.341332995339,NaN,NaN,664.870587620533,816.252264519889,963.910840470068,795.341332995339,1036.43188291453,504.475318678942,782.212099195248,345.621167183745,552.574589799621,538.309916622085,0,0,5,4,0,3,6,NaN,horizontal,vertical,vertical,horizontal,horizontal,none
1a,4,100135,2,64,128,21,M,NA,variable,heterogeneous,4,absent,0.728605985641479,1,vertical,vertical,1,0.929406252774325,green,3,NaN,899.636437764765,365.271262369628,NaN,NaN,700.363562235235,834.728737630372,1034.72873763037,699.636437764765,899.636437764765,365.271262369628,565.271262369628,500.363562235235,0,0,0,0,5,6,4,5,NaN,NaN,vertical,horizontal,vertical,horizontal,none,none
1a,4,100135,3,1,129,21,M,NA,variable,heterogeneous,4,absent,1.68622398376465,1,horizontal,horizontal,1,1.02352232499556,green,1,NaN,878.799333565612,842.519411655264,NaN,NaN,878.799333565612,842.519411655264,1042.51941165526,521.200666434388,721.200666434388,357.480588344736,557.480588344736,678.799333565612,0,0,0,0,4,0,6,3,NaN,NaN,horizontal,vertical,vertical,horizontal,none,none
1a,4,100135,3,2,130,21,M,NA,variable,heterogeneous,6,absent,0.71799898147583,1,horizontal,horizontal,1,0.905877234719016,green,3,NaN,931.334709102064,381.422338320961,NaN,NaN,923.626453162816,823.028025320546,1054.96116226488,604.450363641507,931.334709102064,381.422338320961,676.373546837184,376.971974679454,545.03883773512,595.549636358493,668.665290897936,818.577661679039,6,5,4,6,3,5,horizontal,horizontal,horizontal,horizontal,vertical,horizontal
1a,4,100135,3,3,131,21,M,NA,variable,heterogeneous,4,absent,0.628098964691162,1,vertical,vertical,1,0.976464288884943,red,2,NaN,1025.15163617903,480.284751489598,NaN,NaN,919.715248510402,825.151636179026,1025.15163617903,480.284751489598,680.284751489598,374.848363820974,574.848363820974,719.715248510402,0,0,0,0,6,4,0,5,NaN,NaN,vertical,vertical,vertical,vertical,none,none
1a,4,100135,3,4,132,21,M,NA,variable,heterogeneous,4,present,1.62114095687866,1,vertical,vertical,1,0.611764509027654,red,1,3,870.287525733335,845.121732464271,729.712474266665,354.878267535729,870.287525733335,845.121732464271,1045.12173246427,529.712474266665,729.712474266665,354.878267535729,554.878267535729,670.287525733335,0,0,0,0,4,5,6,0,NaN,NaN,vertical,horizontal,horizontal,horizontal,none,none
1a,4,100135,3,5,133,21,M,NA,variable,heterogeneous,6,present,1.13910794258118,1,vertical,vertical,1,0.858819198608398,green,3,2,989.501930496736,429.371695378491,1042.51941165526,678.799333565612,853.017481158529,849.42763818712,1042.51941165526,678.799333565612,989.501930496736,429.371695378491,746.982518841471,350.57236181288,557.480588344736,521.200666434388,610.498069503264,770.628304621509,0,3,4,3,5,0,vertical,horizontal,vertical,horizontal,vertical,vertical
1a,4,100135,3,6,134,21,M,NA,variable,heterogeneous,3,absent,0.902713060379028,1,horizontal,horizontal,1,0.647058036110618,red,1,NaN,764.510859255183,852.518357529101,NaN,NaN,764.510859255183,852.518357529101,1036.43188291453,504.475318678942,599.057257830286,443.006323791957,0,0,0,0,0,0,4,6,0,NaN,NaN,NaN,horizontal,horizontal,horizontal,none,none,none
1a,4,100135,3,7,135,21,M,NA,variable,heterogeneous,3,absent,0.815224170684814,0,horizontal,vertical,1,0.717645090276545,green,1,NaN,935.129412379467,816.252264519889,NaN,NaN,935.129412379467,816.252264519889,919.715248510402,374.848363820974,545.155339110131,608.899371659138,0,0,0,0,0,0,4,0,6,NaN,NaN,NaN,horizontal,vertical,horizontal,none,none,none
1a,4,100135,3,8,136,21,M,NA,variable,heterogeneous,5,absent,1.84946608543396,1,horizontal,horizontal,1,0.894112725691362,red,4,NaN,716.980120613425,358.892763222174,NaN,NaN,725.445215295702,843.857712770574,1008.88377129369,746.261991269517,1003.65205506206,446.537169096228,716.980120613425,358.892763222174,545.03883773512,604.450363641507,0,0,6,5,3,4,3,NaN,horizontal,horizontal,horizontal,horizontal,horizontal,none
1a,4,100135,3,9,137,21,M,NA,variable,heterogeneous,5,present,0.858100175857544,1,vertical,vertical,1,0.764703126387163,red,1,3,839.890788585259,851.86052685176,915.767577433584,372.793336331966,839.890788585259,851.86052685176,1051.86052685176,639.890788585259,915.767577433584,372.793336331966,619.68777079743,419.68777079743,572.793336331966,715.767577433584,0,0,4,0,5,3,0,NaN,vertical,horizontal,horizontal,vertical,horizontal,none
1a,4,100135,3,10,138,21,M,NA,variable,heterogeneous,5,absent,0.657188177108765,1,vertical,vertical,1,0.882348216663707,green,3,NaN,989.501930496736,429.371695378491,NaN,NaN,746.982518841471,849.42763818712,1020.83647796503,727.5,989.501930496736,429.371695378491,696.282156015671,367.045908301137,546.39691668109,626.654758133252,0,0,0,5,4,0,6,NaN,horizontal,horizontal,vertical,vertical,horizontal,none
1a,4,100135,3,11,139,21,M,NA,variable,heterogeneous,3,absent,1.03754615783691,0,vertical,horizontal,1,0.752938617359508,red,3,NaN,551.535633479765,657.362518857686,NaN,NaN,973.909581815937,786.495193912888,874.554784704298,356.142287229426,551.535633479765,657.362518857686,0,0,0,0,0,0,0,6,4,NaN,NaN,NaN,horizontal,vertical,vertical,none,none,none
1a,4,100135,3,12,140,21,M,NA,variable,heterogeneous,3,present,1.1293830871582,1,horizontal,horizontal,1,0.94117076180198,red,2,1,956.993676208043,399.057257830286,895.524681321058,836.431882914531,895.524681321058,836.431882914531,956.993676208043,399.057257830286,547.481642470899,564.510859255183,0,0,0,0,0,0,3,4,6,NaN,NaN,NaN,horizontal,horizontal,vertical,none,none,none
1a,4,100135,3,13,141,21,M,NA,variable,heterogeneous,5,absent,0.711480140686035,1,horizontal,horizontal,1,0.764703126387163,green,3,NaN,1039.62161830041,512.784863451954,NaN,NaN,657.405809614959,811.404581001536,956.993676208043,800.942742169714,1039.62161830041,512.784863451954,791.100628340862,345.155339110131,554.878267535729,529.712474266665,0,0,5,0,4,6,6,NaN,horizontal,horizontal,horizontal,horizontal,vertical,none
1a,4,100135,3,14,142,21,M,NA,variable,heterogeneous,3,absent,0.81989312171936,1,horizontal,horizontal,1,0.694116072221236,green,1,NaN,742.637481142314,848.464366520235,NaN,NaN,742.637481142314,848.464366520235,1043.85771277057,525.445215295702,613.504806087112,426.090418184063,0,0,0,0,0,0,4,6,5,NaN,NaN,NaN,horizontal,horizontal,vertical,none,none,none
1a,4,100135,3,15,143,21,M,NA,variable,heterogeneous,6,absent,NaN,0,horizontal,none,0,0.952935270829634,red,3,NaN,983.431649086356,422.862115532956,NaN,NaN,861.690083377915,847.425410200379,1045.12173246427,670.287525733335,983.431649086356,422.862115532956,738.309916622085,352.574589799621,554.878267535729,529.712474266665,616.568350913644,777.137884467044,3,6,4,6,0,5,horizontal,vertical,horizontal,horizontal,vertical,vertical
1a,4,100135,3,16,144,21,M,NA,variable,heterogeneous,3,absent,0.696576118469238,1,horizontal,horizontal,1,0.847054689580744,red,3,NaN,554.878267535729,529.712474266665,NaN,NaN,861.690083377915,847.425410200379,983.431649086356,422.862115532956,554.878267535729,529.712474266665,0,0,0,0,0,0,6,3,4,NaN,NaN,NaN,vertical,vertical,horizontal,none,none,none
1a,4,100135,3,17,145,21,M,NA,variable,heterogeneous,6,present,1.7191789150238,0,vertical,horizontal,1,0.623529018055309,red,2,5,980.31222920257,780.31222920257,619.68777079743,419.68777079743,734.001143498857,846.311085703712,980.31222920257,780.31222920257,1046.31108570371,534.001143498857,865.998856501143,353.688914296288,619.68777079743,419.68777079743,553.688914296288,665.998856501143,3,4,6,0,6,0,vertical,vertical,vertical,horizontal,horizontal,horizontal
1a,4,100135,3,18,146,21,M,NA,variable,heterogeneous,4,absent,1.15828609466553,1,horizontal,horizontal,1,1.02352232499556,green,2,NaN,1039.62161830041,687.215136548046,NaN,NaN,712.784863451954,839.621618300407,1039.62161830041,687.215136548046,887.215136548046,360.378381699593,560.378381699593,512.784863451954,0,0,0,0,3,4,3,6,NaN,NaN,horizontal,horizontal,horizontal,horizontal,none,none
1a,4,100135,3,19,147,21,M,NA,variable,heterogeneous,4,present,1.18487000465393,1,horizontal,horizontal,1,0.952935270829634,red,3,1,878.799333565612,357.480588344736,721.200666434388,842.519411655264,721.200666434388,842.519411655264,1042.51941165526,678.799333565612,878.799333565612,357.480588344736,557.480588344736,521.200666434388,0,0,0,0,5,6,4,0,NaN,NaN,horizontal,horizontal,horizontal,horizontal,none,none
1a,4,100135,3,20,148,21,M,NA,variable,heterogeneous,6,present,1.37497305870056,1,vertical,vertical,1,0.717645090276545,red,2,5,992.450942956807,767.295052392579,607.549057043193,432.704947607421,751.343706178981,850.314931779154,992.450942956807,767.295052392579,1041.10723677783,516.980120613425,848.656293821019,349.685068220846,607.549057043193,432.704947607421,558.892763222174,683.019879386575,0,4,3,6,5,5,horizontal,vertical,vertical,vertical,horizontal,vertical
1a,4,100135,3,21,149,21,M,NA,variable,heterogeneous,4,present,1.66542482376099,1,vertical,vertical,1,0.94117076180198,red,3,2,874.554784704298,356.142287229426,1043.85771277057,674.554784704298,725.445215295702,843.857712770574,1043.85771277057,674.554784704298,874.554784704298,356.142287229426,556.142287229426,525.445215295702,0,0,0,0,6,5,4,3,NaN,NaN,vertical,vertical,vertical,horizontal,none,none
1a,4,100135,3,22,150,21,M,NA,variable,heterogeneous,4,present,1.12027406692505,1,vertical,vertical,1,1.08234487013383,green,3,4,636.089159529932,404.658667004661,604.658667004661,763.910840470068,963.910840470068,795.341332995339,995.341332995339,436.089159529932,636.089159529932,404.658667004661,604.658667004661,763.910840470068,0,0,0,0,6,0,4,3,NaN,NaN,horizontal,horizontal,vertical,horizontal,none,none
1a,4,100135,3,23,151,21,M,NA,variable,heterogeneous,4,present,1.74844193458557,1,horizontal,horizontal,1,0.658822545138272,green,3,2,684.232422566416,372.793336331966,1027.20666366803,484.232422566416,915.767577433584,827.206663668034,1027.20666366803,484.232422566416,684.232422566416,372.793336331966,572.793336331966,715.767577433584,0,0,0,0,5,6,4,5,NaN,NaN,vertical,vertical,horizontal,vertical,none,none
1a,4,100135,3,24,152,21,M,NA,variable,heterogeneous,6,absent,1.37515687942505,1,horizontal,horizontal,1,0.988228797912598,red,4,NaN,822.224714400653,345.970351986605,NaN,NaN,777.775285599347,854.029648013395,1008.88377129369,746.261991269517,1031.10848569435,492.232343256122,822.224714400653,345.970351986605,591.116228706307,453.738008730483,568.891514305654,707.767656743878,0,3,6,4,3,5,horizontal,vertical,vertical,horizontal,horizontal,horizontal
1a,4,100135,3,25,153,21,M,NA,variable,heterogeneous,6,absent,1.75069499015808,1,vertical,vertical,1,0.988228797912598,green,1,NaN,721.200666434388,842.519411655264,NaN,NaN,721.200666434388,842.519411655264,970.628304621509,789.501930496736,1049.42763818712,546.982518841471,878.799333565612,357.480588344736,629.371695378491,410.498069503264,550.57236181288,653.017481158529,4,0,6,5,3,6,vertical,horizontal,vertical,vertical,vertical,vertical
1a,4,100135,3,26,154,21,M,NA,variable,heterogeneous,6,present,1.70274996757507,0,horizontal,vertical,1,0.647058036110618,red,2,5,946.261991269517,808.883771293693,653.738008730483,391.116228706307,692.232343256122,831.108485694346,946.261991269517,808.883771293693,1054.0296480134,577.775285599347,907.767656743878,368.891514305654,653.738008730483,391.116228706307,545.970351986605,622.224714400653,0,4,6,6,5,3,horizontal,horizontal,horizontal,vertical,vertical,horizontal
1a,4,100135,3,27,155,21,M,NA,variable,heterogeneous,3,absent,1.33959007263184,0,vertical,horizontal,1,0.929406252774325,red,3,NaN,561.936991243214,691.383827134052,NaN,NaN,998.172220171528,760.476699717708,839.890788585259,348.13947314824,561.936991243214,691.383827134052,0,0,0,0,0,0,5,5,4,NaN,NaN,NaN,vertical,horizontal,vertical,none,none,none
1a,4,100135,3,28,156,21,M,NA,variable,heterogeneous,5,present,1.50104188919067,1,horizontal,horizontal,1,0.929406252774325,red,3,1,1027.20666366803,484.232422566416,684.232422566416,827.206663668034,684.232422566416,827.206663668034,980.31222920257,780.31222920257,1027.20666366803,484.232422566416,760.109211414741,348.13947314824,548.13947314824,560.109211414741,0,0,0,6,4,3,3,NaN,horizontal,horizontal,horizontal,vertical,horizontal,none
1a,4,100135,3,29,157,21,M,NA,variable,heterogeneous,3,present,1.73165702819824,0,vertical,horizontal,1,0.823525671525435,red,3,1,545,600,927.5,820.836477965032,927.5,820.836477965032,927.5,379.163522034968,545,600,0,0,0,0,0,0,3,5,4,NaN,NaN,NaN,horizontal,vertical,vertical,none,none,none
1a,4,100135,3,30,158,21,M,NA,variable,heterogeneous,3,present,1.69675183296204,1,vertical,vertical,1,0.917641743746671,green,2,1,895.524681321058,363.568117085469,956.993676208043,800.942742169714,956.993676208043,800.942742169714,895.524681321058,363.568117085469,547.481642470899,635.489140744817,0,0,0,0,0,0,3,4,5,NaN,NaN,NaN,vertical,vertical,vertical,none,none,none
1a,4,100135,3,31,159,21,M,NA,variable,heterogeneous,3,present,0.816981077194214,1,vertical,vertical,1,0.694116072221236,green,3,2,548.874022981887,644.280285305067,887.215136548046,360.378381699593,963.910840470068,795.341332995339,887.215136548046,360.378381699593,548.874022981887,644.280285305067,0,0,0,0,0,0,5,5,4,NaN,NaN,NaN,vertical,horizontal,vertical,none,none,none
1a,4,100135,3,32,160,21,M,NA,variable,heterogeneous,6,present,1.13441610336304,1,horizontal,horizontal,1,0.635293527082963,red,2,3,1041.10723677783,683.019879386575,992.450942956807,432.704947607421,848.656293821019,850.314931779154,1041.10723677783,683.019879386575,992.450942956807,432.704947607421,751.343706178981,349.685068220846,558.892763222174,516.980120613425,607.549057043193,767.295052392579,6,4,0,5,6,3,horizontal,horizontal,vertical,vertical,horizontal,vertical
1a,4,100135,3,33,161,21,M,NA,variable,heterogeneous,4,present,0.950234174728394,1,horizontal,horizontal,1,1.05881585207852,red,1,4,899.636437764765,834.728737630372,565.271262369628,699.636437764765,899.636437764765,834.728737630372,1034.72873763037,500.363562235235,700.363562235235,365.271262369628,565.271262369628,699.636437764765,0,0,0,0,4,6,0,0,NaN,NaN,horizontal,horizontal,vertical,vertical,none,none
1a,4,100135,3,34,162,21,M,NA,variable,heterogeneous,6,absent,1.58979082107544,1,horizontal,horizontal,1,0.823525671525435,green,4,NaN,883.019879386575,358.892763222174,NaN,NaN,716.980120613425,841.107236777826,967.295052392579,792.450942956807,1050.31493177915,551.343706178981,883.019879386575,358.892763222174,632.704947607421,407.549057043193,549.685068220846,648.656293821019,5,5,3,4,0,6,horizontal,vertical,vertical,horizontal,horizontal,horizontal
1a,4,100135,3,35,163,21,M,NA,variable,heterogeneous,3,present,0.811009883880615,1,horizontal,horizontal,1,0.858819198608398,green,1,3,593.700666434388,749.885239334581,773.345241866748,346.39691668109,593.700666434388,749.885239334581,1032.95409169886,703.717843984329,773.345241866748,346.39691668109,0,0,0,0,0,0,4,6,5,NaN,NaN,NaN,horizontal,horizontal,horizontal,none,none,none
1a,4,100135,3,36,164,21,M,NA,variable,heterogeneous,4,absent,1.12074995040894,1,vertical,vertical,1,1.05881585207852,red,1,NaN,729.712474266665,845.121732464271,NaN,NaN,729.712474266665,845.121732464271,1045.12173246427,670.287525733335,870.287525733335,354.878267535729,554.878267535729,529.712474266665,0,0,0,0,4,3,5,6,NaN,NaN,vertical,vertical,horizontal,horizontal,none,none
1a,4,100135,3,37,165,21,M,NA,variable,heterogeneous,4,absent,0.878417015075684,1,horizontal,horizontal,1,0.952935270829634,red,3,NaN,895.524681321058,363.568117085469,NaN,NaN,704.475318678942,836.431882914531,1036.43188291453,695.524681321058,895.524681321058,363.568117085469,563.568117085469,504.475318678942,0,0,0,0,0,3,4,0,NaN,NaN,vertical,horizontal,horizontal,horizontal,none,none
1a,4,100135,3,38,166,21,M,NA,variable,heterogeneous,4,absent,1.06619715690613,1,horizontal,horizontal,1,0.70588058124889,red,2,NaN,1043.85771277057,674.554784704298,NaN,NaN,725.445215295702,843.857712770574,1043.85771277057,674.554784704298,874.554784704298,356.142287229426,556.142287229426,525.445215295702,0,0,0,0,3,4,0,6,NaN,NaN,horizontal,horizontal,vertical,horizontal,none,none
1a,4,100135,3,39,167,21,M,NA,variable,heterogeneous,4,present,1.10676002502441,1,horizontal,horizontal,1,0.952935270829634,green,3,2,857.362518857686,351.535633479765,1048.46436652023,657.362518857686,742.637481142314,848.464366520235,1048.46436652023,657.362518857686,857.362518857686,351.535633479765,551.535633479765,542.637481142314,0,0,0,0,0,6,4,5,NaN,NaN,vertical,vertical,horizontal,horizontal,none,none
1a,4,100135,3,40,168,21,M,NA,variable,heterogeneous,4,absent,NaN,0,vertical,none,0,0.623529018055309,green,2,NaN,1053.09926866854,631.076682568313,NaN,NaN,768.923317431687,853.099268668537,1053.09926866854,631.076682568313,831.076682568313,346.900731331463,546.900731331463,568.923317431687,0,0,0,0,5,4,5,3,NaN,NaN,vertical,vertical,horizontal,horizontal,none,none
1a,4,100135,3,41,169,21,M,NA,variable,heterogeneous,6,absent,0.873106002807617,1,vertical,vertical,1,0.752938617359508,green,2,NaN,1042.51941165526,678.799333565612,NaN,NaN,853.017481158529,849.42763818712,1042.51941165526,678.799333565612,989.501930496736,429.371695378491,746.982518841471,350.57236181288,557.480588344736,521.200666434388,610.498069503264,770.628304621509,6,4,5,3,6,0,vertical,vertical,vertical,horizontal,horizontal,vertical
1a,4,100135,3,42,170,21,M,NA,variable,heterogeneous,5,present,1.95912599563599,0,vertical,horizontal,1,0.623529018055309,red,4,5,570.807518193712,488.215357568785,622.862115532956,783.431649086356,919.715248510402,825.151636179026,1051.12597701811,555.719714694933,835.489140744817,347.4816424709,570.807518193712,488.215357568785,622.862115532956,783.431649086356,0,0,6,5,6,4,0,NaN,vertical,horizontal,horizontal,vertical,horizontal,none
1a,4,100135,3,43,171,21,M,NA,variable,heterogeneous,6,present,NaN,0,horizontal,none,0,0.752938617359508,green,4,6,764.510859255183,347.4816424709,599.057257830286,756.993676208043,835.489140744817,852.518357529101,1036.43188291453,695.524681321058,1000.94274216971,443.006323791957,764.510859255183,347.4816424709,563.568117085469,504.475318678942,599.057257830286,756.993676208043,5,3,0,4,0,3,horizontal,horizontal,vertical,horizontal,horizontal,horizontal
1a,4,100135,3,44,172,21,M,NA,variable,heterogeneous,5,absent,1.11175584793091,1,vertical,vertical,1,1.09410937916149,green,3,NaN,831.076682568313,346.900731331463,NaN,NaN,923.626453162816,823.028025320546,1050.31493177915,551.343706178981,831.076682568313,346.900731331463,568.891514305654,492.232343256122,626.090418184063,786.495193912888,0,0,0,5,4,6,3,NaN,vertical,vertical,vertical,vertical,horizontal,none
1a,4,100135,3,45,173,21,M,NA,variable,heterogeneous,6,absent,1.71151995658875,1,vertical,vertical,1,1.08234487013383,red,4,NaN,729.712474266665,354.878267535729,NaN,NaN,870.287525733335,845.121732464271,1047.42541020038,661.690083377915,977.137884467044,416.568350913644,729.712474266665,354.878267535729,552.574589799621,538.309916622085,622.862115532956,783.431649086356,0,6,6,4,5,5,vertical,vertical,vertical,vertical,vertical,horizontal
1a,4,100135,3,46,174,21,M,NA,variable,heterogeneous,5,absent,0.975187063217163,1,vertical,vertical,1,0.635293527082963,red,4,NaN,576.971974679454,476.373546837184,NaN,NaN,907.767656743878,831.108485694346,1053.09926866854,568.923317431687,848.656293821019,349.685068220846,576.971974679454,476.373546837184,613.504806087112,773.909581815937,0,0,5,6,6,4,0,NaN,horizontal,horizontal,horizontal,vertical,horizontal,none
1a,4,100135,3,47,175,21,M,NA,variable,heterogeneous,5,absent,0.851172924041748,1,vertical,vertical,1,0.635293527082963,red,2,NaN,1051.86052685176,560.109211414741,NaN,NaN,915.767577433584,827.206663668034,1051.86052685176,560.109211414741,839.890788585259,348.13947314824,572.793336331966,484.232422566416,619.68777079743,780.31222920257,0,0,0,4,3,6,6,NaN,horizontal,vertical,horizontal,vertical,vertical,none
1a,4,100135,3,48,176,21,M,NA,variable,heterogeneous,5,present,0.844996929168701,1,vertical,vertical,1,1.03528683402322,green,5,4,545.621167183745,582.212099195248,738.309916622085,352.574589799621,704.475318678942,836.431882914531,995.341332995339,763.910840470068,1016.25226451989,464.870587620533,738.309916622085,352.574589799621,545.621167183745,582.212099195248,0,0,3,0,3,5,4,NaN,horizontal,horizontal,horizontal,vertical,vertical,none
1a,4,100135,3,49,177,21,M,NA,variable,heterogeneous,3,present,1.79654383659363,1,horizontal,horizontal,1,0.905877234719016,red,1,3,998.172220171528,760.476699717708,561.936991243214,691.383827134052,998.172220171528,760.476699717708,839.890788585259,348.13947314824,561.936991243214,691.383827134052,0,0,0,0,0,0,4,5,0,NaN,NaN,NaN,horizontal,horizontal,vertical,none,none,none
1a,4,100135,3,50,178,21,M,NA,variable,heterogeneous,6,absent,NaN,0,vertical,none,0,1.08234487013383,red,1,NaN,746.982518841471,849.42763818712,NaN,NaN,746.982518841471,849.42763818712,989.501930496736,770.628304621509,1042.51941165526,521.200666434388,853.017481158529,350.57236181288,610.498069503264,429.371695378491,557.480588344736,678.799333565612,4,0,3,6,5,5,vertical,vertical,vertical,horizontal,vertical,vertical
1a,4,100135,3,51,179,21,M,NA,variable,heterogeneous,5,present,1.23447799682617,1,horizontal,horizontal,1,1.01175781596791,green,3,4,1020.83647796503,472.5,746.982518841471,350.57236181288,696.282156015671,832.954091698863,989.501930496736,770.628304621509,1020.83647796503,472.5,746.982518841471,350.57236181288,546.39691668109,573.345241866748,0,0,6,3,4,5,5,NaN,horizontal,vertical,horizontal,vertical,vertical,none
1a,4,100135,3,52,180,21,M,NA,variable,heterogeneous,5,present,1.04949903488159,1,vertical,vertical,1,0.905877234719016,green,3,5,1031.10848569435,492.232343256122,549.685068220846,551.343706178981,676.373546837184,823.028025320546,973.909581815937,786.495193912888,1031.10848569435,492.232343256122,768.923317431687,346.900731331463,549.685068220846,551.343706178981,0,0,0,6,4,6,3,NaN,horizontal,horizontal,vertical,horizontal,vertical,none
1a,4,100135,3,53,181,21,M,NA,variable,heterogeneous,3,absent,0.628589153289795,1,vertical,vertical,1,0.882348216663707,green,2,NaN,1045.12173246427,529.712474266665,NaN,NaN,738.309916622085,847.425410200379,1045.12173246427,529.712474266665,616.568350913644,422.862115532956,0,0,0,0,0,0,3,4,5,NaN,NaN,NaN,horizontal,vertical,horizontal,none,none,none
1a,4,100135,3,54,182,21,M,NA,variable,heterogeneous,5,absent,1.23182201385498,1,horizontal,horizontal,1,0.729409599304199,red,1,NaN,764.510859255183,852.518357529101,NaN,NaN,764.510859255183,852.518357529101,1029.19248180629,711.784642431215,977.137884467044,416.568350913644,680.284751489598,374.848363820974,548.874022981887,644.280285305067,0,0,4,5,6,3,0,NaN,horizontal,horizontal,vertical,vertical,vertical,none
1a,4,100135,3,55,183,21,M,NA,variable,heterogeneous,4,absent,1.28171110153198,1,vertical,vertical,1,0.858819198608398,green,1,NaN,956.993676208043,800.942742169714,NaN,NaN,956.993676208043,800.942742169714,1000.94274216971,443.006323791957,643.006323791957,399.057257830286,599.057257830286,756.993676208043,0,0,0,0,4,0,3,6,NaN,NaN,vertical,vertical,horizontal,vertical,none,none
1a,4,100135,3,56,184,21,M,NA,variable,heterogeneous,3,present,0.710380792617798,1,vertical,vertical,1,0.94117076180198,red,1,3,835.489140744817,852.518357529101,563.568117085469,504.475318678942,835.489140744817,852.518357529101,1000.94274216971,443.006323791957,563.568117085469,504.475318678942,0,0,0,0,0,0,4,6,3,NaN,NaN,NaN,vertical,horizontal,horizontal,none,none,none
1a,4,100135,3,57,185,21,M,NA,variable,heterogeneous,6,present,1.7584400177002,1,vertical,vertical,1,0.682351563193581,green,5,6,548.874022981887,555.719714694933,636.089159529932,795.341332995339,887.215136548046,839.621618300407,1051.12597701811,644.280285305067,963.910840470068,404.658667004661,712.784863451954,360.378381699593,548.874022981887,555.719714694933,636.089159529932,795.341332995339,6,3,5,0,4,5,vertical,horizontal,horizontal,vertical,vertical,horizontal
1a,4,100135,3,58,186,21,M,NA,variable,heterogeneous,6,present,1.63580799102783,0,horizontal,vertical,1,1.09410937916149,green,5,2,613.504806087112,426.090418184063,986.495193912888,773.909581815937,742.637481142314,848.464366520235,986.495193912888,773.909581815937,1043.85771277057,525.445215295702,857.362518857686,351.535633479765,613.504806087112,426.090418184063,556.142287229426,674.554784704298,0,6,3,5,4,3,horizontal,horizontal,horizontal,vertical,horizontal,vertical
1a,4,100135,3,59,187,21,M,NA,variable,heterogeneous,5,present,1.55441117286682,1,horizontal,horizontal,1,0.882348216663707,green,2,4,1036.43188291453,695.524681321058,664.870587620533,383.747735480111,782.212099195248,854.378832816255,1036.43188291453,695.524681321058,963.910840470068,404.658667004661,664.870587620533,383.747735480111,552.574589799621,661.690083377915,0,0,6,4,0,0,5,NaN,vertical,horizontal,horizontal,vertical,horizontal,none
1a,4,100135,3,60,188,21,M,NA,variable,heterogeneous,5,absent,0.745404958724976,1,horizontal,horizontal,1,0.988228797912598,green,2,NaN,1008.88377129369,746.261991269517,NaN,NaN,725.445215295702,843.857712770574,1008.88377129369,746.261991269517,1003.65205506206,446.537169096228,716.980120613425,358.892763222174,545.03883773512,604.450363641507,0,0,0,4,5,3,5,NaN,horizontal,horizontal,horizontal,horizontal,horizontal,none
1a,4,100135,3,61,189,21,M,NA,variable,heterogeneous,5,present,1.5761079788208,1,horizontal,horizontal,1,0.976464288884943,red,4,2,622.862115532956,416.568350913644,1051.12597701811,644.280285305067,835.489140744817,852.518357529101,1051.12597701811,644.280285305067,919.715248510402,374.848363820974,622.862115532956,416.568350913644,570.807518193712,711.784642431215,0,0,3,6,0,4,5,NaN,vertical,horizontal,horizontal,horizontal,vertical,none
1a,4,100135,3,62,190,21,M,NA,variable,heterogeneous,4,present,1.0440149307251,1,vertical,vertical,1,0.799996653470126,green,2,4,1053.60308331891,626.654758133252,546.39691668109,573.345241866748,773.345241866748,853.60308331891,1053.60308331891,626.654758133252,826.654758133252,346.39691668109,546.39691668109,573.345241866748,0,0,0,0,6,4,3,5,NaN,NaN,vertical,vertical,vertical,vertical,none,none
1a,4,100135,3,63,191,21,M,NA,variable,heterogeneous,3,absent,0.711709976196289,1,vertical,vertical,1,0.741174108331854,green,1,NaN,995.341332995339,763.910840470068,NaN,NaN,995.341332995339,763.910840470068,844.280285305067,348.874022981887,560.378381699593,687.215136548046,0,0,0,0,0,0,4,5,0,NaN,NaN,NaN,vertical,vertical,horizontal,none,none,none
1a,4,100135,3,64,192,21,M,NA,variable,heterogeneous,3,present,1.5635678768158,1,horizontal,horizontal,1,1.07058036110618,green,2,1,899.636437764765,365.271262369628,953.462830903772,803.65205506206,953.462830903772,803.65205506206,899.636437764765,365.271262369628,546.900731331463,631.076682568313,0,0,0,0,0,0,5,4,0,NaN,NaN,NaN,vertical,horizontal,horizontal,none,none,none
1a,4,100135,4,1,193,21,M,NA,variable,heterogeneous,6,present,1.64486002922058,1,vertical,vertical,1,0.999993306940252,green,5,2,653.738008730483,391.116228706307,946.261991269517,808.883771293693,692.232343256122,831.108485694346,946.261991269517,808.883771293693,1054.0296480134,577.775285599347,907.767656743878,368.891514305654,653.738008730483,391.116228706307,545.970351986605,622.224714400653,6,0,0,5,4,3,vertical,vertical,vertical,vertical,vertical,horizontal
1a,4,100135,4,2,194,21,M,NA,variable,heterogeneous,6,absent,1.24463510513306,1,vertical,vertical,1,0.929406252774325,green,1,NaN,844.280285305067,851.125977018113,NaN,NaN,844.280285305067,851.125977018113,1039.62161830041,687.215136548046,995.341332995339,436.089159529932,755.719714694933,348.874022981887,560.378381699593,512.784863451954,604.658667004661,763.910840470068,4,3,5,0,6,0,vertical,horizontal,vertical,horizontal,vertical,horizontal
1a,4,100135,4,3,195,21,M,NA,variable,heterogeneous,3,present,1.13413095474243,1,vertical,vertical,1,1.02352232499556,green,1,3,599.057257830286,756.993676208043,764.510859255183,347.4816424709,599.057257830286,756.993676208043,1036.43188291453,695.524681321058,764.510859255183,347.4816424709,0,0,0,0,0,0,4,6,3,NaN,NaN,NaN,vertical,horizontal,horizontal,none,none,none
1a,4,100135,4,4,196,21,M,NA,variable,heterogeneous,3,present,1.13116717338562,1,horizontal,horizontal,1,0.717645090276545,green,3,1,616.568350913644,422.862115532956,738.309916622085,847.425410200379,738.309916622085,847.425410200379,1045.12173246427,529.712474266665,616.568350913644,422.862115532956,0,0,0,0,0,0,3,6,4,NaN,NaN,NaN,vertical,vertical,horizontal,none,none,none
1a,4,100135,4,5,197,21,M,NA,variable,heterogeneous,4,absent,0.720795869827271,0,vertical,horizontal,1,0.741174108331854,red,2,NaN,1047.42541020038,661.690083377915,NaN,NaN,738.309916622085,847.425410200379,1047.42541020038,661.690083377915,861.690083377915,352.574589799621,552.574589799621,538.309916622085,0,0,0,0,6,4,3,5,NaN,NaN,vertical,vertical,horizontal,horizontal,none,none
1a,4,100135,4,6,198,21,M,NA,variable,heterogeneous,3,present,0.864403963088989,1,horizontal,horizontal,1,0.647058036110618,red,3,1,610.498069503264,429.371695378491,746.982518841471,849.42763818712,746.982518841471,849.42763818712,1042.51941165526,521.200666434388,610.498069503264,429.371695378491,0,0,0,0,0,0,5,6,4,NaN,NaN,NaN,vertical,horizontal,horizontal,none,none,none
1a,4,100135,4,7,199,21,M,NA,variable,heterogeneous,6,present,1.41171097755432,1,horizontal,horizontal,1,1.09410937916149,green,1,3,751.343706178981,850.314931779154,1041.10723677783,516.980120613425,751.343706178981,850.314931779154,992.450942956807,767.295052392579,1041.10723677783,516.980120613425,848.656293821019,349.685068220846,607.549057043193,432.704947607421,558.892763222174,683.019879386575,4,5,0,0,6,5,horizontal,horizontal,horizontal,horizontal,horizontal,vertical
1a,4,100135,4,8,200,21,M,NA,variable,heterogeneous,4,absent,NaN,0,vertical,none,0,1.04705134305087,green,3,NaN,704.475318678942,363.568117085469,NaN,NaN,895.524681321058,836.431882914531,1036.43188291453,504.475318678942,704.475318678942,363.568117085469,563.568117085469,695.524681321058,0,0,0,0,6,5,4,0,NaN,NaN,horizontal,horizontal,vertical,vertical,none,none
1a,4,100135,4,9,201,21,M,NA,variable,heterogeneous,5,absent,1.25703096389771,1,vertical,vertical,1,0.776467635414817,red,2,NaN,1051.12597701811,644.280285305067,NaN,NaN,835.489140744817,852.518357529101,1051.12597701811,644.280285305067,919.715248510402,374.848363820974,622.862115532956,416.568350913644,570.807518193712,711.784642431215,0,0,0,4,5,3,3,NaN,vertical,vertical,vertical,horizontal,vertical,none
1a,4,100135,4,10,202,21,M,NA,variable,heterogeneous,3,present,0.84306001663208,0,vertical,horizontal,1,0.835290180553089,red,1,3,650.114760665419,806.299333565612,696.282156015671,367.045908301137,650.114760665419,806.299333565612,1053.60308331891,626.654758133252,696.282156015671,367.045908301137,0,0,0,0,0,0,4,5,3,NaN,NaN,NaN,vertical,horizontal,vertical,none,none,none
1a,4,100135,4,11,203,21,M,NA,variable,heterogeneous,5,present,0.764506101608276,1,horizontal,horizontal,1,1.02352232499556,red,4,3,629.371695378491,410.498069503264,927.5,379.163522034968,826.654758133252,853.60308331891,1049.42763818712,653.017481158529,927.5,379.163522034968,629.371695378491,410.498069503264,567.045908301137,703.717843984329,0,0,3,6,0,4,5,NaN,horizontal,horizontal,vertical,horizontal,horizontal,none
1a,4,100135,4,12,204,21,M,NA,variable,heterogeneous,6,absent,1.85447692871094,1,vertical,vertical,1,0.917641743746671,red,6,NaN,557.480588344736,678.799333565612,NaN,NaN,746.982518841471,849.42763818712,989.501930496736,770.628304621509,1042.51941165526,521.200666434388,853.017481158529,350.57236181288,610.498069503264,429.371695378491,557.480588344736,678.799333565612,6,0,3,6,5,4,horizontal,horizontal,horizontal,vertical,horizontal,vertical
1a,4,100135,4,13,205,21,M,NA,variable,heterogeneous,4,absent,1.19805812835693,1,vertical,vertical,1,0.717645090276545,green,2,NaN,995.341332995339,763.910840470068,NaN,NaN,636.089159529932,795.341332995339,995.341332995339,763.910840470068,963.910840470068,404.658667004661,604.658667004661,436.089159529932,0,0,0,0,0,4,5,5,NaN,NaN,vertical,vertical,horizontal,horizontal,none,none
1a,4,100135,4,14,206,21,M,NA,variable,heterogeneous,6,present,1.62724184989929,1,vertical,vertical,1,0.658822545138272,green,1,5,768.923317431687,853.099268668537,596.34794493794,446.537169096228,768.923317431687,853.099268668537,1003.65205506206,753.462830903772,1034.72873763037,500.363562235235,831.076682568313,346.900731331463,596.34794493794,446.537169096228,565.271262369628,699.636437764765,4,6,5,3,3,0,vertical,vertical,vertical,vertical,vertical,horizontal
1a,4,100135,4,15,207,21,M,NA,variable,heterogeneous,6,present,0.670005083084106,1,horizontal,horizontal,1,0.905877234719016,red,5,3,549.685068220846,551.343706178981,967.295052392579,407.549057043193,883.019879386575,841.107236777826,1050.31493177915,648.656293821019,967.295052392579,407.549057043193,716.980120613425,358.892763222174,549.685068220846,551.343706178981,632.704947607421,792.450942956807,6,3,0,0,4,6,vertical,vertical,horizontal,horizontal,horizontal,vertical
1a,4,100135,4,16,208,21,M,NA,variable,heterogeneous,5,absent,0.997306108474731,1,horizontal,horizontal,1,1.07058036110618,red,4,NaN,563.568117085469,504.475318678942,NaN,NaN,935.129412379467,816.252264519889,1047.42541020038,538.309916622085,817.787900804752,345.621167183745,563.568117085469,504.475318678942,636.089159529932,795.341332995339,0,0,5,3,3,4,0,NaN,horizontal,horizontal,vertical,horizontal,horizontal,none
1a,4,100135,4,17,209,21,M,NA,variable,heterogeneous,4,present,0.79411506652832,1,horizontal,horizontal,1,0.835290180553089,red,1,4,804.450363641507,854.96116226488,545.03883773512,604.450363641507,804.450363641507,854.96116226488,1054.96116226488,595.549636358493,795.549636358493,345.03883773512,545.03883773512,604.450363641507,0,0,0,0,4,3,6,5,NaN,NaN,horizontal,horizontal,vertical,horizontal,none,none
1a,4,100135,4,18,210,21,M,NA,variable,heterogeneous,5,present,0.827891111373901,1,vertical,vertical,1,0.894112725691362,green,1,4,919.715248510402,825.151636179026,570.807518193712,488.215357568785,919.715248510402,825.151636179026,1051.12597701811,555.719714694933,835.489140744817,347.4816424709,570.807518193712,488.215357568785,622.862115532956,783.431649086356,0,0,4,3,6,3,5,NaN,vertical,horizontal,horizontal,vertical,vertical,none
1a,4,100135,4,19,211,21,M,NA,variable,heterogeneous,5,absent,1.3206307888031,1,horizontal,horizontal,1,0.799996653470126,red,4,NaN,800,345,NaN,NaN,650.114760665419,806.299333565612,949.885239334581,806.299333565612,1042.51941165526,521.200666434388,800,345,557.480588344736,521.200666434388,0,0,5,0,3,4,0,NaN,horizontal,vertical,horizontal,horizontal,horizontal,none
1a,4,100135,4,20,212,21,M,NA,variable,heterogeneous,4,absent,0.986105918884277,1,horizontal,horizontal,1,0.94117076180198,green,4,NaN,572.793336331966,715.767577433584,NaN,NaN,915.767577433584,827.206663668034,1027.20666366803,484.232422566416,684.232422566416,372.793336331966,572.793336331966,715.767577433584,0,0,0,0,0,6,0,4,NaN,NaN,vertical,horizontal,horizontal,horizontal,none,none
1a,4,100135,4,21,213,21,M,NA,variable,heterogeneous,5,absent,0.879384994506836,0,vertical,horizontal,1,1.07058036110618,red,3,NaN,808.899371659138,345.155339110131,NaN,NaN,942.594190385041,811.404581001536,1045.12173246427,529.712474266665,808.899371659138,345.155339110131,560.378381699593,512.784863451954,643.006323791957,800.942742169714,0,0,5,6,4,0,3,NaN,horizontal,horizontal,vertical,vertical,vertical,none
1a,4,100135,4,22,214,21,M,NA,variable,heterogeneous,6,present,1.90255904197693,1,horizontal,horizontal,1,0.670587054165927,red,5,4,599.057257830286,443.006323791957,835.489140744817,347.4816424709,764.510859255183,852.518357529101,1000.94274216971,756.993676208043,1036.43188291453,504.475318678942,835.489140744817,347.4816424709,599.057257830286,443.006323791957,563.568117085469,695.524681321058,5,5,6,0,4,3,vertical,vertical,vertical,horizontal,horizontal,horizontal
1a,4,100135,4,23,215,21,M,NA,variable,heterogeneous,6,absent,1.03602290153503,1,horizontal,horizontal,1,0.976464288884943,green,3,NaN,1031.10848569435,492.232343256122,NaN,NaN,777.775285599347,854.029648013395,1008.88377129369,746.261991269517,1031.10848569435,492.232343256122,822.224714400653,345.970351986605,591.116228706307,453.738008730483,568.891514305654,707.767656743878,3,6,4,5,0,3,horizontal,vertical,horizontal,horizontal,vertical,vertical
1a,4,100135,4,24,216,21,M,NA,variable,heterogeneous,3,present,0.806048154830933,1,vertical,vertical,1,0.847054689580744,green,3,1,553.688914296288,534.001143498857,865.998856501143,846.311085703712,865.998856501143,846.311085703712,980.31222920257,419.68777079743,553.688914296288,534.001143498857,0,0,0,0,0,0,0,5,4,NaN,NaN,NaN,vertical,vertical,vertical,none,none,none
1a,4,100135,4,25,217,21,M,NA,variable,heterogeneous,4,present,0.794790029525757,1,vertical,vertical,1,1.02352232499556,green,2,1,1027.20666366803,484.232422566416,915.767577433584,827.206663668034,915.767577433584,827.206663668034,1027.20666366803,484.232422566416,684.232422566416,372.793336331966,572.793336331966,715.767577433584,0,0,0,0,3,4,6,6,NaN,NaN,vertical,vertical,vertical,vertical,none,none
1a,4,100135,4,26,218,21,M,NA,variable,heterogeneous,3,present,0.713960886001587,1,vertical,vertical,1,0.752938617359508,red,2,3,1047.42541020038,538.309916622085,622.862115532956,416.568350913644,729.712474266665,845.121732464271,1047.42541020038,538.309916622085,622.862115532956,416.568350913644,0,0,0,0,0,0,0,4,6,NaN,NaN,NaN,vertical,vertical,vertical,none,none,none
1a,4,100135,4,27,219,21,M,NA,variable,heterogeneous,3,absent,1.24321794509888,1,vertical,vertical,1,0.752938617359508,green,2,NaN,973.909581815937,413.504806087112,NaN,NaN,874.554784704298,843.857712770574,973.909581815937,413.504806087112,551.535633479765,542.637481142314,0,0,0,0,0,0,0,4,6,NaN,NaN,NaN,vertical,vertical,horizontal,none,none,none
1a,4,100135,4,28,220,21,M,NA,variable,heterogeneous,6,present,0.799714088439941,1,vertical,vertical,1,0.764703126387163,red,3,2,1049.42763818712,546.982518841471,970.628304621509,789.501930496736,721.200666434388,842.519411655264,970.628304621509,789.501930496736,1049.42763818712,546.982518841471,878.799333565612,357.480588344736,629.371695378491,410.498069503264,550.57236181288,653.017481158529,5,6,4,0,5,0,vertical,vertical,vertical,horizontal,horizontal,vertical
1a,4,100135,4,29,221,21,M,NA,variable,heterogeneous,5,absent,0.761041879653931,1,horizontal,horizontal,1,0.858819198608398,green,2,NaN,1054.37883281626,617.787900804752,NaN,NaN,861.690083377915,847.425410200379,1054.37883281626,617.787900804752,895.524681321058,363.568117085469,604.658667004661,436.089159529932,583.747735480111,735.129412379467,0,0,3,4,3,5,0,NaN,horizontal,horizontal,horizontal,horizontal,horizontal,none
1a,4,100135,4,30,222,21,M,NA,variable,heterogeneous,4,present,1.11317300796509,1,horizontal,horizontal,1,0.835290180553089,red,1,3,692.232343256122,831.108485694346,907.767656743878,368.891514305654,692.232343256122,831.108485694346,1031.10848569435,707.767656743878,907.767656743878,368.891514305654,568.891514305654,492.232343256122,0,0,0,0,4,0,6,5,NaN,NaN,horizontal,horizontal,vertical,vertical,none,none
1a,4,100135,4,31,223,21,M,NA,variable,heterogeneous,5,present,1.83084392547607,1,horizontal,horizontal,1,0.964699779857289,green,3,2,831.076682568313,346.900731331463,1050.31493177915,551.343706178981,923.626453162816,823.028025320546,1050.31493177915,551.343706178981,831.076682568313,346.900731331463,568.891514305654,492.232343256122,626.090418184063,786.495193912888,0,0,3,5,4,6,0,NaN,horizontal,horizontal,horizontal,vertical,horizontal,none
1a,4,100135,4,32,224,21,M,NA,variable,heterogeneous,5,present,1.40320086479187,1,vertical,vertical,1,0.976464288884943,green,2,5,1036.43188291453,695.524681321058,552.574589799621,661.690083377915,782.212099195248,854.378832816255,1036.43188291453,695.524681321058,963.910840470068,404.658667004661,664.870587620533,383.747735480111,552.574589799621,661.690083377915,0,0,3,4,6,0,5,NaN,vertical,vertical,vertical,horizontal,horizontal,none
1a,4,100135,4,33,225,21,M,NA,variable,heterogeneous,6,absent,1.08561205863953,1,horizontal,horizontal,1,0.905877234719016,red,3,NaN,1045.12173246427,529.712474266665,NaN,NaN,738.309916622085,847.425410200379,983.431649086356,777.137884467044,1045.12173246427,529.712474266665,861.690083377915,352.574589799621,616.568350913644,422.862115532956,554.878267535729,670.287525733335,0,0,4,3,6,5,vertical,vertical,horizontal,vertical,horizontal,vertical
1a,4,100135,4,34,226,21,M,NA,variable,heterogeneous,6,present,0.821606874465942,0,horizontal,vertical,1,0.70588058124889,green,6,3,639.523300282292,798.172220171528,960.476699717708,401.827779828472,891.383827134052,838.063008756786,1051.86052685176,639.890788585259,960.476699717708,401.827779828472,708.616172865948,361.936991243214,548.13947314824,560.109211414741,639.523300282292,798.172220171528,5,3,3,0,5,4,vertical,vertical,vertical,horizontal,vertical,horizontal
1a,4,100135,4,35,227,21,M,NA,variable,heterogeneous,5,absent,1.60239601135254,1,vertical,vertical,1,0.811761162497781,green,5,NaN,639.523300282292,798.172220171528,NaN,NaN,938.882953928832,813.860994826083,1046.31108570371,534.001143498857,813.345668841951,345.349468637584,561.936991243214,508.616172865948,639.523300282292,798.172220171528,0,0,6,0,3,5,4,NaN,vertical,vertical,vertical,horizontal,vertical,none
1a,4,100135,4,36,228,21,M,NA,variable,heterogeneous,4,present,1.03964591026306,0,horizontal,vertical,1,0.647058036110618,green,2,4,1051.86052685176,560.109211414741,548.13947314824,639.890788585259,839.890788585259,851.86052685176,1051.86052685176,560.109211414741,760.109211414741,348.13947314824,548.13947314824,639.890788585259,0,0,0,0,6,4,3,6,NaN,NaN,horizontal,horizontal,vertical,vertical,none,none
1a,4,100135,4,37,229,21,M,NA,variable,heterogeneous,3,present,0.646262884140015,1,horizontal,horizontal,1,0.882348216663707,red,2,3,1031.10848569435,707.767656743878,777.775285599347,345.970351986605,591.116228706307,746.261991269517,1031.10848569435,707.767656743878,777.775285599347,345.970351986605,0,0,0,0,0,0,6,4,5,NaN,NaN,NaN,vertical,horizontal,vertical,none,none,none
1a,4,100135,4,38,230,21,M,NA,variable,heterogeneous,3,absent,0.831973075866699,1,horizontal,horizontal,1,0.835290180553089,green,3,NaN,567.045908301137,496.282156015671,NaN,NaN,826.654758133252,853.60308331891,1006.29933356561,450.114760665419,567.045908301137,496.282156015671,0,0,0,0,0,0,0,6,4,NaN,NaN,NaN,vertical,horizontal,horizontal,none,none,none
1a,4,100135,4,39,231,21,M,NA,variable,heterogeneous,5,present,1.95576596260071,1,vertical,vertical,1,0.952935270829634,red,4,5,596.34794493794,446.537169096228,591.116228706307,746.261991269517,874.554784704298,843.857712770574,1054.96116226488,604.450363641507,883.019879386575,358.892763222174,596.34794493794,446.537169096228,591.116228706307,746.261991269517,0,0,0,5,6,4,0,NaN,horizontal,horizontal,horizontal,vertical,horizontal,none
1a,4,100135,4,40,232,21,M,NA,variable,heterogeneous,5,present,NaN,0,vertical,none,0,1.03528683402322,red,2,1,1052.5183575291,635.489140744817,844.280285305067,851.125977018113,844.280285305067,851.125977018113,1052.5183575291,635.489140744817,911.784642431215,370.807518193712,616.568350913644,422.862115532956,574.848363820974,719.715248510402,0,0,5,4,3,0,6,NaN,horizontal,vertical,vertical,vertical,vertical,none
1a,4,100135,4,41,233,21,M,NA,variable,heterogeneous,3,absent,1.42816495895386,0,horizontal,vertical,1,0.988228797912598,red,3,NaN,550.57236181288,653.017481158529,NaN,NaN,970.628304621509,789.501930496736,878.799333565612,357.480588344736,550.57236181288,653.017481158529,0,0,0,0,0,0,5,6,4,NaN,NaN,NaN,vertical,vertical,horizontal,none,none,none
1a,4,100135,4,42,234,21,M,NA,variable,heterogeneous,6,present,1.10489296913147,1,vertical,vertical,1,0.999993306940252,red,4,2,857.362518857686,351.535633479765,986.495193912888,773.909581815937,742.637481142314,848.464366520235,986.495193912888,773.909581815937,1043.85771277057,525.445215295702,857.362518857686,351.535633479765,613.504806087112,426.090418184063,556.142287229426,674.554784704298,3,5,6,4,0,0,horizontal,horizontal,horizontal,vertical,horizontal,vertical
1a,4,100135,4,43,235,21,M,NA,variable,heterogeneous,5,present,1.94681715965271,1,horizontal,horizontal,1,0.776467635414817,red,3,2,923.626453162816,376.971974679454,1050.31493177915,648.656293821019,831.076682568313,853.099268668537,1050.31493177915,648.656293821019,923.626453162816,376.971974679454,626.090418184063,413.504806087112,568.891514305654,707.767656743878,0,0,3,3,4,0,6,NaN,vertical,vertical,horizontal,horizontal,vertical,none
1a,4,100135,4,44,236,21,M,NA,variable,heterogeneous,6,absent,NaN,0,vertical,none,0,0.858819198608398,green,5,NaN,560.378381699593,512.784863451954,NaN,NaN,844.280285305067,851.125977018113,1039.62161830041,687.215136548046,995.341332995339,436.089159529932,755.719714694933,348.874022981887,560.378381699593,512.784863451954,604.658667004661,763.910840470068,0,3,6,5,4,5,horizontal,vertical,horizontal,horizontal,vertical,vertical
1a,4,100135,4,45,237,21,M,NA,variable,heterogeneous,3,absent,0.978936910629272,1,vertical,vertical,1,0.976464288884943,red,3,NaN,773.345241866748,346.39691668109,NaN,NaN,593.700666434388,749.885239334581,1032.95409169886,703.717843984329,773.345241866748,346.39691668109,0,0,0,0,0,0,6,6,4,NaN,NaN,NaN,horizontal,vertical,vertical,none,none,none
1a,4,100135,4,46,238,21,M,NA,variable,heterogeneous,4,absent,NaN,0,horizontal,none,0,0.611764509027654,green,2,NaN,1032.95409169886,496.282156015671,NaN,NaN,903.717843984329,832.954091698863,1032.95409169886,496.282156015671,696.282156015671,367.045908301137,567.045908301137,703.717843984329,0,0,0,0,5,4,6,0,NaN,NaN,horizontal,horizontal,horizontal,vertical,none,none
1a,4,100135,4,47,239,21,M,NA,variable,heterogeneous,4,present,1.87742209434509,1,vertical,vertical,1,0.70588058124889,green,4,3,579.163522034968,727.5,672.5,379.163522034968,927.5,820.836477965032,1020.83647796503,472.5,672.5,379.163522034968,579.163522034968,727.5,0,0,0,0,5,3,6,4,NaN,NaN,horizontal,vertical,vertical,vertical,none,none
1a,4,100135,4,48,240,21,M,NA,variable,heterogeneous,3,absent,0.744836807250977,1,horizontal,horizontal,1,0.882348216663707,red,2,NaN,1052.5183575291,635.489140744817,NaN,NaN,643.006323791957,800.942742169714,1052.5183575291,635.489140744817,704.475318678942,363.568117085469,0,0,0,0,0,0,5,4,0,NaN,NaN,NaN,horizontal,horizontal,vertical,none,none,none
1a,4,100135,4,49,241,21,M,NA,variable,heterogeneous,5,present,1.93165993690491,1,horizontal,horizontal,1,0.988228797912598,green,4,1,613.504806087112,426.090418184063,848.656293821019,850.314931779154,848.656293821019,850.314931779154,1053.09926866854,631.076682568313,907.767656743878,368.891514305654,613.504806087112,426.090418184063,576.971974679454,723.626453162816,0,0,0,5,6,4,3,NaN,horizontal,vertical,horizontal,horizontal,vertical,none
1a,4,100135,4,50,242,21,M,NA,variable,heterogeneous,4,absent,1.09876894950867,1,horizontal,horizontal,1,0.811761162497781,red,4,NaN,576.971974679454,723.626453162816,NaN,NaN,923.626453162816,823.028025320546,1023.02802532055,476.373546837184,676.373546837184,376.971974679454,576.971974679454,723.626453162816,0,0,0,0,0,0,5,4,NaN,NaN,vertical,horizontal,vertical,horizontal,none,none
1a,4,100135,4,51,243,21,M,NA,variable,heterogeneous,5,absent,1.64708590507507,1,vertical,vertical,1,0.905877234719016,green,4,NaN,676.373546837184,376.971974679454,NaN,NaN,768.923317431687,853.099268668537,1031.10848569435,707.767656743878,973.909581815937,413.504806087112,676.373546837184,376.971974679454,549.685068220846,648.656293821019,0,0,3,0,5,4,0,NaN,vertical,vertical,vertical,vertical,horizontal,none
1a,4,100135,4,52,244,21,M,NA,variable,heterogeneous,3,present,1.18970680236816,0,horizontal,vertical,1,1.07058036110618,green,2,3,983.431649086356,422.862115532956,554.878267535729,529.712474266665,861.690083377915,847.425410200379,983.431649086356,422.862115532956,554.878267535729,529.712474266665,0,0,0,0,0,0,3,4,5,NaN,NaN,NaN,vertical,horizontal,horizontal,none,none,none
