experiment,subject,uniqueID,block,trial,trial_cumulative,age,gender,color_cond_blocking,color_history,shape_type,set_size,distractor,rt,acc,target_orient,response_key,response_made,iti,target_color,target_item,distractor_item,target_X,target_Y,distractor_X,distractor_Y,item1_X,item1_Y,item2_X,item2_Y,item3_X,item3_Y,item4_X,item4_Y,item5_X,item5_Y,item6_X,item6_Y,item1_shape,item2_shape,item3_shape,item4_shape,item5_shape,item6_shape,item1_line,item2_line,item3_line,item4_line,item5_line,item6_line
1a,5,100113,1,1,1,21,F,NA,variable,heterogeneous,3,absent,1.52276706695557,1,vertical,vertical,1,1.0000011920929,red,2,NaN,1039.62161830041,687.215136548046,NaN,NaN,604.658667004661,763.910840470068,1039.62161830041,687.215136548046,755.719714694933,348.874022981887,0,0,0,0,0,0,3,4,0,NaN,NaN,NaN,horizontal,vertical,horizontal,none,none,none
1a,5,100113,1,2,2,21,F,NA,variable,heterogeneous,5,absent,NaN,0,horizontal,none,0,0.823530077934265,green,2,NaN,1054.84466088987,591.100628340862,NaN,NaN,887.215136548046,839.621618300407,1054.84466088987,591.100628340862,870.287525733335,354.878267535729,588.595418998464,457.40580961496,599.057257830286,756.993676208043,0,0,6,4,5,0,0,NaN,vertical,horizontal,vertical,horizontal,horizontal,none
1a,5,100113,1,3,3,21,F,NA,variable,heterogeneous,6,absent,1.72495603561401,1,vertical,vertical,1,0.752941632270813,green,5,NaN,650.114760665419,393.700666434388,NaN,NaN,696.282156015671,832.954091698863,949.885239334581,806.299333565612,1053.60308331891,573.345241866748,903.717843984329,367.045908301137,650.114760665419,393.700666434388,546.39691668109,626.654758133252,3,3,5,6,4,6,horizontal,vertical,vertical,vertical,vertical,horizontal
1a,5,100113,1,4,4,21,F,NA,variable,heterogeneous,3,absent,1.12450289726257,1,vertical,vertical,1,0.847059559822082,green,1,NaN,751.343706178981,850.314931779154,NaN,NaN,751.343706178981,850.314931779154,1041.10723677783,516.980120613425,607.549057043193,432.704947607421,0,0,0,0,0,0,4,0,6,NaN,NaN,NaN,vertical,vertical,vertical,none,none,none
1a,5,100113,1,5,5,21,F,NA,variable,heterogeneous,5,present,1.30392098426819,1,horizontal,horizontal,1,1.03529541492462,green,3,4,907.767656743878,368.891514305654,613.504806087112,426.090418184063,848.656293821019,850.314931779154,1053.09926866854,631.076682568313,907.767656743878,368.891514305654,613.504806087112,426.090418184063,576.971974679454,723.626453162816,0,0,3,6,4,5,6,NaN,horizontal,horizontal,horizontal,horizontal,horizontal,none
1a,5,100113,1,6,6,21,F,NA,variable,heterogeneous,3,present,1.28303694725037,0,horizontal,vertical,1,1.04706015586853,red,1,2,1018.57766167904,731.334709102064,804.450363641507,345.03883773512,1018.57766167904,731.334709102064,804.450363641507,345.03883773512,576.971974679454,723.626453162816,0,0,0,0,0,0,4,5,0,NaN,NaN,NaN,horizontal,vertical,vertical,none,none,none
1a,5,100113,1,7,7,21,F,NA,variable,heterogeneous,4,absent,1.32381200790405,1,vertical,vertical,1,0.952942228317261,green,3,NaN,804.450363641507,345.03883773512,NaN,NaN,795.549636358493,854.96116226488,1054.96116226488,604.450363641507,804.450363641507,345.03883773512,545.03883773512,595.549636358493,0,0,0,0,5,6,4,0,NaN,NaN,horizontal,horizontal,vertical,vertical,none,none
1a,5,100113,1,8,8,21,F,NA,variable,heterogeneous,6,absent,NaN,0,horizontal,none,0,1.04706015586853,green,2,NaN,998.172220171528,760.476699717708,NaN,NaN,760.109211414741,851.86052685176,998.172220171528,760.476699717708,1038.06300875679,508.616172865948,839.890788585259,348.13947314824,601.827779828472,439.523300282291,561.936991243214,691.383827134052,5,4,3,5,6,6,vertical,horizontal,vertical,vertical,vertical,horizontal
1a,5,100113,1,9,9,21,F,NA,variable,heterogeneous,6,present,1.5786919593811,0,horizontal,vertical,1,0.741176891326904,green,2,4,1046.31108570371,665.998856501143,734.001143498857,353.688914296288,865.998856501143,846.311085703712,1046.31108570371,665.998856501143,980.31222920257,419.68777079743,734.001143498857,353.688914296288,553.688914296288,534.001143498857,619.68777079743,780.31222920257,5,4,3,6,0,5,vertical,horizontal,vertical,horizontal,vertical,vertical
1a,5,100113,1,10,10,21,F,NA,variable,heterogeneous,5,present,1.65042901039124,0,horizontal,vertical,1,0.788235855102539,green,2,5,1049.42763818712,546.982518841471,629.371695378491,789.501930496736,927.5,820.836477965032,1049.42763818712,546.982518841471,826.654758133252,346.39691668109,567.045908301137,496.282156015671,629.371695378491,789.501930496736,0,0,3,4,6,0,6,NaN,vertical,horizontal,vertical,horizontal,vertical,none
1a,5,100113,1,11,11,21,F,NA,variable,heterogeneous,5,absent,1.45986080169678,1,horizontal,horizontal,1,0.811765336990356,green,2,NaN,980.31222920257,780.31222920257,NaN,NaN,684.232422566416,827.206663668034,980.31222920257,780.31222920257,1027.20666366803,484.232422566416,760.109211414741,348.13947314824,548.13947314824,560.109211414741,0,0,6,4,5,3,0,NaN,vertical,horizontal,vertical,horizontal,vertical,none
1a,5,100113,1,12,12,21,F,NA,variable,heterogeneous,3,present,1.12714791297913,0,horizontal,vertical,1,1.09411911964417,green,3,2,734.001143498857,353.688914296288,1046.31108570371,665.998856501143,619.68777079743,780.31222920257,1046.31108570371,665.998856501143,734.001143498857,353.688914296288,0,0,0,0,0,0,6,5,4,NaN,NaN,NaN,horizontal,vertical,horizontal,none,none,none
1a,5,100113,1,13,13,21,F,NA,variable,heterogeneous,6,absent,1.44015979766846,1,horizontal,horizontal,1,0.917648005485535,green,4,NaN,725.445215295702,356.142287229426,NaN,NaN,874.554784704298,843.857712770574,1048.46436652023,657.362518857686,973.909581815937,413.504806087112,725.445215295702,356.142287229426,551.535633479765,542.637481142314,626.090418184063,786.495193912888,0,3,5,4,3,5,horizontal,vertical,horizontal,horizontal,vertical,vertical
1a,5,100113,1,14,14,21,F,NA,variable,heterogeneous,5,absent,1.23584914207458,1,vertical,vertical,1,0.741176891326904,red,4,NaN,579.163522034968,472.5,NaN,NaN,903.717843984329,832.954091698863,1053.60308331891,573.345241866748,853.017481158529,350.57236181288,579.163522034968,472.5,610.498069503264,770.628304621509,0,0,5,0,3,4,0,NaN,vertical,vertical,vertical,vertical,horizontal,none
1a,5,100113,1,15,15,21,F,NA,variable,heterogeneous,3,absent,1.68021893501282,1,horizontal,horizontal,1,0.964706969261169,red,3,NaN,795.549636358493,345.03883773512,NaN,NaN,581.422338320961,731.334709102064,1023.02802532055,723.626453162816,795.549636358493,345.03883773512,0,0,0,0,0,0,3,5,4,NaN,NaN,NaN,horizontal,vertical,horizontal,none,none,none
1a,5,100113,1,16,16,21,F,NA,variable,heterogeneous,3,absent,1.3272659778595,1,vertical,vertical,1,0.8705890417099,red,3,NaN,576.971974679454,723.626453162816,NaN,NaN,1018.57766167904,731.334709102064,804.450363641507,345.03883773512,576.971974679454,723.626453162816,0,0,0,0,0,0,0,5,4,NaN,NaN,NaN,vertical,vertical,vertical,none,none,none
1a,5,100113,1,17,17,21,F,NA,variable,heterogeneous,6,absent,1.69866013526917,0,horizontal,vertical,1,1.03529541492462,red,6,NaN,546.39691668109,626.654758133252,NaN,NaN,696.282156015671,832.954091698863,949.885239334581,806.299333565612,1053.60308331891,573.345241866748,903.717843984329,367.045908301137,650.114760665419,393.700666434388,546.39691668109,626.654758133252,5,3,0,6,0,4,horizontal,vertical,vertical,horizontal,vertical,horizontal
1a,5,100113,1,18,18,21,F,NA,variable,heterogeneous,4,present,0.940989971160889,0,horizontal,vertical,1,0.811765336990356,green,1,2,688.215357568785,829.192481806288,1029.19248180629,711.784642431215,688.215357568785,829.192481806288,1029.19248180629,711.784642431215,911.784642431215,370.807518193712,570.807518193712,488.215357568785,0,0,0,0,4,5,6,0,NaN,NaN,horizontal,horizontal,vertical,horizontal,none,none
1a,5,100113,1,19,19,21,F,NA,variable,heterogeneous,4,present,1.79655504226685,0,horizontal,vertical,1,1.02353067398071,red,3,1,791.100628340862,345.155339110131,808.899371659138,854.844660889869,808.899371659138,854.844660889869,1054.84466088987,591.100628340862,791.100628340862,345.155339110131,545.155339110131,608.899371659138,0,0,0,0,5,3,4,5,NaN,NaN,horizontal,horizontal,horizontal,vertical,none,none
1a,5,100113,1,20,20,21,F,NA,variable,heterogeneous,3,absent,0.969804048538208,0,vertical,horizontal,1,0.658823704719543,green,2,NaN,1051.86052685176,639.890788585259,NaN,NaN,639.523300282292,798.172220171528,1051.86052685176,639.890788585259,708.616172865948,361.936991243214,0,0,0,0,0,0,6,4,3,NaN,NaN,NaN,vertical,vertical,vertical,none,none,none
1a,5,100113,1,21,21,21,F,NA,variable,heterogeneous,3,absent,0.909152030944824,0,horizontal,vertical,1,0.788235855102539,green,1,NaN,891.383827134052,838.063008756786,NaN,NaN,891.383827134052,838.063008756786,960.476699717708,401.827779828472,548.13947314824,560.109211414741,0,0,0,0,0,0,4,6,0,NaN,NaN,NaN,horizontal,vertical,horizontal,none,none,none
1a,5,100113,1,22,22,21,F,NA,variable,heterogeneous,6,present,NaN,0,horizontal,none,0,0.835294818878174,red,1,5,895.524681321058,836.431882914531,547.481642470899,564.510859255183,895.524681321058,836.431882914531,1052.5183575291,635.489140744817,956.993676208043,399.057257830286,704.475318678942,363.568117085469,547.481642470899,564.510859255183,643.006323791957,800.942742169714,4,0,3,6,0,6,horizontal,vertical,vertical,horizontal,horizontal,horizontal
1a,5,100113,1,23,23,21,F,NA,variable,heterogeneous,5,present,NaN,0,vertical,none,0,0.882353782653809,green,2,4,1020.83647796503,727.5,696.282156015671,367.045908301137,746.982518841471,849.42763818712,1020.83647796503,727.5,989.501930496736,429.371695378491,696.282156015671,367.045908301137,546.39691668109,626.654758133252,0,0,3,4,0,6,3,NaN,vertical,vertical,vertical,vertical,horizontal,none
1a,5,100113,1,24,24,21,F,NA,variable,heterogeneous,3,present,1.36756992340088,1,horizontal,horizontal,1,1.05882489681244,red,3,2,545.970351986605,622.224714400653,907.767656743878,368.891514305654,946.261991269517,808.883771293693,907.767656743878,368.891514305654,545.970351986605,622.224714400653,0,0,0,0,0,0,6,3,4,NaN,NaN,NaN,vertical,horizontal,horizontal,none,none,none
1a,5,100113,1,25,25,21,F,NA,variable,heterogeneous,5,absent,1.90643620491028,1,vertical,vertical,1,0.764706373214722,green,2,NaN,1054.84466088987,608.899371659138,NaN,NaN,870.287525733335,845.121732464271,1054.84466088987,608.899371659138,887.215136548046,360.378381699593,599.057257830286,443.006323791957,588.595418998464,742.594190385041,0,0,3,4,5,6,0,NaN,horizontal,vertical,horizontal,vertical,vertical,none
1a,5,100113,1,26,26,21,F,NA,variable,heterogeneous,3,present,1.04157400131226,1,vertical,vertical,1,0.835294818878174,red,2,3,1050.31493177915,551.343706178981,632.704947607421,407.549057043193,716.980120613425,841.107236777826,1050.31493177915,551.343706178981,632.704947607421,407.549057043193,0,0,0,0,0,0,6,4,5,NaN,NaN,NaN,horizontal,vertical,horizontal,none,none,none
1a,5,100113,1,27,27,21,F,NA,variable,heterogeneous,6,present,1.13465905189514,1,vertical,vertical,1,0.811765336990356,red,2,6,1029.19248180629,711.784642431215,588.595418998464,742.594190385041,817.787900804752,854.378832816255,1029.19248180629,711.784642431215,1011.40458100154,457.40580961496,782.212099195248,345.621167183745,570.807518193712,488.215357568785,588.595418998464,742.594190385041,6,4,5,6,3,0,vertical,vertical,vertical,vertical,horizontal,horizontal
1a,5,100113,1,28,28,21,F,NA,variable,heterogeneous,4,absent,NaN,0,horizontal,none,0,1.0000011920929,green,3,NaN,822.224714400653,345.970351986605,NaN,NaN,777.775285599347,854.029648013395,1054.0296480134,622.224714400653,822.224714400653,345.970351986605,545.970351986605,577.775285599347,0,0,0,0,3,6,4,5,NaN,NaN,vertical,vertical,horizontal,horizontal,none,none
1a,5,100113,1,29,29,21,F,NA,variable,heterogeneous,5,absent,NaN,0,horizontal,none,0,0.976471710205078,red,3,NaN,938.882953928832,386.139005173917,NaN,NaN,813.345668841951,854.650531362416,1046.31108570371,665.998856501143,938.882953928832,386.139005173917,639.523300282292,401.827779828472,561.936991243214,691.383827134052,0,0,3,3,4,6,0,NaN,vertical,vertical,horizontal,vertical,horizontal,none
1a,5,100113,1,30,30,21,F,NA,variable,heterogeneous,6,present,1.46158313751221,1,vertical,vertical,1,0.988236451148987,green,1,6,777.775285599347,854.029648013395,568.891514305654,707.767656743878,777.775285599347,854.029648013395,1008.88377129369,746.261991269517,1031.10848569435,492.232343256122,822.224714400653,345.970351986605,591.116228706307,453.738008730483,568.891514305654,707.767656743878,4,5,3,0,3,6,vertical,vertical,vertical,horizontal,vertical,horizontal
1a,5,100113,1,31,31,21,F,NA,variable,heterogeneous,3,present,1.79854893684387,0,horizontal,vertical,1,0.77647111415863,green,3,2,554.878267535729,529.712474266665,983.431649086356,422.862115532956,861.690083377915,847.425410200379,983.431649086356,422.862115532956,554.878267535729,529.712474266665,0,0,0,0,0,0,3,5,4,NaN,NaN,NaN,horizontal,vertical,horizontal,none,none,none
1a,5,100113,1,32,32,21,F,NA,variable,heterogeneous,4,present,1.98536109924316,0,horizontal,vertical,1,0.729412150382996,red,2,4,980.31222920257,419.68777079743,619.68777079743,780.31222920257,980.31222920257,780.31222920257,980.31222920257,419.68777079743,619.68777079743,419.68777079743,619.68777079743,780.31222920257,0,0,0,0,0,4,0,6,NaN,NaN,vertical,horizontal,horizontal,vertical,none,none
1a,5,100113,1,33,33,21,F,NA,variable,heterogeneous,4,absent,1.25809693336487,1,horizontal,horizontal,1,1.03529541492462,red,1,NaN,643.006323791957,800.942742169714,NaN,NaN,643.006323791957,800.942742169714,1000.94274216971,756.993676208043,956.993676208043,399.057257830286,599.057257830286,443.006323791957,0,0,0,0,4,0,3,5,NaN,NaN,horizontal,vertical,horizontal,vertical,none,none
1a,5,100113,1,34,34,21,F,NA,variable,heterogeneous,4,absent,NaN,0,vertical,none,0,1.08235437870026,red,1,NaN,870.287525733335,845.121732464271,NaN,NaN,870.287525733335,845.121732464271,1045.12173246427,529.712474266665,729.712474266665,354.878267535729,554.878267535729,670.287525733335,0,0,0,0,4,5,3,5,NaN,NaN,vertical,vertical,horizontal,vertical,none,none
1a,5,100113,1,35,35,21,F,NA,variable,heterogeneous,4,present,0.0326650142669678,1,vertical,vertical,1,0.964706969261169,red,2,4,1008.88377129369,746.261991269517,591.116228706307,453.738008730483,653.738008730483,808.883771293693,1008.88377129369,746.261991269517,946.261991269517,391.116228706307,591.116228706307,453.738008730483,0,0,0,0,3,4,6,5,NaN,NaN,vertical,vertical,vertical,vertical,none,none
1a,5,100113,1,36,36,21,F,NA,variable,heterogeneous,5,absent,1.67025899887085,1,vertical,vertical,1,0.847059559822082,green,5,NaN,567.045908301137,703.717843984329,NaN,NaN,826.654758133252,853.60308331891,1049.42763818712,653.017481158529,927.5,379.163522034968,629.371695378491,410.498069503264,567.045908301137,703.717843984329,0,0,0,3,3,6,4,NaN,vertical,horizontal,horizontal,vertical,vertical,none
1a,5,100113,1,37,37,21,F,NA,variable,heterogeneous,6,present,1.07031393051147,1,horizontal,horizontal,1,0.717647409439087,red,1,5,853.017481158529,849.42763818712,557.480588344736,521.200666434388,853.017481158529,849.42763818712,1042.51941165526,678.799333565612,989.501930496736,429.371695378491,746.982518841471,350.57236181288,557.480588344736,521.200666434388,610.498069503264,770.628304621509,4,5,6,3,0,0,horizontal,vertical,horizontal,horizontal,horizontal,vertical
1a,5,100113,1,38,38,21,F,NA,variable,heterogeneous,5,present,1.95407700538635,1,vertical,vertical,1,0.705882668495178,red,5,2,572.793336331966,715.767577433584,1051.86052685176,639.890788585259,839.890788585259,851.86052685176,1051.86052685176,639.890788585259,915.767577433584,372.793336331966,619.68777079743,419.68777079743,572.793336331966,715.767577433584,0,0,0,0,6,3,4,NaN,vertical,horizontal,horizontal,vertical,vertical,none
1a,5,100113,1,39,39,21,F,NA,variable,heterogeneous,6,absent,1.06615209579468,1,vertical,vertical,1,0.835294818878174,red,2,NaN,1054.96116226488,604.450363641507,NaN,NaN,923.626453162816,823.028025320546,1054.96116226488,604.450363641507,931.334709102064,381.422338320961,676.373546837184,376.971974679454,545.03883773512,595.549636358493,668.665290897936,818.577661679039,6,4,0,3,6,0,horizontal,vertical,vertical,horizontal,vertical,horizontal
1a,5,100113,1,40,40,21,F,NA,variable,heterogeneous,5,absent,0.641737937927246,1,vertical,vertical,1,0.705882668495178,red,3,NaN,907.767656743878,368.891514305654,NaN,NaN,848.656293821019,850.314931779154,1053.09926866854,631.076682568313,907.767656743878,368.891514305654,613.504806087112,426.090418184063,576.971974679454,723.626453162816,0,0,5,3,4,0,6,NaN,horizontal,horizontal,vertical,horizontal,vertical,none
1a,5,100113,1,41,41,21,F,NA,variable,heterogeneous,4,present,0.927552223205566,0,vertical,horizontal,1,0.635294222831726,green,4,2,570.807518193712,711.784642431215,1029.19248180629,488.215357568785,911.784642431215,829.192481806288,1029.19248180629,488.215357568785,688.215357568785,370.807518193712,570.807518193712,711.784642431215,0,0,0,0,3,5,0,4,NaN,NaN,vertical,horizontal,horizontal,vertical,none,none
1a,5,100113,1,42,42,21,F,NA,variable,heterogeneous,4,absent,1.63099408149719,1,vertical,vertical,1,1.04706015586853,red,1,NaN,808.899371659138,854.844660889869,NaN,NaN,808.899371659138,854.844660889869,1054.84466088987,591.100628340862,791.100628340862,345.155339110131,545.155339110131,608.899371659138,0,0,0,0,4,5,6,6,NaN,NaN,vertical,vertical,vertical,vertical,none,none
1a,5,100113,1,43,43,21,F,NA,variable,heterogeneous,5,present,1.51425790786743,1,vertical,vertical,1,0.729412150382996,green,2,1,977.137884467044,783.431649086356,680.284751489598,825.151636179026,680.284751489598,825.151636179026,977.137884467044,783.431649086356,1029.19248180629,488.215357568785,764.510859255183,347.4816424709,548.874022981887,555.719714694933,0,0,0,4,3,5,3,NaN,vertical,vertical,vertical,vertical,vertical,none
1a,5,100113,1,44,44,21,F,NA,variable,heterogeneous,4,absent,NaN,0,horizontal,none,0,0.858824300765991,red,1,NaN,777.775285599347,854.029648013395,NaN,NaN,777.775285599347,854.029648013395,1054.0296480134,622.224714400653,822.224714400653,345.970351986605,545.970351986605,577.775285599347,0,0,0,0,4,3,0,5,NaN,NaN,horizontal,horizontal,vertical,horizontal,none,none
1a,5,100113,1,45,45,21,F,NA,variable,heterogeneous,5,present,0.88191294670105,1,horizontal,horizontal,1,0.788235855102539,red,3,5,949.885239334581,393.700666434388,557.480588344736,678.799333565612,800,855,1042.51941165526,678.799333565612,949.885239334581,393.700666434388,650.114760665419,393.700666434388,557.480588344736,678.799333565612,0,0,3,0,4,6,5,NaN,vertical,vertical,horizontal,vertical,vertical,none
1a,5,100113,1,46,46,21,F,NA,variable,heterogeneous,3,absent,1.43358898162842,1,horizontal,horizontal,1,1.08235437870026,red,1,NaN,632.704947607421,792.450942956807,NaN,NaN,632.704947607421,792.450942956807,1050.31493177915,648.656293821019,716.980120613425,358.892763222174,0,0,0,0,0,0,4,0,3,NaN,NaN,NaN,horizontal,vertical,horizontal,none,none,none
1a,5,100113,1,47,47,21,F,NA,variable,heterogeneous,4,absent,1.92435002326965,1,vertical,vertical,1,0.905883264541626,green,4,NaN,588.595418998464,742.594190385041,NaN,NaN,942.594190385041,811.404581001536,1011.40458100154,457.40580961496,657.405809614959,388.595418998464,588.595418998464,742.594190385041,0,0,0,0,3,5,3,4,NaN,NaN,horizontal,vertical,vertical,vertical,none,none
1a,5,100113,1,48,48,21,F,NA,variable,heterogeneous,3,absent,1.37750005722046,1,horizontal,horizontal,1,0.729412150382996,green,3,NaN,601.827779828472,439.523300282291,NaN,NaN,760.109211414741,851.86052685176,1038.06300875679,508.616172865948,601.827779828472,439.523300282291,0,0,0,0,0,0,6,6,4,NaN,NaN,NaN,vertical,horizontal,horizontal,none,none,none
1a,5,100113,1,49,49,21,F,NA,variable,heterogeneous,3,present,1.07496905326843,1,vertical,vertical,1,1.08235437870026,green,3,1,545.970351986605,577.775285599347,907.767656743878,831.108485694346,907.767656743878,831.108485694346,946.261991269517,391.116228706307,545.970351986605,577.775285599347,0,0,0,0,0,0,0,3,4,NaN,NaN,NaN,vertical,horizontal,vertical,none,none,none
1a,5,100113,1,50,50,21,F,NA,variable,heterogeneous,4,present,NaN,0,horizontal,none,0,0.6,green,2,3,1027.20666366803,484.232422566416,684.232422566416,372.793336331966,915.767577433584,827.206663668034,1027.20666366803,484.232422566416,684.232422566416,372.793336331966,572.793336331966,715.767577433584,0,0,0,0,5,4,3,6,NaN,NaN,vertical,horizontal,vertical,horizontal,none,none
1a,5,100113,1,51,51,21,F,NA,variable,heterogeneous,3,present,1.07981204986572,1,vertical,vertical,1,0.941177487373352,green,2,1,1049.42763818712,653.017481158529,629.371695378491,789.501930496736,629.371695378491,789.501930496736,1049.42763818712,653.017481158529,721.200666434388,357.480588344736,0,0,0,0,0,0,5,4,5,NaN,NaN,NaN,horizontal,vertical,horizontal,none,none,none
1a,5,100113,1,52,52,21,F,NA,variable,heterogeneous,5,absent,1.72695016860962,1,horizontal,horizontal,1,1.07058963775635,red,2,NaN,1048.46436652023,657.362518857686,NaN,NaN,822.224714400653,854.029648013395,1048.46436652023,657.362518857686,931.334709102064,381.422338320961,632.704947607421,407.549057043193,565.271262369628,699.636437764765,0,0,0,4,6,6,3,NaN,vertical,horizontal,vertical,horizontal,horizontal,none
1a,5,100113,1,53,53,21,F,NA,variable,heterogeneous,4,absent,1.20545792579651,1,horizontal,horizontal,1,0.800000596046448,green,3,NaN,661.117046071168,386.139005173917,NaN,NaN,938.882953928832,813.860994826083,1013.86099482608,461.117046071168,661.117046071168,386.139005173917,586.139005173917,738.882953928832,0,0,0,0,6,5,4,5,NaN,NaN,vertical,vertical,horizontal,horizontal,none,none
1a,5,100113,1,54,54,21,F,NA,variable,heterogeneous,6,present,1.44298100471497,1,vertical,vertical,1,0.847059559822082,green,5,2,545.970351986605,577.775285599347,1054.0296480134,622.224714400653,907.767656743878,831.108485694346,1054.0296480134,622.224714400653,946.261991269517,391.116228706307,692.232343256122,368.891514305654,545.970351986605,577.775285599347,653.738008730483,808.883771293693,0,6,5,3,4,6,horizontal,horizontal,horizontal,horizontal,vertical,vertical
1a,5,100113,1,55,55,21,F,NA,variable,heterogeneous,6,present,1.1171669960022,1,horizontal,horizontal,1,0.670588445663452,green,5,2,668.665290897936,381.422338320961,931.334709102064,818.577661679039,676.373546837184,823.028025320546,931.334709102064,818.577661679039,1054.96116226488,595.549636358493,923.626453162816,376.971974679454,668.665290897936,381.422338320961,545.03883773512,604.450363641507,5,6,3,5,4,6,horizontal,vertical,vertical,vertical,horizontal,horizontal
1a,5,100113,1,56,56,21,F,NA,variable,heterogeneous,6,present,1.13275408744812,1,vertical,vertical,1,0.647058963775635,red,3,4,967.295052392579,407.549057043193,716.980120613425,358.892763222174,883.019879386575,841.107236777826,1050.31493177915,648.656293821019,967.295052392579,407.549057043193,716.980120613425,358.892763222174,549.685068220846,551.343706178981,632.704947607421,792.450942956807,3,0,4,3,5,5,vertical,vertical,vertical,horizontal,vertical,vertical
1a,5,100113,1,57,57,21,F,NA,variable,heterogeneous,6,absent,1.1642849445343,1,horizontal,horizontal,1,1.03529541492462,red,5,NaN,668.665290897936,381.422338320961,NaN,NaN,676.373546837184,823.028025320546,931.334709102064,818.577661679039,1054.96116226488,595.549636358493,923.626453162816,376.971974679454,668.665290897936,381.422338320961,545.03883773512,604.450363641507,0,5,3,6,4,6,vertical,vertical,horizontal,horizontal,horizontal,horizontal
1a,5,100113,1,58,58,21,F,NA,variable,heterogeneous,3,present,1.14130401611328,1,vertical,vertical,1,1.07058963775635,red,1,2,986.495193912888,773.909581815937,857.362518857686,351.535633479765,986.495193912888,773.909581815937,857.362518857686,351.535633479765,556.142287229426,674.554784704298,0,0,0,0,0,0,4,6,3,NaN,NaN,NaN,vertical,horizontal,horizontal,none,none,none
1a,5,100113,1,59,59,21,F,NA,variable,heterogeneous,4,present,1.34151411056519,1,vertical,vertical,1,0.647058963775635,red,1,3,755.719714694933,851.125977018113,844.280285305067,348.874022981887,755.719714694933,851.125977018113,1051.12597701811,644.280285305067,844.280285305067,348.874022981887,548.874022981887,555.719714694933,0,0,0,0,4,6,0,3,NaN,NaN,vertical,vertical,vertical,horizontal,none,none
1a,5,100113,1,60,60,21,F,NA,variable,heterogeneous,5,present,1.28141903877258,1,vertical,vertical,1,0.658823704719543,red,2,1,1054.0296480134,622.224714400653,857.362518857686,848.464366520235,857.362518857686,848.464366520235,1054.0296480134,622.224714400653,899.636437764765,365.271262369628,607.549057043193,432.704947607421,581.422338320961,731.334709102064,0,0,0,4,5,5,6,NaN,vertical,vertical,horizontal,vertical,vertical,none
1a,5,100113,1,61,61,21,F,NA,variable,heterogeneous,6,absent,1.81647181510925,1,vertical,vertical,1,0.635294222831726,green,3,NaN,1039.62161830041,512.784863451954,NaN,NaN,755.719714694933,851.125977018113,995.341332995339,763.910840470068,1039.62161830041,512.784863451954,844.280285305067,348.874022981887,604.658667004661,436.089159529932,560.378381699593,687.215136548046,3,3,4,6,5,0,horizontal,horizontal,vertical,horizontal,vertical,vertical
1a,5,100113,1,62,62,21,F,NA,variable,heterogeneous,6,absent,1.52519702911377,1,vertical,vertical,1,0.611764740943909,red,6,NaN,581.422338320961,731.334709102064,NaN,NaN,804.450363641507,854.96116226488,1023.02802532055,723.626453162816,1018.57766167904,468.665290897936,795.549636358493,345.03883773512,576.971974679454,476.373546837184,581.422338320961,731.334709102064,3,0,5,6,6,4,horizontal,horizontal,vertical,vertical,horizontal,vertical
1a,5,100113,1,63,63,21,F,NA,variable,heterogeneous,5,present,NaN,0,horizontal,none,0,1.0000011920929,red,1,4,817.787900804752,854.378832816255,636.089159529932,404.658667004661,817.787900804752,854.378832816255,1047.42541020038,661.690083377915,935.129412379467,383.747735480111,636.089159529932,404.658667004661,563.568117085469,695.524681321058,0,0,4,3,6,5,3,NaN,horizontal,vertical,vertical,horizontal,horizontal,none
1a,5,100113,1,64,64,21,F,NA,variable,heterogeneous,4,present,1.47524213790894,1,vertical,vertical,1,0.964706969261169,green,1,4,967.295052392579,792.450942956807,607.549057043193,767.295052392579,967.295052392579,792.450942956807,992.450942956807,432.704947607421,632.704947607421,407.549057043193,607.549057043193,767.295052392579,0,0,0,0,4,6,5,3,NaN,NaN,vertical,vertical,horizontal,vertical,none,none
1a,5,100113,2,1,65,21,F,NA,variable,heterogeneous,3,present,0.943028926849365,1,vertical,vertical,1,0.682353186607361,red,2,3,949.885239334581,393.700666434388,546.39691668109,573.345241866748,903.717843984329,832.954091698863,949.885239334581,393.700666434388,546.39691668109,573.345241866748,0,0,0,0,0,0,3,4,5,NaN,NaN,NaN,vertical,vertical,vertical,none,none,none
1a,5,100113,2,2,66,21,F,NA,variable,heterogeneous,6,absent,1.22304081916809,1,horizontal,horizontal,1,0.647058963775635,red,6,NaN,626.090418184063,786.495193912888,NaN,NaN,874.554784704298,843.857712770574,1048.46436652023,657.362518857686,973.909581815937,413.504806087112,725.445215295702,356.142287229426,551.535633479765,542.637481142314,626.090418184063,786.495193912888,0,5,3,6,0,4,vertical,horizontal,horizontal,vertical,vertical,horizontal
1a,5,100113,2,3,67,21,F,NA,variable,heterogeneous,3,absent,0.70068883895874,1,vertical,vertical,1,0.847059559822082,green,3,NaN,764.510859255183,347.4816424709,NaN,NaN,599.057257830286,756.993676208043,1036.43188291453,695.524681321058,764.510859255183,347.4816424709,0,0,0,0,0,0,3,6,4,NaN,NaN,NaN,vertical,horizontal,vertical,none,none,none
1a,5,100113,2,4,68,21,F,NA,variable,heterogeneous,4,absent,1.07305002212524,1,vertical,vertical,1,0.705882668495178,red,1,NaN,891.383827134052,838.063008756786,NaN,NaN,891.383827134052,838.063008756786,1038.06300875679,508.616172865948,708.616172865948,361.936991243214,561.936991243214,691.383827134052,0,0,0,0,4,6,3,0,NaN,NaN,vertical,horizontal,horizontal,horizontal,none,none
1a,5,100113,2,5,69,21,F,NA,variable,heterogeneous,3,absent,1.50382399559021,1,horizontal,horizontal,1,1.04706015586853,red,3,NaN,622.862115532956,416.568350913644,NaN,NaN,729.712474266665,845.121732464271,1047.42541020038,538.309916622085,622.862115532956,416.568350913644,0,0,0,0,0,0,3,0,4,NaN,NaN,NaN,horizontal,horizontal,horizontal,none,none,none
1a,5,100113,2,6,70,21,F,NA,variable,heterogeneous,6,absent,1.19971704483032,1,vertical,vertical,1,0.69411792755127,red,5,NaN,551.535633479765,542.637481142314,NaN,NaN,874.554784704298,843.857712770574,1048.46436652023,657.362518857686,973.909581815937,413.504806087112,725.445215295702,356.142287229426,551.535633479765,542.637481142314,626.090418184063,786.495193912888,0,5,3,5,4,0,horizontal,vertical,vertical,horizontal,vertical,vertical
1a,5,100113,2,7,71,21,F,NA,variable,heterogeneous,6,present,1.36679410934448,0,vertical,horizontal,1,0.741176891326904,green,1,2,768.923317431687,853.099268668537,1003.65205506206,753.462830903772,768.923317431687,853.099268668537,1003.65205506206,753.462830903772,1034.72873763037,500.363562235235,831.076682568313,346.900731331463,596.34794493794,446.537169096228,565.271262369628,699.636437764765,4,0,6,0,3,5,vertical,horizontal,vertical,vertical,vertical,horizontal
1a,5,100113,2,8,72,21,F,NA,variable,heterogeneous,3,present,1.09631395339966,1,horizontal,horizontal,1,0.69411792755127,red,2,1,1025.15163617903,480.284751489598,791.100628340862,854.844660889869,791.100628340862,854.844660889869,1025.15163617903,480.284751489598,583.747735480111,464.870587620533,0,0,0,0,0,0,5,4,3,NaN,NaN,NaN,horizontal,horizontal,horizontal,none,none,none
1a,5,100113,2,9,73,21,F,NA,variable,heterogeneous,6,present,1.43706703186035,1,horizontal,horizontal,1,0.729412150382996,green,5,6,545.349468637584,586.654331158049,661.117046071168,813.860994826083,915.767577433584,827.206663668034,1054.65053136242,613.345668841951,938.882953928832,386.139005173917,684.232422566416,372.793336331966,545.349468637584,586.654331158049,661.117046071168,813.860994826083,0,6,5,3,4,3,vertical,horizontal,horizontal,vertical,horizontal,vertical
1a,5,100113,2,10,74,21,F,NA,variable,heterogeneous,5,absent,1.85436487197876,1,horizontal,horizontal,1,1.02353067398071,red,2,NaN,1046.31108570371,534.001143498857,NaN,NaN,938.882953928832,813.860994826083,1046.31108570371,534.001143498857,813.345668841951,345.349468637584,561.936991243214,508.616172865948,639.523300282292,798.172220171528,0,0,5,4,0,3,5,NaN,vertical,horizontal,vertical,horizontal,horizontal,none
1a,5,100113,2,11,75,21,F,NA,variable,heterogeneous,6,present,0.971591949462891,1,horizontal,horizontal,1,0.6,red,3,1,989.501930496736,429.371695378491,853.017481158529,849.42763818712,853.017481158529,849.42763818712,1042.51941165526,678.799333565612,989.501930496736,429.371695378491,746.982518841471,350.57236181288,557.480588344736,521.200666434388,610.498069503264,770.628304621509,3,0,4,6,5,5,horizontal,horizontal,horizontal,vertical,horizontal,vertical
1a,5,100113,2,12,76,21,F,NA,variable,heterogeneous,4,absent,1.50677585601807,1,vertical,vertical,1,0.976471710205078,green,2,NaN,1051.12597701811,555.719714694933,NaN,NaN,844.280285305067,851.125977018113,1051.12597701811,555.719714694933,755.719714694933,348.874022981887,548.874022981887,644.280285305067,0,0,0,0,6,4,6,3,NaN,NaN,horizontal,vertical,vertical,horizontal,none,none
1a,5,100113,2,13,77,21,F,NA,variable,heterogeneous,3,present,0.699767112731934,1,horizontal,horizontal,1,0.729412150382996,green,2,3,949.885239334581,393.700666434388,546.39691668109,573.345241866748,903.717843984329,832.954091698863,949.885239334581,393.700666434388,546.39691668109,573.345241866748,0,0,0,0,0,0,0,4,6,NaN,NaN,NaN,horizontal,horizontal,vertical,none,none,none
1a,5,100113,2,14,78,21,F,NA,variable,heterogeneous,3,present,1.0954270362854,1,vertical,vertical,1,1.08235437870026,green,2,1,1052.5183575291,635.489140744817,643.006323791957,800.942742169714,643.006323791957,800.942742169714,1052.5183575291,635.489140744817,704.475318678942,363.568117085469,0,0,0,0,0,0,3,4,3,NaN,NaN,NaN,vertical,vertical,vertical,none,none,none
1a,5,100113,2,15,79,21,F,NA,variable,heterogeneous,5,present,1.15534019470215,1,vertical,vertical,1,1.08235437870026,red,4,2,561.936991243214,508.616172865948,1046.31108570371,534.001143498857,938.882953928832,813.860994826083,1046.31108570371,534.001143498857,813.345668841951,345.349468637584,561.936991243214,508.616172865948,639.523300282292,798.172220171528,0,0,5,5,6,4,6,NaN,vertical,vertical,vertical,vertical,vertical,none
1a,5,100113,2,16,80,21,F,NA,variable,heterogeneous,4,absent,1.55676794052124,1,horizontal,horizontal,1,0.705882668495178,red,3,NaN,632.704947607421,407.549057043193,NaN,NaN,967.295052392579,792.450942956807,992.450942956807,432.704947607421,632.704947607421,407.549057043193,607.549057043193,767.295052392579,0,0,0,0,3,0,4,5,NaN,NaN,horizontal,vertical,horizontal,horizontal,none,none
1a,5,100113,2,17,81,21,F,NA,variable,heterogeneous,6,present,0.653234958648682,1,vertical,vertical,1,0.858824300765991,green,4,5,844.280285305067,348.874022981887,604.658667004661,436.089159529932,755.719714694933,851.125977018113,995.341332995339,763.910840470068,1039.62161830041,512.784863451954,844.280285305067,348.874022981887,604.658667004661,436.089159529932,560.378381699593,687.215136548046,3,6,0,4,5,3,vertical,vertical,vertical,vertical,vertical,horizontal
1a,5,100113,2,18,82,21,F,NA,variable,heterogeneous,3,present,1.09569191932678,1,horizontal,horizontal,1,1.05882489681244,green,1,2,668.665290897936,818.577661679039,1054.96116226488,604.450363641507,668.665290897936,818.577661679039,1054.96116226488,604.450363641507,676.373546837184,376.971974679454,0,0,0,0,0,0,4,5,3,NaN,NaN,NaN,horizontal,horizontal,vertical,none,none,none
1a,5,100113,2,19,83,21,F,NA,variable,heterogeneous,6,absent,1.47457480430603,1,vertical,vertical,1,1.03529541492462,red,2,NaN,1047.42541020038,661.690083377915,NaN,NaN,870.287525733335,845.121732464271,1047.42541020038,661.690083377915,977.137884467044,416.568350913644,729.712474266665,354.878267535729,552.574589799621,538.309916622085,622.862115532956,783.431649086356,5,4,3,0,0,6,vertical,vertical,vertical,horizontal,vertical,vertical
1a,5,100113,2,20,84,21,F,NA,variable,heterogeneous,4,absent,1.42050886154175,1,vertical,vertical,1,0.811765336990356,green,1,NaN,668.665290897936,818.577661679039,NaN,NaN,668.665290897936,818.577661679039,1018.57766167904,731.334709102064,931.334709102064,381.422338320961,581.422338320961,468.665290897936,0,0,0,0,4,3,0,6,NaN,NaN,vertical,horizontal,horizontal,vertical,none,none
1a,5,100113,2,21,85,21,F,NA,variable,heterogeneous,3,absent,0.60639214515686,1,horizontal,horizontal,1,0.670588445663452,green,2,NaN,804.450363641507,345.03883773512,NaN,NaN,1018.57766167904,731.334709102064,804.450363641507,345.03883773512,576.971974679454,723.626453162816,0,0,0,0,0,0,3,4,0,NaN,NaN,NaN,horizontal,horizontal,vertical,none,none,none
1a,5,100113,2,22,86,21,F,NA,variable,heterogeneous,6,absent,1.52875995635986,1,vertical,vertical,1,0.905883264541626,green,2,NaN,1013.86099482608,738.882953928832,NaN,NaN,786.654331158049,854.650531362416,1013.86099482608,738.882953928832,1027.20666366803,484.232422566416,813.345668841951,345.349468637584,586.139005173917,461.117046071168,572.793336331966,715.767577433584,6,4,3,5,0,5,horizontal,vertical,vertical,vertical,vertical,vertical
1a,5,100113,2,23,87,21,F,NA,variable,heterogeneous,3,absent,0.638020038604736,1,vertical,vertical,1,0.917648005485535,green,3,NaN,586.139005173917,461.117046071168,NaN,NaN,786.654331158049,854.650531362416,1027.20666366803,484.232422566416,586.139005173917,461.117046071168,0,0,0,0,0,0,5,0,4,NaN,NaN,NaN,vertical,vertical,vertical,none,none,none
1a,5,100113,2,24,88,21,F,NA,variable,heterogeneous,4,present,1.24933815002441,1,horizontal,horizontal,1,0.717647409439087,red,4,3,593.700666434388,749.885239334581,650.114760665419,393.700666434388,949.885239334581,806.299333565612,1006.29933356561,450.114760665419,650.114760665419,393.700666434388,593.700666434388,749.885239334581,0,0,0,0,3,5,6,4,NaN,NaN,vertical,vertical,horizontal,horizontal,none,none
1a,5,100113,2,25,89,21,F,NA,variable,heterogeneous,5,present,1.10729122161865,1,vertical,vertical,1,1.03529541492462,green,1,3,822.224714400653,854.029648013395,931.334709102064,381.422338320961,822.224714400653,854.029648013395,1048.46436652023,657.362518857686,931.334709102064,381.422338320961,632.704947607421,407.549057043193,565.271262369628,699.636437764765,0,0,4,0,6,6,0,NaN,vertical,horizontal,vertical,vertical,vertical,none
1a,5,100113,2,26,90,21,F,NA,variable,heterogeneous,4,present,1.09972596168518,1,vertical,vertical,1,0.705882668495178,green,2,3,1029.19248180629,488.215357568785,688.215357568785,370.807518193712,911.784642431215,829.192481806288,1029.19248180629,488.215357568785,688.215357568785,370.807518193712,570.807518193712,711.784642431215,0,0,0,0,3,4,5,0,NaN,NaN,vertical,vertical,horizontal,horizontal,none,none
1a,5,100113,2,27,91,21,F,NA,variable,heterogeneous,3,absent,0.839906930923462,1,horizontal,horizontal,1,0.705882668495178,red,1,NaN,953.462830903772,803.65205506206,NaN,NaN,953.462830903772,803.65205506206,899.636437764765,365.271262369628,546.900731331463,631.076682568313,0,0,0,0,0,0,4,6,0,NaN,NaN,NaN,horizontal,vertical,horizontal,none,none,none
1a,5,100113,2,28,92,21,F,NA,variable,heterogeneous,4,present,0.939075946807861,1,horizontal,horizontal,1,1.09411911964417,green,4,1,601.827779828472,760.476699717708,960.476699717708,798.172220171528,960.476699717708,798.172220171528,998.172220171528,439.523300282291,639.523300282292,401.827779828472,601.827779828472,760.476699717708,0,0,0,0,5,0,3,4,NaN,NaN,vertical,vertical,vertical,horizontal,none,none
1a,5,100113,2,29,93,21,F,NA,variable,heterogeneous,3,present,0.812182903289795,1,horizontal,horizontal,1,0.729412150382996,red,1,2,992.450942956807,767.295052392579,848.656293821019,349.685068220846,992.450942956807,767.295052392579,848.656293821019,349.685068220846,558.892763222174,683.019879386575,0,0,0,0,0,0,4,0,5,NaN,NaN,NaN,horizontal,vertical,horizontal,none,none,none
1a,5,100113,2,30,94,21,F,NA,variable,heterogeneous,4,present,1.30464792251587,0,horizontal,vertical,1,0.988236451148987,red,2,4,1041.10723677783,683.019879386575,558.892763222174,516.980120613425,716.980120613425,841.107236777826,1041.10723677783,683.019879386575,883.019879386575,358.892763222174,558.892763222174,516.980120613425,0,0,0,0,0,4,3,0,NaN,NaN,horizontal,horizontal,horizontal,vertical,none,none
1a,5,100113,2,31,95,21,F,NA,variable,heterogeneous,6,absent,1.8335919380188,1,horizontal,horizontal,1,0.729412150382996,red,1,NaN,874.554784704298,843.857712770574,NaN,NaN,874.554784704298,843.857712770574,1048.46436652023,657.362518857686,973.909581815937,413.504806087112,725.445215295702,356.142287229426,551.535633479765,542.637481142314,626.090418184063,786.495193912888,4,3,0,3,5,0,horizontal,vertical,vertical,vertical,vertical,horizontal
1a,5,100113,2,32,96,21,F,NA,variable,heterogeneous,5,present,1.43210387229919,1,horizontal,horizontal,1,0.894118523597717,green,5,1,613.504806087112,773.909581815937,907.767656743878,831.108485694346,907.767656743878,831.108485694346,1053.09926866854,568.923317431687,848.656293821019,349.685068220846,576.971974679454,476.373546837184,613.504806087112,773.909581815937,0,0,3,0,0,3,4,NaN,horizontal,vertical,vertical,horizontal,horizontal,none
1a,5,100113,2,33,97,21,F,NA,variable,heterogeneous,5,absent,1.21159911155701,1,vertical,vertical,1,0.729412150382996,red,1,NaN,734.001143498857,846.311085703712,NaN,NaN,734.001143498857,846.311085703712,1013.86099482608,738.882953928832,998.172220171528,439.523300282291,708.616172865948,361.936991243214,545.349468637584,613.345668841951,0,0,4,6,3,0,3,NaN,vertical,horizontal,horizontal,vertical,horizontal,none
1a,5,100113,2,34,98,21,F,NA,variable,heterogeneous,5,present,1.1216778755188,1,vertical,vertical,1,1.08235437870026,red,3,1,983.431649086356,422.862115532956,755.719714694933,851.125977018113,755.719714694933,851.125977018113,1025.15163617903,719.715248510402,983.431649086356,422.862115532956,688.215357568785,370.807518193712,547.481642470899,635.489140744817,0,0,3,5,4,0,0,NaN,vertical,horizontal,vertical,horizontal,horizontal,none
1a,5,100113,2,35,99,21,F,NA,variable,heterogeneous,5,absent,1.09113192558289,1,vertical,vertical,1,0.741176891326904,red,2,NaN,1013.86099482608,738.882953928832,NaN,NaN,734.001143498857,846.311085703712,1013.86099482608,738.882953928832,998.172220171528,439.523300282291,708.616172865948,361.936991243214,545.349468637584,613.345668841951,0,0,0,4,0,5,6,NaN,vertical,vertical,vertical,vertical,vertical,none
1a,5,100113,2,36,100,21,F,NA,variable,heterogeneous,5,absent,0.729751110076904,1,horizontal,horizontal,1,1.03529541492462,green,4,NaN,700.363562235235,365.271262369628,NaN,NaN,742.637481142314,848.464366520235,1018.57766167904,731.334709102064,992.450942956807,432.704947607421,700.363562235235,365.271262369628,545.970351986605,622.224714400653,0,0,6,6,0,4,0,NaN,horizontal,horizontal,horizontal,horizontal,horizontal,none
1a,5,100113,2,37,101,21,F,NA,variable,heterogeneous,5,absent,1.4162769317627,1,vertical,vertical,1,0.788235855102539,green,5,NaN,610.498069503264,770.628304621509,NaN,NaN,903.717843984329,832.954091698863,1053.60308331891,573.345241866748,853.017481158529,350.57236181288,579.163522034968,472.5,610.498069503264,770.628304621509,0,0,5,3,6,5,4,NaN,vertical,horizontal,vertical,horizontal,vertical,none
1a,5,100113,2,38,102,21,F,NA,variable,heterogeneous,5,absent,1.01268100738525,1,vertical,vertical,1,0.788235855102539,green,3,NaN,1023.02802532055,476.373546837184,NaN,NaN,692.232343256122,831.108485694346,986.495193912888,773.909581815937,1023.02802532055,476.373546837184,751.343706178981,349.685068220846,546.900731331463,568.923317431687,0,0,5,6,4,6,3,NaN,horizontal,vertical,vertical,vertical,vertical,none
1a,5,100113,2,39,103,21,F,NA,variable,heterogeneous,4,present,1.04239988327026,1,horizontal,horizontal,1,0.858824300765991,green,1,4,729.712474266665,845.121732464271,554.878267535729,529.712474266665,729.712474266665,845.121732464271,1045.12173246427,670.287525733335,870.287525733335,354.878267535729,554.878267535729,529.712474266665,0,0,0,0,4,0,5,0,NaN,NaN,horizontal,vertical,horizontal,horizontal,none,none
1a,5,100113,2,40,104,21,F,NA,variable,heterogeneous,4,absent,0.735969066619873,1,horizontal,horizontal,1,0.635294222831726,green,1,NaN,734.001143498857,846.311085703712,NaN,NaN,734.001143498857,846.311085703712,1046.31108570371,665.998856501143,865.998856501143,353.688914296288,553.688914296288,534.001143498857,0,0,0,0,4,0,3,6,NaN,NaN,horizontal,horizontal,horizontal,vertical,none,none
1a,5,100113,2,41,105,21,F,NA,variable,heterogeneous,4,present,0.723335027694702,1,vertical,vertical,1,0.823530077934265,green,4,1,593.700666434388,450.114760665419,650.114760665419,806.299333565612,650.114760665419,806.299333565612,1006.29933356561,749.885239334581,949.885239334581,393.700666434388,593.700666434388,450.114760665419,0,0,0,0,5,6,5,4,NaN,NaN,vertical,vertical,vertical,vertical,none,none
1a,5,100113,2,42,106,21,F,NA,variable,heterogeneous,6,present,1.04705595970154,1,horizontal,horizontal,1,0.858824300765991,green,6,1,616.568350913644,777.137884467044,861.690083377915,847.425410200379,861.690083377915,847.425410200379,1045.12173246427,670.287525733335,983.431649086356,422.862115532956,738.309916622085,352.574589799621,554.878267535729,529.712474266665,616.568350913644,777.137884467044,0,3,6,3,5,4,vertical,horizontal,horizontal,vertical,vertical,horizontal
1a,5,100113,2,43,107,21,F,NA,variable,heterogeneous,3,absent,1.27074003219604,1,vertical,vertical,1,0.917648005485535,red,2,NaN,804.450363641507,345.03883773512,NaN,NaN,1018.57766167904,731.334709102064,804.450363641507,345.03883773512,576.971974679454,723.626453162816,0,0,0,0,0,0,0,4,3,NaN,NaN,NaN,horizontal,vertical,vertical,none,none,none
1a,5,100113,2,44,108,21,F,NA,variable,heterogeneous,5,present,1.13001894950867,1,horizontal,horizontal,1,0.882353782653809,red,1,2,680.284751489598,825.151636179026,977.137884467044,783.431649086356,680.284751489598,825.151636179026,977.137884467044,783.431649086356,1029.19248180629,488.215357568785,764.510859255183,347.4816424709,548.874022981887,555.719714694933,0,0,4,3,3,6,5,NaN,horizontal,horizontal,horizontal,horizontal,vertical,none
1a,5,100113,2,45,109,21,F,NA,variable,heterogeneous,4,present,0.843048095703125,1,vertical,vertical,1,0.705882668495178,red,3,2,831.076682568313,346.900731331463,1053.09926866854,631.076682568313,768.923317431687,853.099268668537,1053.09926866854,631.076682568313,831.076682568313,346.900731331463,546.900731331463,568.923317431687,0,0,0,0,5,6,4,5,NaN,NaN,vertical,vertical,vertical,vertical,none,none
1a,5,100113,2,46,110,21,F,NA,variable,heterogeneous,6,present,0.785060167312622,1,horizontal,horizontal,1,0.658823704719543,red,3,2,927.5,379.163522034968,1055,600,927.5,820.836477965032,1055,600,927.5,379.163522034968,672.5,379.163522034968,545,600,672.5,820.836477965032,0,6,4,3,0,6,vertical,vertical,horizontal,horizontal,horizontal,horizontal
1a,5,100113,2,47,111,21,F,NA,variable,heterogeneous,5,absent,1.34066700935364,1,horizontal,horizontal,1,0.77647111415863,red,3,NaN,1039.62161830041,512.784863451954,NaN,NaN,657.405809614959,811.404581001536,956.993676208043,800.942742169714,1039.62161830041,512.784863451954,791.100628340862,345.155339110131,554.878267535729,529.712474266665,0,0,3,5,4,6,6,NaN,vertical,vertical,horizontal,vertical,horizontal,none
1a,5,100113,2,48,112,21,F,NA,variable,heterogeneous,5,absent,1.65210294723511,1,horizontal,horizontal,1,0.823530077934265,green,5,NaN,581.422338320961,731.334709102064,NaN,NaN,857.362518857686,848.464366520235,1054.0296480134,622.224714400653,899.636437764765,365.271262369628,607.549057043193,432.704947607421,581.422338320961,731.334709102064,0,0,6,0,5,5,4,NaN,vertical,vertical,vertical,horizontal,horizontal,none
1a,5,100113,2,49,113,21,F,NA,variable,heterogeneous,5,present,1.05451107025146,1,vertical,vertical,1,0.858824300765991,green,5,2,548.13947314824,560.109211414741,980.31222920257,780.31222920257,684.232422566416,827.206663668034,980.31222920257,780.31222920257,1027.20666366803,484.232422566416,760.109211414741,348.13947314824,548.13947314824,560.109211414741,0,0,6,5,3,0,4,NaN,vertical,horizontal,vertical,vertical,vertical,none
1a,5,100113,2,50,114,21,F,NA,variable,heterogeneous,4,absent,1.06257581710815,1,vertical,vertical,1,0.941177487373352,red,1,NaN,927.5,820.836477965032,NaN,NaN,927.5,820.836477965032,1020.83647796503,472.5,672.5,379.163522034968,579.163522034968,727.5,0,0,0,0,4,5,0,6,NaN,NaN,vertical,horizontal,horizontal,vertical,none,none
1a,5,100113,2,51,115,21,F,NA,variable,heterogeneous,3,absent,0.714769124984741,1,vertical,vertical,1,0.741176891326904,red,1,NaN,883.019879386575,841.107236777826,NaN,NaN,883.019879386575,841.107236777826,967.295052392579,407.549057043193,549.685068220846,551.343706178981,0,0,0,0,0,0,4,0,6,NaN,NaN,NaN,vertical,horizontal,vertical,none,none,none
1a,5,100113,2,52,116,21,F,NA,variable,heterogeneous,6,present,1.13544702529907,1,vertical,vertical,1,0.717647409439087,red,5,6,567.045908301137,496.282156015671,593.700666434388,749.885239334581,826.654758133252,853.60308331891,1032.95409169886,703.717843984329,1006.29933356561,450.114760665419,773.345241866748,346.39691668109,567.045908301137,496.282156015671,593.700666434388,749.885239334581,3,0,6,6,4,3,horizontal,vertical,vertical,vertical,vertical,vertical
1a,5,100113,2,53,117,21,F,NA,variable,heterogeneous,4,present,1.39297389984131,1,vertical,vertical,1,0.729412150382996,red,3,4,764.510859255183,347.4816424709,547.481642470899,635.489140744817,835.489140744817,852.518357529101,1052.5183575291,564.510859255183,764.510859255183,347.4816424709,547.481642470899,635.489140744817,0,0,0,0,3,3,4,6,NaN,NaN,horizontal,horizontal,vertical,vertical,none,none
1a,5,100113,2,54,118,21,F,NA,variable,heterogeneous,6,present,1.56295084953308,1,vertical,vertical,1,0.69411792755127,red,1,5,817.787900804752,854.378832816255,570.807518193712,488.215357568785,817.787900804752,854.378832816255,1029.19248180629,711.784642431215,1011.40458100154,457.40580961496,782.212099195248,345.621167183745,570.807518193712,488.215357568785,588.595418998464,742.594190385041,4,0,6,3,5,3,vertical,vertical,vertical,vertical,vertical,horizontal
1a,5,100113,2,55,119,21,F,NA,variable,heterogeneous,3,present,1.06687808036804,1,vertical,vertical,1,1.03529541492462,green,1,3,768.923317431687,853.099268668537,596.34794493794,446.537169096228,768.923317431687,853.099268668537,1034.72873763037,500.363562235235,596.34794493794,446.537169096228,0,0,0,0,0,0,4,3,3,NaN,NaN,NaN,vertical,horizontal,vertical,none,none,none
1a,5,100113,2,56,120,21,F,NA,variable,heterogeneous,5,present,1.47415590286255,0,horizontal,vertical,1,0.682353186607361,red,2,5,1045.12173246427,529.712474266665,643.006323791957,800.942742169714,942.594190385041,811.404581001536,1045.12173246427,529.712474266665,808.899371659138,345.155339110131,560.378381699593,512.784863451954,643.006323791957,800.942742169714,0,0,5,4,0,6,3,NaN,vertical,horizontal,horizontal,vertical,horizontal,none
1a,5,100113,2,57,121,21,F,NA,variable,heterogeneous,6,absent,0.745754957199097,1,vertical,vertical,1,0.894118523597717,green,3,NaN,927.5,379.163522034968,NaN,NaN,927.5,820.836477965032,1055,600,927.5,379.163522034968,672.5,379.163522034968,545,600,672.5,820.836477965032,6,3,4,0,3,5,horizontal,horizontal,vertical,vertical,vertical,horizontal
1a,5,100113,2,58,122,21,F,NA,variable,heterogeneous,4,absent,1.47317409515381,1,horizontal,horizontal,1,0.623529481887817,red,2,NaN,1048.46436652023,657.362518857686,NaN,NaN,742.637481142314,848.464366520235,1048.46436652023,657.362518857686,857.362518857686,351.535633479765,551.535633479765,542.637481142314,0,0,0,0,6,4,3,5,NaN,NaN,vertical,horizontal,vertical,vertical,none,none
1a,5,100113,2,59,123,21,F,NA,variable,heterogeneous,4,absent,1.15740299224854,1,horizontal,horizontal,1,0.729412150382996,green,4,NaN,545.970351986605,577.775285599347,NaN,NaN,777.775285599347,854.029648013395,1054.0296480134,622.224714400653,822.224714400653,345.970351986605,545.970351986605,577.775285599347,0,0,0,0,6,3,0,4,NaN,NaN,horizontal,vertical,horizontal,horizontal,none,none
1a,5,100113,2,60,124,21,F,NA,variable,heterogeneous,3,absent,0.66582989692688,1,horizontal,horizontal,1,0.647058963775635,green,2,NaN,963.910840470068,404.658667004661,NaN,NaN,887.215136548046,839.621618300407,963.910840470068,404.658667004661,548.874022981887,555.719714694933,0,0,0,0,0,0,6,4,0,NaN,NaN,NaN,vertical,horizontal,horizontal,none,none,none
1a,5,100113,2,61,125,21,F,NA,variable,heterogeneous,3,present,0.629924058914185,1,vertical,vertical,1,0.741176891326904,red,1,3,935.129412379467,816.252264519889,545.155339110131,608.899371659138,935.129412379467,816.252264519889,919.715248510402,374.848363820974,545.155339110131,608.899371659138,0,0,0,0,0,0,4,5,6,NaN,NaN,NaN,vertical,vertical,vertical,none,none,none
1a,5,100113,2,62,126,21,F,NA,variable,heterogeneous,6,absent,1.40642023086548,1,horizontal,horizontal,1,0.788235855102539,green,4,NaN,907.767656743878,368.891514305654,NaN,NaN,692.232343256122,831.108485694346,946.261991269517,808.883771293693,1054.0296480134,577.775285599347,907.767656743878,368.891514305654,653.738008730483,391.116228706307,545.970351986605,622.224714400653,0,5,3,4,6,6,horizontal,vertical,vertical,horizontal,horizontal,vertical
1a,5,100113,2,63,127,21,F,NA,variable,heterogeneous,5,present,1.6797091960907,0,horizontal,vertical,1,1.05882489681244,green,2,4,1049.42763818712,653.017481158529,629.371695378491,410.498069503264,826.654758133252,853.60308331891,1049.42763818712,653.017481158529,927.5,379.163522034968,629.371695378491,410.498069503264,567.045908301137,703.717843984329,0,0,3,4,3,6,0,NaN,horizontal,horizontal,horizontal,vertical,horizontal,none
1a,5,100113,2,64,128,21,F,NA,variable,heterogeneous,6,absent,0.856569051742554,1,horizontal,horizontal,1,0.964706969261169,green,3,NaN,983.431649086356,422.862115532956,NaN,NaN,861.690083377915,847.425410200379,1045.12173246427,670.287525733335,983.431649086356,422.862115532956,738.309916622085,352.574589799621,554.878267535729,529.712474266665,616.568350913644,777.137884467044,5,3,4,0,0,3,horizontal,horizontal,horizontal,horizontal,horizontal,vertical
1a,5,100113,3,1,129,21,F,NA,variable,heterogeneous,4,absent,1.05804109573364,1,vertical,vertical,1,0.835294818878174,red,4,NaN,545,600,NaN,NaN,800,855,1055,600,800,345,545,600,0,0,0,0,0,0,5,4,NaN,NaN,horizontal,vertical,horizontal,vertical,none,none
1a,5,100113,3,2,130,21,F,NA,variable,heterogeneous,5,absent,0.985356092453003,1,horizontal,horizontal,1,0.705882668495178,red,4,NaN,586.139005173917,461.117046071168,NaN,NaN,891.383827134052,838.063008756786,1054.65053136242,586.654331158049,865.998856501143,353.688914296288,586.139005173917,461.117046071168,601.827779828472,760.476699717708,0,0,0,6,5,4,5,NaN,vertical,vertical,vertical,horizontal,vertical,none
1a,5,100113,3,3,131,21,F,NA,variable,heterogeneous,4,present,0.913011074066162,1,vertical,vertical,1,0.788235855102539,red,2,3,1013.86099482608,738.882953928832,938.882953928832,386.139005173917,661.117046071168,813.860994826083,1013.86099482608,738.882953928832,938.882953928832,386.139005173917,586.139005173917,461.117046071168,0,0,0,0,0,4,3,3,NaN,NaN,vertical,vertical,vertical,horizontal,none,none
1a,5,100113,3,4,132,21,F,NA,variable,heterogeneous,4,present,0.987348079681396,1,horizontal,horizontal,1,0.800000596046448,green,2,1,1039.62161830041,687.215136548046,712.784863451954,839.621618300407,712.784863451954,839.621618300407,1039.62161830041,687.215136548046,887.215136548046,360.378381699593,560.378381699593,512.784863451954,0,0,0,0,5,4,3,6,NaN,NaN,vertical,horizontal,vertical,vertical,none,none
1a,5,100113,3,5,133,21,F,NA,variable,heterogeneous,3,present,0.725471019744873,1,horizontal,horizontal,1,0.894118523597717,red,1,2,643.006323791957,800.942742169714,1052.5183575291,635.489140744817,643.006323791957,800.942742169714,1052.5183575291,635.489140744817,704.475318678942,363.568117085469,0,0,0,0,0,0,4,0,6,NaN,NaN,NaN,horizontal,vertical,vertical,none,none,none
1a,5,100113,3,6,134,21,F,NA,variable,heterogeneous,3,absent,0.739603996276855,1,horizontal,horizontal,1,0.77647111415863,red,3,NaN,668.665290897936,381.422338320961,NaN,NaN,676.373546837184,823.028025320546,1054.96116226488,595.549636358493,668.665290897936,381.422338320961,0,0,0,0,0,0,0,6,4,NaN,NaN,NaN,vertical,vertical,horizontal,none,none,none
1a,5,100113,3,7,135,21,F,NA,variable,heterogeneous,3,absent,1.31451988220215,1,horizontal,horizontal,1,0.811765336990356,green,1,NaN,610.498069503264,770.628304621509,NaN,NaN,610.498069503264,770.628304621509,1042.51941165526,678.799333565612,746.982518841471,350.57236181288,0,0,0,0,0,0,4,3,3,NaN,NaN,NaN,horizontal,horizontal,horizontal,none,none,none
1a,5,100113,3,8,136,21,F,NA,variable,heterogeneous,6,present,1.11727285385132,1,horizontal,horizontal,1,1.02353067398071,green,1,5,700.363562235235,834.728737630372,646.537169096228,396.34794493794,700.363562235235,834.728737630372,953.462830903772,803.65205506206,1053.09926866854,568.923317431687,899.636437764765,365.271262369628,646.537169096228,396.34794493794,546.900731331463,631.076682568313,4,6,3,5,0,5,horizontal,horizontal,vertical,vertical,vertical,vertical
1a,5,100113,3,9,137,21,F,NA,variable,heterogeneous,6,absent,1.5588960647583,1,vertical,vertical,1,0.941177487373352,red,3,NaN,935.129412379467,383.747735480111,NaN,NaN,919.715248510402,825.151636179026,1054.84466088987,608.899371659138,935.129412379467,383.747735480111,680.284751489598,374.848363820974,545.155339110131,591.100628340862,664.870587620533,816.252264519889,3,0,4,5,6,0,horizontal,horizontal,vertical,horizontal,horizontal,horizontal
1a,5,100113,3,10,138,21,F,NA,variable,heterogeneous,4,absent,1.23002910614014,0,horizontal,vertical,1,0.988236451148987,red,2,NaN,1018.57766167904,731.334709102064,NaN,NaN,668.665290897936,818.577661679039,1018.57766167904,731.334709102064,931.334709102064,381.422338320961,581.422338320961,468.665290897936,0,0,0,0,5,4,6,0,NaN,NaN,horizontal,horizontal,horizontal,horizontal,none,none
1a,5,100113,3,11,139,21,F,NA,variable,heterogeneous,6,absent,1.78076410293579,1,vertical,vertical,1,0.894118523597717,green,5,NaN,548.13947314824,560.109211414741,NaN,NaN,891.383827134052,838.063008756786,1051.86052685176,639.890788585259,960.476699717708,401.827779828472,708.616172865948,361.936991243214,548.13947314824,560.109211414741,639.523300282292,798.172220171528,6,0,5,3,4,6,horizontal,vertical,vertical,vertical,vertical,horizontal
1a,5,100113,3,12,140,21,F,NA,variable,heterogeneous,4,absent,1.06916284561157,1,horizontal,horizontal,1,0.635294222831726,red,4,NaN,563.568117085469,695.524681321058,NaN,NaN,895.524681321058,836.431882914531,1036.43188291453,504.475318678942,704.475318678942,363.568117085469,563.568117085469,695.524681321058,0,0,0,0,6,0,5,4,NaN,NaN,vertical,horizontal,vertical,horizontal,none,none
1a,5,100113,3,13,141,21,F,NA,variable,heterogeneous,4,absent,0.967976808547974,1,horizontal,horizontal,1,0.858824300765991,green,3,NaN,646.537169096228,396.34794493794,NaN,NaN,953.462830903772,803.65205506206,1003.65205506206,446.537169096228,646.537169096228,396.34794493794,596.34794493794,753.462830903772,0,0,0,0,6,5,4,0,NaN,NaN,vertical,vertical,horizontal,vertical,none,none
1a,5,100113,3,14,142,21,F,NA,variable,heterogeneous,5,absent,1.38919115066528,1,vertical,vertical,1,0.682353186607361,green,2,NaN,1051.86052685176,639.890788585259,NaN,NaN,839.890788585259,851.86052685176,1051.86052685176,639.890788585259,915.767577433584,372.793336331966,619.68777079743,419.68777079743,572.793336331966,715.767577433584,0,0,5,4,6,5,6,NaN,vertical,vertical,vertical,vertical,horizontal,none
1a,5,100113,3,15,143,21,F,NA,variable,heterogeneous,3,present,0.823158025741577,1,horizontal,horizontal,1,1.09411911964417,red,3,1,777.775285599347,345.970351986605,591.116228706307,746.261991269517,591.116228706307,746.261991269517,1031.10848569435,707.767656743878,777.775285599347,345.970351986605,0,0,0,0,0,0,0,6,4,NaN,NaN,NaN,vertical,horizontal,horizontal,none,none,none
1a,5,100113,3,16,144,21,F,NA,variable,heterogeneous,4,absent,1.22188186645508,1,vertical,vertical,1,1.09411911964417,red,1,NaN,861.690083377915,847.425410200379,NaN,NaN,861.690083377915,847.425410200379,1047.42541020038,538.309916622085,738.309916622085,352.574589799621,552.574589799621,661.690083377915,0,0,0,0,4,3,5,0,NaN,NaN,vertical,vertical,horizontal,vertical,none,none
1a,5,100113,3,17,145,21,F,NA,variable,heterogeneous,4,present,1.16577696800232,1,horizontal,horizontal,1,0.976471710205078,red,4,3,552.574589799621,661.690083377915,738.309916622085,352.574589799621,861.690083377915,847.425410200379,1047.42541020038,538.309916622085,738.309916622085,352.574589799621,552.574589799621,661.690083377915,0,0,0,0,0,3,5,4,NaN,NaN,vertical,horizontal,horizontal,horizontal,none,none
1a,5,100113,3,18,146,21,F,NA,variable,heterogeneous,5,present,1.12531709671021,1,vertical,vertical,1,1.0000011920929,red,5,3,567.045908301137,703.717843984329,927.5,379.163522034968,826.654758133252,853.60308331891,1049.42763818712,653.017481158529,927.5,379.163522034968,629.371695378491,410.498069503264,567.045908301137,703.717843984329,0,0,6,0,5,5,4,NaN,horizontal,vertical,horizontal,vertical,vertical,none
1a,5,100113,3,19,147,21,F,NA,variable,heterogeneous,6,present,1.06103992462158,1,vertical,vertical,1,0.647058963775635,green,5,3,553.688914296288,534.001143498857,980.31222920257,419.68777079743,865.998856501143,846.311085703712,1046.31108570371,665.998856501143,980.31222920257,419.68777079743,734.001143498857,353.688914296288,553.688914296288,534.001143498857,619.68777079743,780.31222920257,0,6,5,3,4,6,horizontal,horizontal,horizontal,vertical,vertical,vertical
1a,5,100113,3,20,148,21,F,NA,variable,heterogeneous,4,present,0.747572898864746,1,vertical,vertical,1,0.858824300765991,green,4,1,549.685068220846,551.343706178981,751.343706178981,850.314931779154,751.343706178981,850.314931779154,1050.31493177915,648.656293821019,848.656293821019,349.685068220846,549.685068220846,551.343706178981,0,0,0,0,5,3,6,4,NaN,NaN,vertical,vertical,horizontal,vertical,none,none
1a,5,100113,3,21,149,21,F,NA,variable,heterogeneous,3,present,0.672948837280273,1,vertical,vertical,1,0.905883264541626,green,2,3,1036.43188291453,504.475318678942,599.057257830286,443.006323791957,764.510859255183,852.518357529101,1036.43188291453,504.475318678942,599.057257830286,443.006323791957,0,0,0,0,0,0,5,4,5,NaN,NaN,NaN,vertical,vertical,vertical,none,none,none
1a,5,100113,3,22,150,21,F,NA,variable,heterogeneous,6,present,1.47417783737183,1,vertical,vertical,1,0.788235855102539,red,2,3,1032.95409169886,703.717843984329,1006.29933356561,450.114760665419,826.654758133252,853.60308331891,1032.95409169886,703.717843984329,1006.29933356561,450.114760665419,773.345241866748,346.39691668109,567.045908301137,496.282156015671,593.700666434388,749.885239334581,3,4,6,5,0,3,horizontal,vertical,vertical,vertical,horizontal,vertical
1a,5,100113,3,23,151,21,F,NA,variable,heterogeneous,6,present,1.57638001441956,1,horizontal,horizontal,1,0.623529481887817,red,5,6,554.878267535729,529.712474266665,616.568350913644,777.137884467044,861.690083377915,847.425410200379,1045.12173246427,670.287525733335,983.431649086356,422.862115532956,738.309916622085,352.574589799621,554.878267535729,529.712474266665,616.568350913644,777.137884467044,3,5,6,0,4,0,horizontal,horizontal,horizontal,vertical,horizontal,vertical
1a,5,100113,3,24,152,21,F,NA,variable,heterogeneous,4,present,1.45598602294922,1,vertical,vertical,1,1.0117659330368,red,2,1,1041.10723677783,683.019879386575,716.980120613425,841.107236777826,716.980120613425,841.107236777826,1041.10723677783,683.019879386575,883.019879386575,358.892763222174,558.892763222174,516.980120613425,0,0,0,0,3,4,0,6,NaN,NaN,vertical,vertical,horizontal,vertical,none,none
1a,5,100113,3,25,153,21,F,NA,variable,heterogeneous,3,absent,0.652684926986694,1,vertical,vertical,1,0.952942228317261,green,3,NaN,657.405809614959,388.595418998464,NaN,NaN,688.215357568785,829.192481806288,1054.37883281626,582.212099195248,657.405809614959,388.595418998464,0,0,0,0,0,0,3,0,4,NaN,NaN,NaN,horizontal,horizontal,vertical,none,none,none
1a,5,100113,3,26,154,21,F,NA,variable,heterogeneous,5,absent,1.49085593223572,1,horizontal,horizontal,1,0.847059559822082,green,2,NaN,989.501930496736,770.628304621509,NaN,NaN,696.282156015671,832.954091698863,989.501930496736,770.628304621509,1020.83647796503,472.5,746.982518841471,350.57236181288,546.39691668109,573.345241866748,0,0,6,4,3,0,6,NaN,vertical,horizontal,vertical,horizontal,vertical,none
1a,5,100113,3,27,155,21,F,NA,variable,heterogeneous,5,present,1.17606997489929,1,vertical,vertical,1,0.764706373214722,red,5,4,557.480588344736,521.200666434388,800,345,650.114760665419,806.299333565612,949.885239334581,806.299333565612,1042.51941165526,521.200666434388,800,345,557.480588344736,521.200666434388,0,0,3,6,0,3,4,NaN,horizontal,horizontal,horizontal,vertical,vertical,none
1a,5,100113,3,28,156,21,F,NA,variable,heterogeneous,3,absent,0.948432922363281,1,vertical,vertical,1,1.02353067398071,green,1,NaN,742.637481142314,848.464366520235,NaN,NaN,742.637481142314,848.464366520235,1043.85771277057,525.445215295702,613.504806087112,426.090418184063,0,0,0,0,0,0,4,6,3,NaN,NaN,NaN,vertical,vertical,horizontal,none,none,none
1a,5,100113,3,29,157,21,F,NA,variable,heterogeneous,5,absent,1.31951689720154,1,vertical,vertical,1,1.0117659330368,green,1,NaN,874.554784704298,843.857712770574,NaN,NaN,874.554784704298,843.857712770574,1054.96116226488,604.450363641507,883.019879386575,358.892763222174,596.34794493794,446.537169096228,591.116228706307,746.261991269517,0,0,4,6,3,5,5,NaN,vertical,vertical,horizontal,horizontal,vertical,none
1a,5,100113,3,30,158,21,F,NA,variable,heterogeneous,5,absent,1.64339399337769,1,vertical,vertical,1,1.05882489681244,red,5,NaN,549.685068220846,551.343706178981,NaN,NaN,676.373546837184,823.028025320546,973.909581815937,786.495193912888,1031.10848569435,492.232343256122,768.923317431687,346.900731331463,549.685068220846,551.343706178981,0,0,0,0,6,6,4,NaN,vertical,vertical,horizontal,vertical,vertical,none
1a,5,100113,3,31,159,21,F,NA,variable,heterogeneous,3,present,0.913734912872314,1,horizontal,horizontal,1,0.858824300765991,green,1,3,1018.57766167904,731.334709102064,576.971974679454,723.626453162816,1018.57766167904,731.334709102064,804.450363641507,345.03883773512,576.971974679454,723.626453162816,0,0,0,0,0,0,4,0,3,NaN,NaN,NaN,horizontal,horizontal,horizontal,none,none,none
1a,5,100113,3,32,160,21,F,NA,variable,heterogeneous,5,present,1.03836798667908,1,vertical,vertical,1,0.917648005485535,green,3,1,1000.94274216971,443.006323791957,729.712474266665,845.121732464271,729.712474266665,845.121732464271,1011.40458100154,742.594190385041,1000.94274216971,443.006323791957,712.784863451954,360.378381699593,545.155339110131,608.899371659138,0,0,0,3,4,5,0,NaN,horizontal,vertical,vertical,horizontal,vertical,none
1a,5,100113,3,33,161,21,F,NA,variable,heterogeneous,3,absent,0.901934146881104,1,horizontal,horizontal,1,0.929412746429443,red,3,NaN,567.045908301137,496.282156015671,NaN,NaN,826.654758133252,853.60308331891,1006.29933356561,450.114760665419,567.045908301137,496.282156015671,0,0,0,0,0,0,5,0,4,NaN,NaN,NaN,horizontal,vertical,horizontal,none,none,none
1a,5,100113,3,34,162,21,F,NA,variable,heterogeneous,4,present,0.592805147171021,1,vertical,vertical,1,0.835294818878174,green,3,1,980.31222920257,419.68777079743,619.68777079743,780.31222920257,619.68777079743,780.31222920257,980.31222920257,780.31222920257,980.31222920257,419.68777079743,619.68777079743,419.68777079743,0,0,0,0,6,5,4,0,NaN,NaN,vertical,vertical,vertical,horizontal,none,none
1a,5,100113,3,35,163,21,F,NA,variable,heterogeneous,6,absent,0.820188999176025,1,horizontal,horizontal,1,0.764706373214722,red,3,NaN,938.882953928832,386.139005173917,NaN,NaN,915.767577433584,827.206663668034,1054.65053136242,613.345668841951,938.882953928832,386.139005173917,684.232422566416,372.793336331966,545.349468637584,586.654331158049,661.117046071168,813.860994826083,6,0,4,3,0,6,horizontal,horizontal,horizontal,vertical,vertical,horizontal
1a,5,100113,3,36,164,21,F,NA,variable,heterogeneous,5,absent,1.03308486938477,1,horizontal,horizontal,1,0.611764740943909,green,4,NaN,629.371695378491,410.498069503264,NaN,NaN,826.654758133252,853.60308331891,1049.42763818712,653.017481158529,927.5,379.163522034968,629.371695378491,410.498069503264,567.045908301137,703.717843984329,0,0,6,3,5,4,0,NaN,horizontal,vertical,horizontal,horizontal,vertical,none
1a,5,100113,3,37,165,21,F,NA,variable,heterogeneous,3,present,0.834884881973267,1,vertical,vertical,1,0.858824300765991,green,2,1,1023.02802532055,723.626453162816,581.422338320961,731.334709102064,581.422338320961,731.334709102064,1023.02802532055,723.626453162816,795.549636358493,345.03883773512,0,0,0,0,0,0,5,4,5,NaN,NaN,NaN,vertical,vertical,vertical,none,none,none
1a,5,100113,3,38,166,21,F,NA,variable,heterogeneous,3,absent,0.678596019744873,1,horizontal,horizontal,1,0.741176891326904,green,3,NaN,746.982518841471,350.57236181288,NaN,NaN,610.498069503264,770.628304621509,1042.51941165526,678.799333565612,746.982518841471,350.57236181288,0,0,0,0,0,0,0,3,4,NaN,NaN,NaN,horizontal,horizontal,horizontal,none,none,none
1a,5,100113,3,39,167,21,F,NA,variable,heterogeneous,5,absent,1.03348016738892,1,vertical,vertical,1,0.858824300765991,red,5,NaN,636.089159529932,795.341332995339,NaN,NaN,935.129412379467,816.252264519889,1047.42541020038,538.309916622085,817.787900804752,345.621167183745,563.568117085469,504.475318678942,636.089159529932,795.341332995339,0,0,6,3,0,5,4,NaN,vertical,horizontal,horizontal,horizontal,vertical,none
1a,5,100113,3,40,168,21,F,NA,variable,heterogeneous,5,present,1.62734413146973,1,horizontal,horizontal,1,0.858824300765991,red,1,2,751.343706178981,850.314931779154,1023.02802532055,723.626453162816,751.343706178981,850.314931779154,1023.02802532055,723.626453162816,986.495193912888,426.090418184063,692.232343256122,368.891514305654,546.900731331463,631.076682568313,0,0,4,5,3,6,6,NaN,horizontal,horizontal,vertical,vertical,horizontal,none
1a,5,100113,3,41,169,21,F,NA,variable,heterogeneous,3,present,0.694150924682617,1,vertical,vertical,1,0.705882668495178,red,3,1,558.892763222174,683.019879386575,992.450942956807,767.295052392579,992.450942956807,767.295052392579,848.656293821019,349.685068220846,558.892763222174,683.019879386575,0,0,0,0,0,0,6,6,4,NaN,NaN,NaN,horizontal,vertical,vertical,none,none,none
1a,5,100113,3,42,170,21,F,NA,variable,heterogeneous,6,absent,0.645225048065186,1,horizontal,horizontal,1,0.647058963775635,red,4,NaN,764.510859255183,347.4816424709,NaN,NaN,835.489140744817,852.518357529101,1036.43188291453,695.524681321058,1000.94274216971,443.006323791957,764.510859255183,347.4816424709,563.568117085469,504.475318678942,599.057257830286,756.993676208043,3,0,6,4,0,3,horizontal,horizontal,horizontal,horizontal,vertical,vertical
1a,5,100113,3,43,171,21,F,NA,variable,heterogeneous,4,absent,1.01187682151794,1,vertical,vertical,1,1.08235437870026,green,1,NaN,804.450363641507,854.96116226488,NaN,NaN,804.450363641507,854.96116226488,1054.96116226488,595.549636358493,795.549636358493,345.03883773512,545.03883773512,604.450363641507,0,0,0,0,4,0,0,3,NaN,NaN,vertical,horizontal,horizontal,vertical,none,none
1a,5,100113,3,44,172,21,F,NA,variable,heterogeneous,4,present,1.25396203994751,1,horizontal,horizontal,1,1.07058963775635,red,2,4,1029.19248180629,711.784642431215,570.807518193712,488.215357568785,688.215357568785,829.192481806288,1029.19248180629,711.784642431215,911.784642431215,370.807518193712,570.807518193712,488.215357568785,0,0,0,0,3,4,6,5,NaN,NaN,vertical,horizontal,vertical,horizontal,none,none
1a,5,100113,3,45,173,21,F,NA,variable,heterogeneous,5,absent,1.60294604301453,1,horizontal,horizontal,1,0.6,red,3,NaN,1031.10848569435,492.232343256122,NaN,NaN,676.373546837184,823.028025320546,973.909581815937,786.495193912888,1031.10848569435,492.232343256122,768.923317431687,346.900731331463,549.685068220846,551.343706178981,0,0,5,3,4,0,6,NaN,horizontal,vertical,horizontal,vertical,vertical,none
1a,5,100113,3,46,174,21,F,NA,variable,heterogeneous,4,present,0.734796047210693,1,horizontal,horizontal,1,0.976471710205078,green,3,4,895.524681321058,363.568117085469,563.568117085469,504.475318678942,704.475318678942,836.431882914531,1036.43188291453,695.524681321058,895.524681321058,363.568117085469,563.568117085469,504.475318678942,0,0,0,0,3,0,4,6,NaN,NaN,horizontal,vertical,horizontal,vertical,none,none
1a,5,100113,3,47,175,21,F,NA,variable,heterogeneous,5,present,1.23979711532593,1,horizontal,horizontal,1,0.705882668495178,green,1,2,887.215136548046,839.621618300407,1054.84466088987,591.100628340862,887.215136548046,839.621618300407,1054.84466088987,591.100628340862,870.287525733335,354.878267535729,588.595418998464,457.40580961496,599.057257830286,756.993676208043,0,0,4,3,0,5,6,NaN,horizontal,vertical,vertical,horizontal,horizontal,none
1a,5,100113,3,48,176,21,F,NA,variable,heterogeneous,6,present,1.54248118400574,1,vertical,vertical,1,1.08235437870026,red,4,1,817.787900804752,345.621167183745,782.212099195248,854.378832816255,782.212099195248,854.378832816255,1011.40458100154,742.594190385041,1029.19248180629,488.215357568785,817.787900804752,345.621167183745,588.595418998464,457.40580961496,570.807518193712,711.784642431215,0,6,5,4,6,0,horizontal,vertical,vertical,vertical,horizontal,vertical
1a,5,100113,3,49,177,21,F,NA,variable,heterogeneous,5,present,1.25869512557983,1,horizontal,horizontal,1,0.658823704719543,green,3,1,1034.72873763037,500.363562235235,668.665290897936,818.577661679039,668.665290897936,818.577661679039,967.295052392579,792.450942956807,1034.72873763037,500.363562235235,777.775285599347,345.970351986605,551.535633479765,542.637481142314,0,0,0,6,4,3,5,NaN,vertical,vertical,horizontal,vertical,horizontal,none
1a,5,100113,3,50,178,21,F,NA,variable,heterogeneous,5,present,0.72803521156311,1,horizontal,horizontal,1,1.0117659330368,red,4,5,657.405809614959,388.595418998464,554.878267535729,670.287525733335,791.100628340862,854.844660889869,1039.62161830041,687.215136548046,956.993676208043,399.057257830286,657.405809614959,388.595418998464,554.878267535729,670.287525733335,0,0,3,5,0,4,6,NaN,vertical,vertical,horizontal,horizontal,vertical,none
1a,5,100113,3,51,179,21,F,NA,variable,heterogeneous,6,absent,0.560748815536499,1,horizontal,horizontal,1,1.08235437870026,green,4,NaN,716.980120613425,358.892763222174,NaN,NaN,883.019879386575,841.107236777826,1050.31493177915,648.656293821019,967.295052392579,407.549057043193,716.980120613425,358.892763222174,549.685068220846,551.343706178981,632.704947607421,792.450942956807,0,5,3,4,6,5,vertical,vertical,vertical,horizontal,horizontal,vertical
1a,5,100113,3,52,180,21,F,NA,variable,heterogeneous,6,present,1.90917706489563,0,horizontal,vertical,1,1.04706015586853,green,3,2,1055,600,927.5,820.836477965032,672.5,820.836477965032,927.5,820.836477965032,1055,600,927.5,379.163522034968,672.5,379.163522034968,545,600,0,5,4,0,6,6,vertical,horizontal,horizontal,vertical,horizontal,horizontal
1a,5,100113,3,53,181,21,F,NA,variable,heterogeneous,6,present,0.910968065261841,0,vertical,horizontal,1,0.976471710205078,green,3,1,980.31222920257,419.68777079743,865.998856501143,846.311085703712,865.998856501143,846.311085703712,1046.31108570371,665.998856501143,980.31222920257,419.68777079743,734.001143498857,353.688914296288,553.688914296288,534.001143498857,619.68777079743,780.31222920257,3,6,4,5,6,3,horizontal,vertical,vertical,vertical,vertical,horizontal
1a,5,100113,3,54,182,21,F,NA,variable,heterogeneous,6,absent,1.44708704948425,1,horizontal,horizontal,1,0.882353782653809,green,5,NaN,657.405809614959,388.595418998464,NaN,NaN,688.215357568785,829.192481806288,942.594190385041,811.404581001536,1054.37883281626,582.212099195248,911.784642431215,370.807518193712,657.405809614959,388.595418998464,545.621167183745,617.787900804752,0,6,3,5,4,3,vertical,vertical,vertical,horizontal,horizontal,vertical
1a,5,100113,3,55,183,21,F,NA,variable,heterogeneous,4,absent,1.3544659614563,1,horizontal,horizontal,1,0.905883264541626,green,2,NaN,989.501930496736,770.628304621509,NaN,NaN,629.371695378491,789.501930496736,989.501930496736,770.628304621509,970.628304621509,410.498069503264,610.498069503264,429.371695378491,0,0,0,0,0,4,3,6,NaN,NaN,horizontal,horizontal,horizontal,horizontal,none,none
1a,5,100113,3,56,184,21,F,NA,variable,heterogeneous,6,absent,1.29666900634766,1,vertical,vertical,1,0.741176891326904,red,2,NaN,935.129412379467,816.252264519889,NaN,NaN,680.284751489598,825.151636179026,935.129412379467,816.252264519889,1054.84466088987,591.100628340862,919.715248510402,374.848363820974,664.870587620533,383.747735480111,545.155339110131,608.899371659138,3,4,5,5,0,0,horizontal,vertical,horizontal,vertical,horizontal,horizontal
1a,5,100113,3,57,185,21,F,NA,variable,heterogeneous,3,absent,0.964893817901611,1,vertical,vertical,1,0.905883264541626,red,1,NaN,791.100628340862,854.844660889869,NaN,NaN,791.100628340862,854.844660889869,1025.15163617903,480.284751489598,583.747735480111,464.870587620533,0,0,0,0,0,0,4,5,3,NaN,NaN,NaN,vertical,vertical,vertical,none,none,none
1a,5,100113,3,58,186,21,F,NA,variable,heterogeneous,6,present,1.40367007255554,1,horizontal,horizontal,1,0.752941632270813,red,3,6,1011.40458100154,457.40580961496,588.595418998464,742.594190385041,817.787900804752,854.378832816255,1029.19248180629,711.784642431215,1011.40458100154,457.40580961496,782.212099195248,345.621167183745,570.807518193712,488.215357568785,588.595418998464,742.594190385041,5,6,4,5,3,3,horizontal,vertical,horizontal,vertical,vertical,vertical
1a,5,100113,3,59,187,21,F,NA,variable,heterogeneous,3,absent,0.637903213500977,1,vertical,vertical,1,0.705882668495178,red,3,NaN,768.923317431687,346.900731331463,NaN,NaN,596.34794493794,753.462830903772,1034.72873763037,699.636437764765,768.923317431687,346.900731331463,0,0,0,0,0,0,5,5,4,NaN,NaN,NaN,vertical,vertical,vertical,none,none,none
1a,5,100113,3,60,188,21,F,NA,variable,heterogeneous,6,absent,1.51607084274292,1,vertical,vertical,1,0.658823704719543,green,6,NaN,588.595418998464,742.594190385041,NaN,NaN,817.787900804752,854.378832816255,1029.19248180629,711.784642431215,1011.40458100154,457.40580961496,782.212099195248,345.621167183745,570.807518193712,488.215357568785,588.595418998464,742.594190385041,0,5,3,6,6,4,vertical,horizontal,horizontal,vertical,vertical,vertical
1a,5,100113,3,61,189,21,F,NA,variable,heterogeneous,4,absent,0.985780954360962,1,vertical,vertical,1,0.764706373214722,green,1,NaN,725.445215295702,843.857712770574,NaN,NaN,725.445215295702,843.857712770574,1043.85771277057,674.554784704298,874.554784704298,356.142287229426,556.142287229426,525.445215295702,0,0,0,0,4,0,5,3,NaN,NaN,vertical,horizontal,horizontal,horizontal,none,none
1a,5,100113,3,62,190,21,F,NA,variable,heterogeneous,3,present,0.725925922393799,1,vertical,vertical,1,0.623529481887817,red,2,1,938.882953928832,386.139005173917,915.767577433584,827.206663668034,915.767577433584,827.206663668034,938.882953928832,386.139005173917,545.349468637584,586.654331158049,0,0,0,0,0,0,6,4,3,NaN,NaN,NaN,vertical,vertical,vertical,none,none,none
1a,5,100113,3,63,191,21,F,NA,variable,heterogeneous,3,present,0.691658973693848,1,horizontal,horizontal,1,0.952942228317261,green,2,1,1053.60308331891,626.654758133252,650.114760665419,806.299333565612,650.114760665419,806.299333565612,1053.60308331891,626.654758133252,696.282156015671,367.045908301137,0,0,0,0,0,0,3,4,5,NaN,NaN,NaN,horizontal,horizontal,vertical,none,none,none
1a,5,100113,3,64,192,21,F,NA,variable,heterogeneous,5,present,0.603764772415161,1,vertical,vertical,1,0.905883264541626,green,3,4,1029.19248180629,488.215357568785,764.510859255183,347.4816424709,680.284751489598,825.151636179026,977.137884467044,783.431649086356,1029.19248180629,488.215357568785,764.510859255183,347.4816424709,548.874022981887,555.719714694933,0,0,0,3,4,0,3,NaN,vertical,horizontal,vertical,vertical,vertical,none
1a,5,100113,4,1,193,21,F,NA,variable,heterogeneous,3,present,1.08890414237976,1,vertical,vertical,1,0.717647409439087,red,3,2,570.807518193712,711.784642431215,817.787900804752,345.621167183745,1011.40458100154,742.594190385041,817.787900804752,345.621167183745,570.807518193712,711.784642431215,0,0,0,0,0,0,3,6,4,NaN,NaN,NaN,horizontal,horizontal,vertical,none,none,none
1a,5,100113,4,2,194,21,F,NA,variable,heterogeneous,5,absent,0.998167991638184,1,vertical,vertical,1,0.764706373214722,red,1,NaN,734.001143498857,846.311085703712,NaN,NaN,734.001143498857,846.311085703712,1013.86099482608,738.882953928832,998.172220171528,439.523300282291,708.616172865948,361.936991243214,545.349468637584,613.345668841951,0,0,4,6,5,6,0,NaN,vertical,horizontal,horizontal,horizontal,horizontal,none
1a,5,100113,4,3,195,21,F,NA,variable,heterogeneous,6,present,1.16654801368713,1,horizontal,horizontal,1,1.02353067398071,red,2,4,1041.10723677783,683.019879386575,751.343706178981,349.685068220846,848.656293821019,850.314931779154,1041.10723677783,683.019879386575,992.450942956807,432.704947607421,751.343706178981,349.685068220846,558.892763222174,516.980120613425,607.549057043193,767.295052392579,5,4,6,0,0,6,vertical,horizontal,horizontal,horizontal,vertical,horizontal
1a,5,100113,4,4,196,21,F,NA,variable,heterogeneous,6,present,1.51985192298889,1,vertical,vertical,1,0.670588445663452,green,6,2,593.700666434388,749.885239334581,1032.95409169886,703.717843984329,826.654758133252,853.60308331891,1032.95409169886,703.717843984329,1006.29933356561,450.114760665419,773.345241866748,346.39691668109,567.045908301137,496.282156015671,593.700666434388,749.885239334581,5,3,0,5,6,4,vertical,vertical,horizontal,vertical,horizontal,vertical
1a,5,100113,4,5,197,21,F,NA,variable,heterogeneous,4,absent,0.783659934997559,1,vertical,vertical,1,0.8705890417099,green,2,NaN,1036.43188291453,504.475318678942,NaN,NaN,895.524681321058,836.431882914531,1036.43188291453,504.475318678942,704.475318678942,363.568117085469,563.568117085469,695.524681321058,0,0,0,0,5,4,6,3,NaN,NaN,vertical,vertical,vertical,horizontal,none,none
1a,5,100113,4,6,198,21,F,NA,variable,heterogeneous,5,absent,1.21400904655457,1,horizontal,horizontal,1,0.917648005485535,red,2,NaN,963.910840470068,795.341332995339,NaN,NaN,664.870587620533,816.252264519889,963.910840470068,795.341332995339,1036.43188291453,504.475318678942,782.212099195248,345.621167183745,552.574589799621,538.309916622085,0,0,3,4,6,0,0,NaN,vertical,horizontal,horizontal,horizontal,horizontal,none
1a,5,100113,4,7,199,21,F,NA,variable,heterogeneous,3,absent,0.620447158813477,1,vertical,vertical,1,0.905883264541626,red,1,NaN,822.224714400653,854.029648013395,NaN,NaN,822.224714400653,854.029648013395,1008.88377129369,453.738008730483,568.891514305654,492.232343256122,0,0,0,0,0,0,4,0,0,NaN,NaN,NaN,vertical,horizontal,vertical,none,none,none
1a,5,100113,4,8,200,21,F,NA,variable,heterogeneous,4,present,0.534870147705078,1,vertical,vertical,1,0.69411792755127,red,3,1,942.594190385041,388.595418998464,657.405809614959,811.404581001536,657.405809614959,811.404581001536,1011.40458100154,742.594190385041,942.594190385041,388.595418998464,588.595418998464,457.40580961496,0,0,0,0,5,3,4,0,NaN,NaN,vertical,horizontal,vertical,vertical,none,none
1a,5,100113,4,9,201,21,F,NA,variable,heterogeneous,6,absent,1.53146505355835,1,horizontal,horizontal,1,1.09411911964417,red,1,NaN,844.280285305067,851.125977018113,NaN,NaN,844.280285305067,851.125977018113,1039.62161830041,687.215136548046,995.341332995339,436.089159529932,755.719714694933,348.874022981887,560.378381699593,512.784863451954,604.658667004661,763.910840470068,4,0,3,5,6,0,horizontal,horizontal,vertical,vertical,vertical,vertical
1a,5,100113,4,10,202,21,F,NA,variable,heterogeneous,3,absent,1.24072313308716,1,horizontal,horizontal,1,0.717647409439087,red,3,NaN,610.498069503264,429.371695378491,NaN,NaN,746.982518841471,849.42763818712,1042.51941165526,521.200666434388,610.498069503264,429.371695378491,0,0,0,0,0,0,5,3,4,NaN,NaN,NaN,horizontal,horizontal,horizontal,none,none,none
1a,5,100113,4,11,203,21,F,NA,variable,heterogeneous,6,absent,1.52642607688904,1,horizontal,horizontal,1,0.835294818878174,red,6,NaN,622.862115532956,783.431649086356,NaN,NaN,870.287525733335,845.121732464271,1047.42541020038,661.690083377915,977.137884467044,416.568350913644,729.712474266665,354.878267535729,552.574589799621,538.309916622085,622.862115532956,783.431649086356,5,6,3,6,0,4,horizontal,horizontal,horizontal,horizontal,horizontal,horizontal
1a,5,100113,4,12,204,21,F,NA,variable,heterogeneous,5,present,1.19482517242432,1,horizontal,horizontal,1,0.882353782653809,green,1,2,672.5,820.836477965032,970.628304621509,789.501930496736,672.5,820.836477965032,970.628304621509,789.501930496736,1032.95409169886,496.282156015671,773.345241866748,346.39691668109,550.57236181288,546.982518841471,0,0,4,0,3,6,6,NaN,horizontal,vertical,horizontal,vertical,vertical,none
1a,5,100113,4,13,205,21,F,NA,variable,heterogeneous,5,present,1.09889101982117,1,horizontal,horizontal,1,1.0000011920929,green,1,3,676.373546837184,823.028025320546,1031.10848569435,492.232343256122,676.373546837184,823.028025320546,973.909581815937,786.495193912888,1031.10848569435,492.232343256122,768.923317431687,346.900731331463,549.685068220846,551.343706178981,0,0,4,5,3,6,6,NaN,horizontal,vertical,horizontal,horizontal,horizontal,none
1a,5,100113,4,14,206,21,F,NA,variable,heterogeneous,4,absent,1.58534407615662,1,vertical,vertical,1,1.02353067398071,red,3,NaN,712.784863451954,360.378381699593,NaN,NaN,887.215136548046,839.621618300407,1039.62161830041,512.784863451954,712.784863451954,360.378381699593,560.378381699593,687.215136548046,0,0,0,0,6,3,4,3,NaN,NaN,horizontal,vertical,vertical,horizontal,none,none
1a,5,100113,4,15,207,21,F,NA,variable,heterogeneous,4,absent,1.26599907875061,1,horizontal,horizontal,1,0.835294818878174,green,1,NaN,657.405809614959,811.404581001536,NaN,NaN,657.405809614959,811.404581001536,1011.40458100154,742.594190385041,942.594190385041,388.595418998464,588.595418998464,457.40580961496,0,0,0,0,4,3,5,0,NaN,NaN,horizontal,vertical,vertical,vertical,none,none
1a,5,100113,4,16,208,21,F,NA,variable,heterogeneous,6,absent,1.39495205879211,1,horizontal,horizontal,1,0.77647111415863,green,2,NaN,963.910840470068,795.341332995339,NaN,NaN,712.784863451954,839.621618300407,963.910840470068,795.341332995339,1051.12597701811,555.719714694933,887.215136548046,360.378381699593,636.089159529932,404.658667004661,548.874022981887,644.280285305067,6,4,6,3,0,0,vertical,horizontal,horizontal,vertical,horizontal,horizontal
1a,5,100113,4,17,209,21,F,NA,variable,heterogeneous,5,present,1.54738903045654,1,horizontal,horizontal,1,0.623529481887817,red,2,5,960.476699717708,798.172220171528,553.688914296288,534.001143498857,661.117046071168,813.860994826083,960.476699717708,798.172220171528,1038.06300875679,508.616172865948,786.654331158049,345.349468637584,553.688914296288,534.001143498857,0,0,6,4,5,0,6,NaN,vertical,horizontal,horizontal,vertical,vertical,none
1a,5,100113,4,18,210,21,F,NA,variable,heterogeneous,6,absent,1.66834402084351,1,vertical,vertical,1,1.09411911964417,red,5,NaN,574.848363820974,480.284751489598,NaN,NaN,808.899371659138,854.844660889869,1025.15163617903,719.715248510402,1016.25226451989,464.870587620533,791.100628340862,345.155339110131,574.848363820974,480.284751489598,583.747735480111,735.129412379467,5,0,3,6,4,0,vertical,vertical,horizontal,horizontal,vertical,horizontal
1a,5,100113,4,19,211,21,F,NA,variable,heterogeneous,3,present,0.898624897003174,1,vertical,vertical,1,0.635294222831726,green,2,3,1042.51941165526,678.799333565612,746.982518841471,350.57236181288,610.498069503264,770.628304621509,1042.51941165526,678.799333565612,746.982518841471,350.57236181288,0,0,0,0,0,0,6,4,6,NaN,NaN,NaN,horizontal,vertical,horizontal,none,none,none
1a,5,100113,4,20,212,21,F,NA,variable,heterogeneous,3,present,1.10903692245483,1,horizontal,horizontal,1,0.611764740943909,green,2,3,1050.31493177915,551.343706178981,632.704947607421,407.549057043193,716.980120613425,841.107236777826,1050.31493177915,551.343706178981,632.704947607421,407.549057043193,0,0,0,0,0,0,0,4,6,NaN,NaN,NaN,horizontal,horizontal,horizontal,none,none,none
1a,5,100113,4,21,213,21,F,NA,variable,heterogeneous,3,present,1.02904486656189,1,vertical,vertical,1,0.882353782653809,red,3,1,791.100628340862,345.155339110131,583.747735480111,735.129412379467,583.747735480111,735.129412379467,1025.15163617903,719.715248510402,791.100628340862,345.155339110131,0,0,0,0,0,0,0,5,4,NaN,NaN,NaN,horizontal,horizontal,vertical,none,none,none
1a,5,100113,4,22,214,21,F,NA,variable,heterogeneous,6,absent,1.36078286170959,1,vertical,vertical,1,0.752941632270813,green,6,NaN,622.862115532956,783.431649086356,NaN,NaN,870.287525733335,845.121732464271,1047.42541020038,661.690083377915,977.137884467044,416.568350913644,729.712474266665,354.878267535729,552.574589799621,538.309916622085,622.862115532956,783.431649086356,6,5,0,6,0,4,horizontal,horizontal,horizontal,vertical,horizontal,vertical
1a,5,100113,4,23,215,21,F,NA,variable,heterogeneous,4,absent,0.953294992446899,1,vertical,vertical,1,0.858824300765991,red,2,NaN,1054.0296480134,577.775285599347,NaN,NaN,822.224714400653,854.029648013395,1054.0296480134,577.775285599347,777.775285599347,345.970351986605,545.970351986605,622.224714400653,0,0,0,0,5,4,6,5,NaN,NaN,horizontal,vertical,vertical,horizontal,none,none
1a,5,100113,4,24,216,21,F,NA,variable,heterogeneous,3,absent,0.928798913955688,1,vertical,vertical,1,0.811765336990356,red,1,NaN,742.637481142314,848.464366520235,NaN,NaN,742.637481142314,848.464366520235,1043.85771277057,525.445215295702,613.504806087112,426.090418184063,0,0,0,0,0,0,4,3,6,NaN,NaN,NaN,vertical,vertical,horizontal,none,none,none
1a,5,100113,4,25,217,21,F,NA,variable,heterogeneous,6,present,1.38161492347717,1,horizontal,horizontal,1,0.69411792755127,green,1,3,782.212099195248,854.378832816255,1029.19248180629,488.215357568785,782.212099195248,854.378832816255,1011.40458100154,742.594190385041,1029.19248180629,488.215357568785,817.787900804752,345.621167183745,588.595418998464,457.40580961496,570.807518193712,711.784642431215,4,6,6,3,0,5,horizontal,horizontal,horizontal,vertical,horizontal,vertical
1a,5,100113,4,26,218,21,F,NA,variable,heterogeneous,5,absent,0.885985136032104,1,horizontal,horizontal,1,0.835294818878174,green,3,NaN,887.215136548046,360.378381699593,NaN,NaN,870.287525733335,845.121732464271,1054.84466088987,608.899371659138,887.215136548046,360.378381699593,599.057257830286,443.006323791957,588.595418998464,742.594190385041,0,0,3,5,4,0,3,NaN,vertical,vertical,horizontal,vertical,vertical,none
1a,5,100113,4,27,219,21,F,NA,variable,heterogeneous,6,absent,1.69642496109009,1,vertical,vertical,1,1.02353067398071,green,5,NaN,551.535633479765,542.637481142314,NaN,NaN,874.554784704298,843.857712770574,1048.46436652023,657.362518857686,973.909581815937,413.504806087112,725.445215295702,356.142287229426,551.535633479765,542.637481142314,626.090418184063,786.495193912888,6,0,6,3,4,5,vertical,vertical,vertical,horizontal,vertical,vertical
1a,5,100113,4,28,220,21,F,NA,variable,heterogeneous,5,present,1.43353199958801,1,vertical,vertical,1,0.941177487373352,red,1,3,800,855,949.885239334581,393.700666434388,800,855,1042.51941165526,678.799333565612,949.885239334581,393.700666434388,650.114760665419,393.700666434388,557.480588344736,678.799333565612,0,0,4,6,6,0,5,NaN,vertical,horizontal,horizontal,vertical,vertical,none
1a,5,100113,4,29,221,21,F,NA,variable,heterogeneous,6,present,1.19904398918152,1,vertical,vertical,1,0.847059559822082,red,2,3,1016.25226451989,735.129412379467,1025.15163617903,480.284751489598,791.100628340862,854.844660889869,1016.25226451989,735.129412379467,1025.15163617903,480.284751489598,808.899371659138,345.155339110131,583.747735480111,464.870587620533,574.848363820974,719.715248510402,3,4,3,5,6,6,vertical,vertical,vertical,horizontal,vertical,vertical
1a,5,100113,4,30,222,21,F,NA,variable,heterogeneous,6,present,1.02958083152771,1,horizontal,horizontal,1,0.717647409439087,green,2,4,989.501930496736,770.628304621509,853.017481158529,350.57236181288,746.982518841471,849.42763818712,989.501930496736,770.628304621509,1042.51941165526,521.200666434388,853.017481158529,350.57236181288,610.498069503264,429.371695378491,557.480588344736,678.799333565612,6,4,0,5,0,3,vertical,horizontal,vertical,horizontal,vertical,vertical
1a,5,100113,4,31,223,21,F,NA,variable,heterogeneous,3,absent,0.672561168670654,1,horizontal,horizontal,1,0.905883264541626,red,3,NaN,734.001143498857,353.688914296288,NaN,NaN,619.68777079743,780.31222920257,1046.31108570371,665.998856501143,734.001143498857,353.688914296288,0,0,0,0,0,0,0,3,4,NaN,NaN,NaN,vertical,horizontal,horizontal,none,none,none
1a,5,100113,4,32,224,21,F,NA,variable,heterogeneous,4,present,0.727782011032104,1,vertical,vertical,1,1.07058963775635,green,4,3,550.57236181288,546.982518841471,853.017481158529,350.57236181288,746.982518841471,849.42763818712,1049.42763818712,653.017481158529,853.017481158529,350.57236181288,550.57236181288,546.982518841471,0,0,0,0,5,3,3,4,NaN,NaN,vertical,vertical,vertical,vertical,none,none
1a,5,100113,4,33,225,21,F,NA,variable,heterogeneous,3,present,0.836414098739624,0,horizontal,vertical,1,0.705882668495178,red,1,2,768.923317431687,853.099268668537,1034.72873763037,500.363562235235,768.923317431687,853.099268668537,1034.72873763037,500.363562235235,596.34794493794,446.537169096228,0,0,0,0,0,0,4,6,5,NaN,NaN,NaN,horizontal,horizontal,vertical,none,none,none
1a,5,100113,4,34,226,21,F,NA,variable,heterogeneous,6,present,1.690101146698,1,vertical,vertical,1,0.635294222831726,green,5,4,639.523300282292,401.827779828472,891.383827134052,361.936991243214,708.616172865948,838.063008756786,960.476699717708,798.172220171528,1051.86052685176,560.109211414741,891.383827134052,361.936991243214,639.523300282292,401.827779828472,548.13947314824,639.890788585259,5,6,6,0,4,3,vertical,vertical,vertical,horizontal,vertical,vertical
1a,5,100113,4,35,227,21,F,NA,variable,heterogeneous,4,absent,0.572610139846802,1,horizontal,horizontal,1,0.623529481887817,green,3,NaN,751.343706178981,349.685068220846,NaN,NaN,848.656293821019,850.314931779154,1050.31493177915,551.343706178981,751.343706178981,349.685068220846,549.685068220846,648.656293821019,0,0,0,0,6,3,4,0,NaN,NaN,horizontal,horizontal,horizontal,vertical,none,none
1a,5,100113,4,36,228,21,F,NA,variable,heterogeneous,5,absent,1.44275689125061,1,vertical,vertical,1,0.729412150382996,green,2,NaN,1053.09926866854,568.923317431687,NaN,NaN,907.767656743878,831.108485694346,1053.09926866854,568.923317431687,848.656293821019,349.685068220846,576.971974679454,476.373546837184,613.504806087112,773.909581815937,0,0,3,4,6,3,5,NaN,horizontal,vertical,horizontal,horizontal,vertical,none
1a,5,100113,4,37,229,21,F,NA,variable,heterogeneous,6,absent,1.37403297424316,1,horizontal,horizontal,1,0.717647409439087,green,1,NaN,791.100628340862,854.844660889869,NaN,NaN,791.100628340862,854.844660889869,1016.25226451989,735.129412379467,1025.15163617903,480.284751489598,808.899371659138,345.155339110131,583.747735480111,464.870587620533,574.848363820974,719.715248510402,4,5,6,3,0,0,horizontal,horizontal,horizontal,horizontal,horizontal,vertical
1a,5,100113,4,38,230,21,F,NA,variable,heterogeneous,4,present,0.987109184265137,1,horizontal,horizontal,1,0.682353186607361,red,3,2,764.510859255183,347.4816424709,1052.5183575291,564.510859255183,835.489140744817,852.518357529101,1052.5183575291,564.510859255183,764.510859255183,347.4816424709,547.481642470899,635.489140744817,0,0,0,0,3,5,4,6,NaN,NaN,vertical,horizontal,horizontal,vertical,none,none
1a,5,100113,4,39,231,21,F,NA,variable,heterogeneous,3,absent,0.639214992523193,1,vertical,vertical,1,1.0117659330368,green,2,NaN,935.129412379467,383.747735480111,NaN,NaN,919.715248510402,825.151636179026,935.129412379467,383.747735480111,545.155339110131,591.100628340862,0,0,0,0,0,0,6,4,0,NaN,NaN,NaN,horizontal,vertical,horizontal,none,none,none
1a,5,100113,4,40,232,21,F,NA,variable,heterogeneous,5,absent,0.791996955871582,1,vertical,vertical,1,0.976471710205078,green,3,NaN,839.890788585259,348.13947314824,NaN,NaN,915.767577433584,827.206663668034,1051.86052685176,560.109211414741,839.890788585259,348.13947314824,572.793336331966,484.232422566416,619.68777079743,780.31222920257,0,0,0,5,4,5,6,NaN,horizontal,horizontal,vertical,horizontal,horizontal,none
1a,5,100113,4,41,233,21,F,NA,variable,heterogeneous,6,present,NaN,0,horizontal,none,0,0.882353782653809,red,4,2,911.784642431215,370.807518193712,942.594190385041,811.404581001536,688.215357568785,829.192481806288,942.594190385041,811.404581001536,1054.37883281626,582.212099195248,911.784642431215,370.807518193712,657.405809614959,388.595418998464,545.621167183745,617.787900804752,5,6,0,4,0,3,horizontal,vertical,horizontal,horizontal,vertical,horizontal
1a,5,100113,4,42,234,21,F,NA,variable,heterogeneous,4,present,1.45327401161194,1,vertical,vertical,1,0.964706969261169,red,1,3,657.405809614959,811.404581001536,942.594190385041,388.595418998464,657.405809614959,811.404581001536,1011.40458100154,742.594190385041,942.594190385041,388.595418998464,588.595418998464,457.40580961496,0,0,0,0,4,3,0,6,NaN,NaN,vertical,vertical,horizontal,horizontal,none,none
1a,5,100113,4,43,235,21,F,NA,variable,heterogeneous,5,present,0.743685960769653,1,vertical,vertical,1,1.05882489681244,red,3,4,844.280285305067,348.874022981887,574.848363820974,480.284751489598,911.784642431215,829.192481806288,1052.5183575291,564.510859255183,844.280285305067,348.874022981887,574.848363820974,480.284751489598,616.568350913644,777.137884467044,0,0,5,0,4,3,3,NaN,vertical,horizontal,vertical,vertical,vertical,none
1a,5,100113,4,44,236,21,F,NA,variable,heterogeneous,4,present,0.631229162216187,1,horizontal,horizontal,1,0.623529481887817,red,3,2,764.510859255183,347.4816424709,1052.5183575291,564.510859255183,835.489140744817,852.518357529101,1052.5183575291,564.510859255183,764.510859255183,347.4816424709,547.481642470899,635.489140744817,0,0,0,0,0,3,4,6,NaN,NaN,vertical,vertical,horizontal,horizontal,none,none
1a,5,100113,4,45,237,21,F,NA,variable,heterogeneous,3,absent,0.879306077957153,1,horizontal,horizontal,1,0.964706969261169,green,1,NaN,599.057257830286,756.993676208043,NaN,NaN,599.057257830286,756.993676208043,1036.43188291453,695.524681321058,764.510859255183,347.4816424709,0,0,0,0,0,0,4,3,6,NaN,NaN,NaN,horizontal,horizontal,horizontal,none,none,none
1a,5,100113,4,46,238,21,F,NA,variable,heterogeneous,3,present,1.12686395645142,1,horizontal,horizontal,1,1.09411911964417,green,2,3,1050.31493177915,648.656293821019,716.980120613425,358.892763222174,632.704947607421,792.450942956807,1050.31493177915,648.656293821019,716.980120613425,358.892763222174,0,0,0,0,0,0,6,4,6,NaN,NaN,NaN,horizontal,horizontal,vertical,none,none,none
1a,5,100113,4,47,239,21,F,NA,variable,heterogeneous,6,absent,1.26277995109558,1,vertical,vertical,1,0.670588445663452,red,1,NaN,764.510859255183,852.518357529101,NaN,NaN,764.510859255183,852.518357529101,1000.94274216971,756.993676208043,1036.43188291453,504.475318678942,835.489140744817,347.4816424709,599.057257830286,443.006323791957,563.568117085469,695.524681321058,4,0,6,6,0,3,vertical,horizontal,horizontal,horizontal,horizontal,vertical
1a,5,100113,4,48,240,21,F,NA,variable,heterogeneous,4,present,0.821990966796875,1,vertical,vertical,1,0.682353186607361,green,1,3,777.775285599347,854.029648013395,822.224714400653,345.970351986605,777.775285599347,854.029648013395,1054.0296480134,622.224714400653,822.224714400653,345.970351986605,545.970351986605,577.775285599347,0,0,0,0,4,0,0,5,NaN,NaN,vertical,vertical,vertical,vertical,none,none
1a,5,100113,4,49,241,21,F,NA,variable,heterogeneous,4,absent,1.77514791488647,0,horizontal,vertical,1,1.04706015586853,red,3,NaN,861.690083377915,352.574589799621,NaN,NaN,738.309916622085,847.425410200379,1047.42541020038,661.690083377915,861.690083377915,352.574589799621,552.574589799621,538.309916622085,0,0,0,0,5,3,4,5,NaN,NaN,horizontal,vertical,horizontal,horizontal,none,none
1a,5,100113,4,50,242,21,F,NA,variable,heterogeneous,5,absent,1.04501605033875,1,vertical,vertical,1,0.69411792755127,red,2,NaN,1042.51941165526,678.799333565612,NaN,NaN,800,855,1042.51941165526,678.799333565612,949.885239334581,393.700666434388,650.114760665419,393.700666434388,557.480588344736,678.799333565612,0,0,6,4,5,5,3,NaN,vertical,vertical,vertical,horizontal,horizontal,none
1a,5,100113,4,51,243,21,F,NA,variable,heterogeneous,5,present,0.786365032196045,1,horizontal,horizontal,1,0.611764740943909,red,2,5,1045.12173246427,529.712474266665,643.006323791957,800.942742169714,942.594190385041,811.404581001536,1045.12173246427,529.712474266665,808.899371659138,345.155339110131,560.378381699593,512.784863451954,643.006323791957,800.942742169714,0,0,0,4,3,0,6,NaN,vertical,horizontal,horizontal,vertical,horizontal,none
1a,5,100113,4,52,244,21,F,NA,variable,heterogeneous,4,present,0.701682090759277,1,horizontal,horizontal,1,0.976471710205078,green,2,1,1013.86099482608,461.117046071168,938.882953928832,813.860994826083,938.882953928832,813.860994826083,1013.86099482608,461.117046071168,661.117046071168,386.139005173917,586.139005173917,738.882953928832,0,0,0,0,5,4,6,6,NaN,NaN,vertical,horizontal,vertical,vertical,none,none
