experiment,subject,uniqueID,block,trial,trial_cumulative,age,gender,color_cond_blocking,color_history,shape_type,set_size,distractor,rt,acc,target_orient,response_key,response_made,iti,target_color,target_item,distractor_item,target_X,target_Y,distractor_X,distractor_Y,item1_X,item1_Y,item2_X,item2_Y,item3_X,item3_Y,item4_X,item4_Y,item5_X,item5_Y,item6_X,item6_Y,item1_shape,item2_shape,item3_shape,item4_shape,item5_shape,item6_shape,item1_line,item2_line,item3_line,item4_line,item5_line,item6_line
1a,6,100136,1,1,1,20,F,NA,variable,heterogeneous,4,present,1.60326409339905,0,horizontal,vertical,1,0.670586414337158,red,2,3,1051.12597701811,555.719714694933,755.719714694933,348.874022981887,844.280285305067,851.125977018113,1051.12597701811,555.719714694933,755.719714694933,348.874022981887,548.874022981887,644.280285305067,0,0,0,0,3,4,0,6,NaN,NaN,vertical,horizontal,horizontal,horizontal,none,none
1a,6,100136,1,2,2,20,F,NA,variable,heterogeneous,6,present,NaN,0,vertical,none,0,0.905874462127686,green,4,3,760.109211414741,348.13947314824,998.172220171528,439.523300282291,839.890788585259,851.86052685176,1038.06300875679,691.383827134052,998.172220171528,439.523300282291,760.109211414741,348.13947314824,561.936991243214,508.616172865948,601.827779828472,760.476699717708,0,0,6,4,6,5,horizontal,horizontal,horizontal,vertical,vertical,horizontal
1a,6,100136,1,3,3,20,F,NA,variable,heterogeneous,6,absent,NaN,0,horizontal,none,0,0.98822527885437,red,3,NaN,1042.51941165526,521.200666434388,NaN,NaN,746.982518841471,849.42763818712,989.501930496736,770.628304621509,1042.51941165526,521.200666434388,853.017481158529,350.57236181288,610.498069503264,429.371695378491,557.480588344736,678.799333565612,3,5,4,6,3,0,horizontal,horizontal,horizontal,horizontal,horizontal,vertical
1a,6,100136,1,4,4,20,F,NA,variable,heterogeneous,6,absent,1.90605211257935,0,vertical,horizontal,1,0.6,red,6,NaN,664.870587620533,816.252264519889,NaN,NaN,919.715248510402,825.151636179026,1054.84466088987,608.899371659138,935.129412379467,383.747735480111,680.284751489598,374.848363820974,545.155339110131,591.100628340862,664.870587620533,816.252264519889,6,3,5,0,6,4,vertical,vertical,horizontal,horizontal,vertical,vertical
1a,6,100136,1,5,5,20,F,NA,variable,heterogeneous,3,present,1.47785210609436,0,horizontal,vertical,1,0.670586414337158,red,3,1,552.574589799621,661.690083377915,977.137884467044,783.431649086356,977.137884467044,783.431649086356,870.287525733335,354.878267535729,552.574589799621,661.690083377915,0,0,0,0,0,0,3,0,4,NaN,NaN,NaN,vertical,horizontal,horizontal,none,none,none
1a,6,100136,1,6,6,20,F,NA,variable,heterogeneous,4,absent,1.88292813301086,1,horizontal,horizontal,1,0.976460876464844,red,1,NaN,946.261991269517,808.883771293693,NaN,NaN,946.261991269517,808.883771293693,1008.88377129369,453.738008730483,653.738008730483,391.116228706307,591.116228706307,746.261991269517,0,0,0,0,4,3,0,5,NaN,NaN,horizontal,vertical,horizontal,vertical,none,none
1a,6,100136,1,7,7,20,F,NA,variable,heterogeneous,4,present,1.59111499786377,1,vertical,vertical,1,0.717644023895264,red,1,4,734.001143498857,846.311085703712,553.688914296288,534.001143498857,734.001143498857,846.311085703712,1046.31108570371,665.998856501143,865.998856501143,353.688914296288,553.688914296288,534.001143498857,0,0,0,0,4,3,5,5,NaN,NaN,vertical,vertical,horizontal,horizontal,none,none
1a,6,100136,1,8,8,20,F,NA,variable,heterogeneous,3,absent,1.39217305183411,1,vertical,vertical,1,0.647057609558105,red,2,NaN,935.129412379467,383.747735480111,NaN,NaN,919.715248510402,825.151636179026,935.129412379467,383.747735480111,545.155339110131,591.100628340862,0,0,0,0,0,0,6,4,6,NaN,NaN,NaN,vertical,vertical,horizontal,none,none,none
1a,6,100136,1,9,9,20,F,NA,variable,heterogeneous,3,present,1.18406200408936,1,vertical,vertical,1,0.776466035842896,green,1,3,813.345668841951,854.650531362416,572.793336331966,484.232422566416,813.345668841951,854.650531362416,1013.86099482608,461.117046071168,572.793336331966,484.232422566416,0,0,0,0,0,0,4,6,3,NaN,NaN,NaN,vertical,vertical,vertical,none,none,none
1a,6,100136,1,10,10,20,F,NA,variable,heterogeneous,3,absent,0.785490989685059,1,vertical,vertical,1,1.08234049797058,green,1,NaN,822.224714400653,854.029648013395,NaN,NaN,822.224714400653,854.029648013395,1008.88377129369,453.738008730483,568.891514305654,492.232343256122,0,0,0,0,0,0,4,5,3,NaN,NaN,NaN,vertical,horizontal,vertical,none,none,none
1a,6,100136,1,11,11,20,F,NA,variable,heterogeneous,4,present,0.834829092025757,1,vertical,vertical,1,1.08234049797058,green,2,3,1054.37883281626,617.787900804752,817.787900804752,345.621167183745,782.212099195248,854.378832816255,1054.37883281626,617.787900804752,817.787900804752,345.621167183745,545.621167183745,582.212099195248,0,0,0,0,5,4,5,6,NaN,NaN,horizontal,vertical,vertical,vertical,none,none
1a,6,100136,1,12,12,20,F,NA,variable,heterogeneous,3,present,1.04796290397644,1,vertical,vertical,1,0.811759243011475,red,1,3,970.628304621509,789.501930496736,550.57236181288,653.017481158529,970.628304621509,789.501930496736,878.799333565612,357.480588344736,550.57236181288,653.017481158529,0,0,0,0,0,0,4,6,0,NaN,NaN,NaN,vertical,vertical,vertical,none,none,none
1a,6,100136,1,13,13,20,F,NA,variable,heterogeneous,6,absent,1.50393104553223,0,horizontal,vertical,1,0.741172828674316,green,3,NaN,1032.95409169886,496.282156015671,NaN,NaN,773.345241866748,853.60308331891,1006.29933356561,749.885239334581,1032.95409169886,496.282156015671,826.654758133252,346.39691668109,593.700666434388,450.114760665419,567.045908301137,703.717843984329,3,0,4,5,3,0,vertical,vertical,horizontal,horizontal,vertical,vertical
1a,6,100136,1,14,14,20,F,NA,variable,heterogeneous,5,present,1.34069991111755,1,vertical,vertical,1,0.929403266906738,red,2,5,1038.06300875679,691.383827134052,553.688914296288,665.998856501143,786.654331158049,854.650531362416,1038.06300875679,691.383827134052,960.476699717708,401.827779828472,661.117046071168,386.139005173917,553.688914296288,665.998856501143,0,0,0,4,5,6,6,NaN,vertical,vertical,vertical,horizontal,vertical,none
1a,6,100136,1,15,15,20,F,NA,variable,heterogeneous,3,absent,0.87208080291748,1,horizontal,horizontal,1,0.811759243011475,green,3,NaN,546.39691668109,573.345241866748,NaN,NaN,903.717843984329,832.954091698863,949.885239334581,393.700666434388,546.39691668109,573.345241866748,0,0,0,0,0,0,3,6,4,NaN,NaN,NaN,horizontal,horizontal,horizontal,none,none,none
1a,6,100136,1,16,16,20,F,NA,variable,heterogeneous,4,present,1.20648002624512,1,horizontal,horizontal,1,0.623528804779053,red,3,4,977.137884467044,416.568350913644,616.568350913644,422.862115532956,622.862115532956,783.431649086356,983.431649086356,777.137884467044,977.137884467044,416.568350913644,616.568350913644,422.862115532956,0,0,0,0,6,5,4,3,NaN,NaN,vertical,vertical,horizontal,vertical,none,none
1a,6,100136,1,17,17,20,F,NA,variable,heterogeneous,4,absent,0.762022018432617,1,horizontal,horizontal,1,0.976460876464844,green,4,NaN,545.349468637584,613.345668841951,NaN,NaN,813.345668841951,854.650531362416,1054.65053136242,586.654331158049,786.654331158049,345.349468637584,545.349468637584,613.345668841951,0,0,0,0,3,6,5,4,NaN,NaN,horizontal,vertical,vertical,horizontal,none,none
1a,6,100136,1,18,18,20,F,NA,variable,heterogeneous,6,present,1.25111985206604,0,vertical,horizontal,1,1.08234049797058,red,5,3,558.892763222174,516.980120613425,992.450942956807,432.704947607421,848.656293821019,850.314931779154,1041.10723677783,683.019879386575,992.450942956807,432.704947607421,751.343706178981,349.685068220846,558.892763222174,516.980120613425,607.549057043193,767.295052392579,3,0,5,3,4,6,horizontal,horizontal,horizontal,vertical,vertical,vertical
1a,6,100136,1,19,19,20,F,NA,variable,heterogeneous,5,absent,1.8240430355072,0,horizontal,vertical,1,0.776466035842896,red,1,NaN,891.383827134052,838.063008756786,NaN,NaN,891.383827134052,838.063008756786,1054.65053136242,586.654331158049,865.998856501143,353.688914296288,586.139005173917,461.117046071168,601.827779828472,760.476699717708,0,0,4,3,0,5,6,NaN,horizontal,vertical,horizontal,vertical,vertical,none
1a,6,100136,1,20,20,20,F,NA,variable,heterogeneous,4,present,1.16126203536987,0,horizontal,vertical,1,1.03528288841248,green,2,4,1042.51941165526,678.799333565612,557.480588344736,521.200666434388,721.200666434388,842.519411655264,1042.51941165526,678.799333565612,878.799333565612,357.480588344736,557.480588344736,521.200666434388,0,0,0,0,0,4,6,3,NaN,NaN,horizontal,horizontal,vertical,horizontal,none,none
1a,6,100136,1,21,21,20,F,NA,variable,heterogeneous,6,absent,NaN,0,vertical,none,0,0.682350816726685,red,5,NaN,672.5,379.163522034968,NaN,NaN,672.5,820.836477965032,927.5,820.836477965032,1055,600,927.5,379.163522034968,672.5,379.163522034968,545,600,3,0,6,5,4,5,horizontal,vertical,horizontal,horizontal,vertical,vertical
1a,6,100136,1,22,22,20,F,NA,variable,heterogeneous,4,absent,1.45956015586853,1,vertical,vertical,1,0.658822011947632,red,1,NaN,688.215357568785,829.192481806288,NaN,NaN,688.215357568785,829.192481806288,1029.19248180629,711.784642431215,911.784642431215,370.807518193712,570.807518193712,488.215357568785,0,0,0,0,4,3,5,0,NaN,NaN,vertical,vertical,vertical,horizontal,none,none
1a,6,100136,1,23,23,20,F,NA,variable,heterogeneous,6,present,1.12064099311829,1,horizontal,horizontal,1,0.964696474075317,green,6,5,622.862115532956,783.431649086356,552.574589799621,538.309916622085,870.287525733335,845.121732464271,1047.42541020038,661.690083377915,977.137884467044,416.568350913644,729.712474266665,354.878267535729,552.574589799621,538.309916622085,622.862115532956,783.431649086356,0,5,5,6,6,4,horizontal,vertical,vertical,horizontal,vertical,horizontal
1a,6,100136,1,24,24,20,F,NA,variable,heterogeneous,3,present,1.24392294883728,1,horizontal,horizontal,1,0.635293207168579,green,3,1,639.523300282292,401.827779828472,708.616172865948,838.063008756786,708.616172865948,838.063008756786,1051.86052685176,560.109211414741,639.523300282292,401.827779828472,0,0,0,0,0,0,5,6,4,NaN,NaN,NaN,horizontal,horizontal,horizontal,none,none,none
1a,6,100136,1,25,25,20,F,NA,variable,heterogeneous,6,present,1.30451011657715,1,horizontal,horizontal,1,0.788230438232422,green,1,6,760.109211414741,851.86052685176,561.936991243214,691.383827134052,760.109211414741,851.86052685176,998.172220171528,760.476699717708,1038.06300875679,508.616172865948,839.890788585259,348.13947314824,601.827779828472,439.523300282291,561.936991243214,691.383827134052,4,6,5,3,0,6,horizontal,vertical,horizontal,horizontal,vertical,horizontal
1a,6,100136,1,26,26,20,F,NA,variable,heterogeneous,4,absent,1.04441285133362,1,horizontal,horizontal,1,0.670586414337158,red,2,NaN,1031.10848569435,492.232343256122,NaN,NaN,907.767656743878,831.108485694346,1031.10848569435,492.232343256122,692.232343256122,368.891514305654,568.891514305654,707.767656743878,0,0,0,0,6,4,5,3,NaN,NaN,horizontal,horizontal,vertical,horizontal,none,none
1a,6,100136,1,27,27,20,F,NA,variable,heterogeneous,5,present,1.1178879737854,1,vertical,vertical,1,0.623528804779053,red,1,3,857.362518857686,848.464366520235,899.636437764765,365.271262369628,857.362518857686,848.464366520235,1054.0296480134,622.224714400653,899.636437764765,365.271262369628,607.549057043193,432.704947607421,581.422338320961,731.334709102064,0,0,4,0,6,5,5,NaN,vertical,vertical,vertical,vertical,vertical,none
1a,6,100136,1,28,28,20,F,NA,variable,heterogeneous,5,absent,1.15278601646423,1,horizontal,horizontal,1,1.01175408363342,red,1,NaN,734.001143498857,846.311085703712,NaN,NaN,734.001143498857,846.311085703712,1013.86099482608,738.882953928832,998.172220171528,439.523300282291,708.616172865948,361.936991243214,545.349468637584,613.345668841951,0,0,4,6,5,6,0,NaN,horizontal,horizontal,vertical,vertical,horizontal,none
1a,6,100136,1,29,29,20,F,NA,variable,heterogeneous,4,present,0.759866952896118,0,horizontal,vertical,1,0.98822527885437,green,1,2,980.31222920257,780.31222920257,980.31222920257,419.68777079743,980.31222920257,780.31222920257,980.31222920257,419.68777079743,619.68777079743,419.68777079743,619.68777079743,780.31222920257,0,0,0,0,4,3,6,5,NaN,NaN,horizontal,vertical,vertical,horizontal,none,none
1a,6,100136,1,30,30,20,F,NA,variable,heterogeneous,6,present,1.55721402168274,1,vertical,vertical,1,0.694115219116211,green,6,4,567.045908301137,703.717843984329,826.654758133252,346.39691668109,773.345241866748,853.60308331891,1006.29933356561,749.885239334581,1032.95409169886,496.282156015671,826.654758133252,346.39691668109,593.700666434388,450.114760665419,567.045908301137,703.717843984329,3,3,5,5,6,4,horizontal,vertical,horizontal,vertical,horizontal,vertical
1a,6,100136,1,31,31,20,F,NA,variable,heterogeneous,6,present,1.00328493118286,1,horizontal,horizontal,1,0.941167669296265,red,6,1,549.685068220846,648.656293821019,716.980120613425,841.107236777826,716.980120613425,841.107236777826,967.295052392579,792.450942956807,1050.31493177915,551.343706178981,883.019879386575,358.892763222174,632.704947607421,407.549057043193,549.685068220846,648.656293821019,5,3,3,0,0,4,horizontal,horizontal,vertical,horizontal,horizontal,horizontal
1a,6,100136,1,32,32,20,F,NA,variable,heterogeneous,5,absent,1.08815598487854,1,vertical,vertical,1,0.823523645401001,red,1,NaN,760.109211414741,851.86052685176,NaN,NaN,760.109211414741,851.86052685176,1027.20666366803,715.767577433584,980.31222920257,419.68777079743,684.232422566416,372.793336331966,548.13947314824,639.890788585259,0,0,4,5,3,0,0,NaN,vertical,vertical,vertical,vertical,vertical,none
1a,6,100136,1,33,33,20,F,NA,variable,heterogeneous,3,absent,0.866955041885376,1,vertical,vertical,1,1.047047290802,green,1,NaN,601.827779828472,760.476699717708,NaN,NaN,601.827779828472,760.476699717708,1038.06300875679,691.383827134052,760.109211414741,348.13947314824,0,0,0,0,0,0,4,3,5,NaN,NaN,NaN,vertical,horizontal,horizontal,none,none,none
1a,6,100136,1,34,34,20,F,NA,variable,heterogeneous,5,absent,0.707957029342651,1,horizontal,horizontal,1,0.776466035842896,green,1,NaN,680.284751489598,825.151636179026,NaN,NaN,680.284751489598,825.151636179026,977.137884467044,783.431649086356,1029.19248180629,488.215357568785,764.510859255183,347.4816424709,548.874022981887,555.719714694933,0,0,4,3,0,6,5,NaN,horizontal,horizontal,vertical,horizontal,vertical,none
1a,6,100136,1,35,35,20,F,NA,variable,heterogeneous,5,present,1.02287101745605,1,vertical,vertical,1,0.823523645401001,green,2,3,1054.65053136242,613.345668841951,891.383827134052,361.936991243214,865.998856501143,846.311085703712,1054.65053136242,613.345668841951,891.383827134052,361.936991243214,601.827779828472,439.523300282291,586.139005173917,738.882953928832,0,0,3,4,0,6,5,NaN,vertical,vertical,horizontal,horizontal,vertical,none
1a,6,100136,1,36,36,20,F,NA,variable,heterogeneous,4,absent,0.885179996490479,1,vertical,vertical,1,0.670586414337158,green,1,NaN,751.343706178981,850.314931779154,NaN,NaN,751.343706178981,850.314931779154,1050.31493177915,648.656293821019,848.656293821019,349.685068220846,549.685068220846,551.343706178981,0,0,0,0,4,5,6,5,NaN,NaN,vertical,vertical,horizontal,horizontal,none,none
1a,6,100136,1,37,37,20,F,NA,variable,heterogeneous,4,absent,0.910422086715698,1,vertical,vertical,1,0.776466035842896,red,4,NaN,558.892763222174,516.980120613425,NaN,NaN,716.980120613425,841.107236777826,1041.10723677783,683.019879386575,883.019879386575,358.892763222174,558.892763222174,516.980120613425,0,0,0,0,5,3,6,4,NaN,NaN,horizontal,vertical,vertical,vertical,none,none
1a,6,100136,1,38,38,20,F,NA,variable,heterogeneous,6,absent,1.54197382926941,1,vertical,vertical,1,1.05881169319153,green,2,NaN,949.885239334581,806.299333565612,NaN,NaN,696.282156015671,832.954091698863,949.885239334581,806.299333565612,1053.60308331891,573.345241866748,903.717843984329,367.045908301137,650.114760665419,393.700666434388,546.39691668109,626.654758133252,5,4,5,6,3,0,horizontal,vertical,vertical,vertical,horizontal,horizontal
1a,6,100136,1,39,39,20,F,NA,variable,heterogeneous,3,absent,0.846488952636719,1,horizontal,horizontal,1,0.870581254959106,green,2,NaN,927.5,379.163522034968,NaN,NaN,927.5,820.836477965032,927.5,379.163522034968,545,600,0,0,0,0,0,0,3,4,5,NaN,NaN,NaN,horizontal,horizontal,vertical,none,none,none
1a,6,100136,1,40,40,20,F,NA,variable,heterogeneous,5,present,0.783921003341675,1,horizontal,horizontal,1,0.611764402389526,green,3,1,989.501930496736,429.371695378491,746.982518841471,849.42763818712,746.982518841471,849.42763818712,1020.83647796503,727.5,989.501930496736,429.371695378491,696.282156015671,367.045908301137,546.39691668109,626.654758133252,0,0,6,6,4,5,0,NaN,vertical,horizontal,horizontal,vertical,vertical,none
1a,6,100136,1,41,41,20,F,NA,variable,heterogeneous,5,absent,1.16612195968628,1,vertical,vertical,1,0.717644023895264,green,1,NaN,751.343706178981,850.314931779154,NaN,NaN,751.343706178981,850.314931779154,1023.02802532055,723.626453162816,986.495193912888,426.090418184063,692.232343256122,368.891514305654,546.900731331463,631.076682568313,0,0,4,3,3,5,0,NaN,vertical,horizontal,horizontal,vertical,horizontal,none
1a,6,100136,1,42,42,20,F,NA,variable,heterogeneous,5,present,1.97611093521118,1,horizontal,horizontal,1,0.717644023895264,red,2,5,1016.25226451989,735.129412379467,545.621167183745,617.787900804752,738.309916622085,847.425410200379,1016.25226451989,735.129412379467,995.341332995339,436.089159529932,704.475318678942,363.568117085469,545.621167183745,617.787900804752,0,0,6,4,3,6,5,NaN,vertical,horizontal,horizontal,vertical,vertical,none
1a,6,100136,1,43,43,20,F,NA,variable,heterogeneous,6,absent,1.27088284492493,1,horizontal,horizontal,1,0.941167669296265,red,5,NaN,556.142287229426,525.445215295702,NaN,NaN,857.362518857686,848.464366520235,1043.85771277057,674.554784704298,986.495193912888,426.090418184063,742.637481142314,351.535633479765,556.142287229426,525.445215295702,613.504806087112,773.909581815937,5,3,6,6,4,0,horizontal,horizontal,horizontal,horizontal,horizontal,horizontal
1a,6,100136,1,44,44,20,F,NA,variable,heterogeneous,3,present,1.16765904426575,0,horizontal,vertical,1,0.964696474075317,green,1,3,684.232422566416,827.206663668034,661.117046071168,386.139005173917,684.232422566416,827.206663668034,1054.65053136242,586.654331158049,661.117046071168,386.139005173917,0,0,0,0,0,0,4,3,0,NaN,NaN,NaN,horizontal,horizontal,vertical,none,none,none
1a,6,100136,1,45,45,20,F,NA,variable,heterogeneous,3,absent,0.674776792526245,1,horizontal,horizontal,1,0.964696474075317,red,3,NaN,548.874022981887,555.719714694933,NaN,NaN,887.215136548046,839.621618300407,963.910840470068,404.658667004661,548.874022981887,555.719714694933,0,0,0,0,0,0,3,0,4,NaN,NaN,NaN,horizontal,horizontal,horizontal,none,none,none
1a,6,100136,1,46,46,20,F,NA,variable,heterogeneous,3,present,1.14753985404968,0,horizontal,vertical,1,0.764701633453369,red,2,1,1054.37883281626,617.787900804752,657.405809614959,811.404581001536,657.405809614959,811.404581001536,1054.37883281626,617.787900804752,688.215357568785,370.807518193712,0,0,0,0,0,0,3,4,0,NaN,NaN,NaN,horizontal,horizontal,vertical,none,none,none
1a,6,100136,1,47,47,20,F,NA,variable,heterogeneous,6,present,1.26759696006775,1,vertical,vertical,1,1.047047290802,red,4,3,680.284751489598,374.848363820974,935.129412379467,383.747735480111,919.715248510402,825.151636179026,1054.84466088987,608.899371659138,935.129412379467,383.747735480111,680.284751489598,374.848363820974,545.155339110131,591.100628340862,664.870587620533,816.252264519889,5,6,0,4,3,3,horizontal,horizontal,horizontal,vertical,vertical,vertical
1a,6,100136,1,48,48,20,F,NA,variable,heterogeneous,5,absent,1.54207396507263,1,horizontal,horizontal,1,1.047047290802,green,1,NaN,938.882953928832,813.860994826083,NaN,NaN,938.882953928832,813.860994826083,1046.31108570371,534.001143498857,813.345668841951,345.349468637584,561.936991243214,508.616172865948,639.523300282292,798.172220171528,0,0,4,3,5,3,0,NaN,horizontal,horizontal,horizontal,horizontal,vertical,none
1a,6,100136,1,49,49,20,F,NA,variable,heterogeneous,4,absent,1.46832394599915,1,vertical,vertical,1,0.952932071685791,green,2,NaN,1034.72873763037,699.636437764765,NaN,NaN,700.363562235235,834.728737630372,1034.72873763037,699.636437764765,899.636437764765,365.271262369628,565.271262369628,500.363562235235,0,0,0,0,3,4,6,5,NaN,NaN,horizontal,vertical,horizontal,vertical,none,none
1a,6,100136,1,50,50,20,F,NA,variable,heterogeneous,4,absent,0.961523056030273,1,horizontal,horizontal,1,0.98822527885437,green,4,NaN,610.498069503264,770.628304621509,NaN,NaN,970.628304621509,789.501930496736,989.501930496736,429.371695378491,629.371695378491,410.498069503264,610.498069503264,770.628304621509,0,0,0,0,3,5,5,4,NaN,NaN,horizontal,horizontal,horizontal,horizontal,none,none
1a,6,100136,1,51,51,20,F,NA,variable,heterogeneous,6,present,1.93689513206482,1,horizontal,horizontal,1,0.811759243011475,red,4,2,822.224714400653,345.970351986605,1008.88377129369,746.261991269517,777.775285599347,854.029648013395,1008.88377129369,746.261991269517,1031.10848569435,492.232343256122,822.224714400653,345.970351986605,591.116228706307,453.738008730483,568.891514305654,707.767656743878,0,5,6,4,3,3,vertical,horizontal,horizontal,horizontal,horizontal,horizontal
1a,6,100136,1,52,52,20,F,NA,variable,heterogeneous,5,present,1.2472620010376,1,horizontal,horizontal,1,0.764701633453369,red,1,4,755.719714694933,851.125977018113,688.215357568785,370.807518193712,755.719714694933,851.125977018113,1025.15163617903,719.715248510402,983.431649086356,422.862115532956,688.215357568785,370.807518193712,547.481642470899,635.489140744817,0,0,4,6,5,3,0,NaN,horizontal,vertical,vertical,horizontal,vertical,none
1a,6,100136,1,53,53,20,F,NA,variable,heterogeneous,6,absent,1.38952398300171,1,vertical,vertical,1,1.047047290802,green,6,NaN,588.595418998464,742.594190385041,NaN,NaN,817.787900804752,854.378832816255,1029.19248180629,711.784642431215,1011.40458100154,457.40580961496,782.212099195248,345.621167183745,570.807518193712,488.215357568785,588.595418998464,742.594190385041,5,3,0,0,3,4,horizontal,horizontal,horizontal,vertical,horizontal,vertical
1a,6,100136,1,54,54,20,F,NA,variable,heterogeneous,5,absent,0.613672971725464,1,vertical,vertical,1,0.799994840621948,green,5,NaN,588.595418998464,742.594190385041,NaN,NaN,870.287525733335,845.121732464271,1054.84466088987,608.899371659138,887.215136548046,360.378381699593,599.057257830286,443.006323791957,588.595418998464,742.594190385041,0,0,5,0,6,3,4,NaN,vertical,horizontal,horizontal,vertical,vertical,none
1a,6,100136,1,55,55,20,F,NA,variable,heterogeneous,4,present,0.70398998260498,1,vertical,vertical,1,1.09410490036011,green,2,3,1013.86099482608,461.117046071168,661.117046071168,386.139005173917,938.882953928832,813.860994826083,1013.86099482608,461.117046071168,661.117046071168,386.139005173917,586.139005173917,738.882953928832,0,0,0,0,5,4,0,6,NaN,NaN,vertical,vertical,horizontal,vertical,none,none
1a,6,100136,1,56,56,20,F,NA,variable,heterogeneous,3,absent,0.809291839599609,1,vertical,vertical,1,0.964696474075317,red,2,NaN,1034.72873763037,699.636437764765,NaN,NaN,596.34794493794,753.462830903772,1034.72873763037,699.636437764765,768.923317431687,346.900731331463,0,0,0,0,0,0,6,4,0,NaN,NaN,NaN,horizontal,vertical,horizontal,none,none,none
1a,6,100136,1,57,57,20,F,NA,variable,heterogeneous,5,present,1.62908101081848,1,horizontal,horizontal,1,0.976460876464844,green,4,1,768.923317431687,346.900731331463,676.373546837184,823.028025320546,676.373546837184,823.028025320546,973.909581815937,786.495193912888,1031.10848569435,492.232343256122,768.923317431687,346.900731331463,549.685068220846,551.343706178981,0,0,3,5,5,4,6,NaN,vertical,horizontal,horizontal,horizontal,horizontal,none
1a,6,100136,1,58,58,20,F,NA,variable,heterogeneous,6,absent,1.37779402732849,1,horizontal,horizontal,1,0.6,green,2,NaN,1054.37883281626,617.787900804752,NaN,NaN,911.784642431215,829.192481806288,1054.37883281626,617.787900804752,942.594190385041,388.595418998464,688.215357568785,370.807518193712,545.621167183745,582.212099195248,657.405809614959,811.404581001536,5,4,0,6,3,3,vertical,horizontal,vertical,horizontal,horizontal,horizontal
1a,6,100136,1,59,59,20,F,NA,variable,heterogeneous,3,present,0.663018941879272,1,vertical,vertical,1,1.07057609558105,green,2,1,1043.85771277057,525.445215295702,742.637481142314,848.464366520235,742.637481142314,848.464366520235,1043.85771277057,525.445215295702,613.504806087112,426.090418184063,0,0,0,0,0,0,6,4,5,NaN,NaN,NaN,horizontal,vertical,vertical,none,none,none
1a,6,100136,1,60,60,20,F,NA,variable,heterogeneous,3,absent,0.855209112167358,1,horizontal,horizontal,1,0.929403266906738,red,2,NaN,1039.62161830041,687.215136548046,NaN,NaN,604.658667004661,763.910840470068,1039.62161830041,687.215136548046,755.719714694933,348.874022981887,0,0,0,0,0,0,6,4,5,NaN,NaN,NaN,horizontal,horizontal,horizontal,none,none,none
1a,6,100136,1,61,61,20,F,NA,variable,heterogeneous,4,present,0.841748952865601,1,vertical,vertical,1,0.658822011947632,red,2,3,983.431649086356,422.862115532956,622.862115532956,416.568350913644,977.137884467044,783.431649086356,983.431649086356,422.862115532956,622.862115532956,416.568350913644,616.568350913644,777.137884467044,0,0,0,0,6,4,0,3,NaN,NaN,horizontal,vertical,vertical,vertical,none,none
1a,6,100136,1,62,62,20,F,NA,variable,heterogeneous,3,present,1.4957869052887,0,vertical,horizontal,1,1.05881169319153,red,2,1,1042.51941165526,521.200666434388,746.982518841471,849.42763818712,746.982518841471,849.42763818712,1042.51941165526,521.200666434388,610.498069503264,429.371695378491,0,0,0,0,0,0,6,4,3,NaN,NaN,NaN,vertical,vertical,horizontal,none,none,none
1a,6,100136,1,63,63,20,F,NA,variable,heterogeneous,5,absent,1.35841703414917,1,vertical,vertical,1,0.823523645401001,red,5,NaN,545.970351986605,622.224714400653,NaN,NaN,742.637481142314,848.464366520235,1018.57766167904,731.334709102064,992.450942956807,432.704947607421,700.363562235235,365.271262369628,545.970351986605,622.224714400653,0,0,5,3,6,0,4,NaN,vertical,vertical,vertical,horizontal,vertical,none
1a,6,100136,1,64,64,20,F,NA,variable,heterogeneous,5,present,1.81205987930298,0,vertical,horizontal,1,0.917638864517212,green,1,2,831.076682568313,853.099268668537,1050.31493177915,648.656293821019,831.076682568313,853.099268668537,1050.31493177915,648.656293821019,923.626453162816,376.971974679454,626.090418184063,413.504806087112,568.891514305654,707.767656743878,0,0,4,0,3,6,6,NaN,vertical,vertical,horizontal,horizontal,vertical,none
1a,6,100136,2,1,65,20,F,NA,variable,heterogeneous,6,absent,1.58198189735413,1,vertical,vertical,1,0.999989681243896,green,1,NaN,716.980120613425,841.107236777826,NaN,NaN,716.980120613425,841.107236777826,967.295052392579,792.450942956807,1050.31493177915,551.343706178981,883.019879386575,358.892763222174,632.704947607421,407.549057043193,549.685068220846,648.656293821019,4,6,3,5,0,3,vertical,vertical,horizontal,horizontal,vertical,horizontal
1a,6,100136,2,2,66,20,F,NA,variable,heterogeneous,4,present,1.33858394622803,1,horizontal,horizontal,1,0.847052450180054,red,1,3,708.616172865948,838.063008756786,891.383827134052,361.936991243214,708.616172865948,838.063008756786,1038.06300875679,691.383827134052,891.383827134052,361.936991243214,561.936991243214,508.616172865948,0,0,0,0,4,5,6,0,NaN,NaN,horizontal,vertical,horizontal,horizontal,none,none
1a,6,100136,2,3,67,20,F,NA,variable,heterogeneous,6,present,1.15325617790222,1,horizontal,horizontal,1,0.98822527885437,red,4,1,688.215357568785,370.807518193712,911.784642431215,829.192481806288,911.784642431215,829.192481806288,1054.37883281626,617.787900804752,942.594190385041,388.595418998464,688.215357568785,370.807518193712,545.621167183745,582.212099195248,657.405809614959,811.404581001536,5,6,0,4,3,6,vertical,horizontal,horizontal,horizontal,horizontal,horizontal
1a,6,100136,2,4,68,20,F,NA,variable,heterogeneous,6,present,1.01018905639648,1,vertical,vertical,1,0.882345657348633,red,6,5,596.34794493794,753.462830903772,565.271262369628,500.363562235235,831.076682568313,853.099268668537,1034.72873763037,699.636437764765,1003.65205506206,446.537169096228,768.923317431687,346.900731331463,565.271262369628,500.363562235235,596.34794493794,753.462830903772,5,6,0,6,3,4,vertical,vertical,horizontal,horizontal,vertical,vertical
1a,6,100136,2,5,69,20,F,NA,variable,heterogeneous,5,present,0.844652891159058,1,vertical,vertical,1,0.705879621505737,red,3,2,895.524681321058,363.568117085469,1054.37883281626,617.787900804752,861.690083377915,847.425410200379,1054.37883281626,617.787900804752,895.524681321058,363.568117085469,604.658667004661,436.089159529932,583.747735480111,735.129412379467,0,0,6,6,4,0,5,NaN,horizontal,vertical,vertical,vertical,vertical,none
1a,6,100136,2,6,70,20,F,NA,variable,heterogeneous,5,present,1.45677280426025,1,horizontal,horizontal,1,0.764701633453369,red,3,4,1025.15163617903,480.284751489598,755.719714694933,348.874022981887,688.215357568785,829.192481806288,983.431649086356,777.137884467044,1025.15163617903,480.284751489598,755.719714694933,348.874022981887,547.481642470899,564.510859255183,0,0,6,5,4,3,5,NaN,vertical,vertical,horizontal,vertical,horizontal,none
1a,6,100136,2,7,71,20,F,NA,variable,heterogeneous,4,present,0.789206027984619,1,horizontal,horizontal,1,0.952932071685791,green,4,2,601.827779828472,760.476699717708,998.172220171528,439.523300282291,960.476699717708,798.172220171528,998.172220171528,439.523300282291,639.523300282292,401.827779828472,601.827779828472,760.476699717708,0,0,0,0,6,6,3,4,NaN,NaN,vertical,vertical,vertical,horizontal,none,none
1a,6,100136,2,8,72,20,F,NA,variable,heterogeneous,5,absent,0.669189929962158,1,horizontal,horizontal,1,0.6,red,2,NaN,1051.86052685176,639.890788585259,NaN,NaN,839.890788585259,851.86052685176,1051.86052685176,639.890788585259,915.767577433584,372.793336331966,619.68777079743,419.68777079743,572.793336331966,715.767577433584,0,0,6,4,5,5,3,NaN,horizontal,horizontal,horizontal,horizontal,vertical,none
1a,6,100136,2,9,73,20,F,NA,variable,heterogeneous,5,absent,0.66638708114624,1,horizontal,horizontal,1,0.776466035842896,red,1,NaN,664.870587620533,816.252264519889,NaN,NaN,664.870587620533,816.252264519889,963.910840470068,795.341332995339,1036.43188291453,504.475318678942,782.212099195248,345.621167183745,552.574589799621,538.309916622085,0,0,4,5,3,6,0,NaN,horizontal,horizontal,horizontal,horizontal,vertical,none
1a,6,100136,2,10,74,20,F,NA,variable,heterogeneous,4,present,1.08344388008118,1,vertical,vertical,1,0.976460876464844,red,3,2,949.885239334581,393.700666434388,1006.29933356561,749.885239334581,650.114760665419,806.299333565612,1006.29933356561,749.885239334581,949.885239334581,393.700666434388,593.700666434388,450.114760665419,0,0,0,0,5,3,4,0,NaN,NaN,horizontal,horizontal,vertical,vertical,none,none
1a,6,100136,2,11,75,20,F,NA,variable,heterogeneous,4,absent,0.564958095550537,1,vertical,vertical,1,0.976460876464844,green,2,NaN,1018.57766167904,468.665290897936,NaN,NaN,931.334709102064,818.577661679039,1018.57766167904,468.665290897936,668.665290897936,381.422338320961,581.422338320961,731.334709102064,0,0,0,0,3,4,3,0,NaN,NaN,vertical,vertical,horizontal,horizontal,none,none
1a,6,100136,2,12,76,20,F,NA,variable,heterogeneous,6,absent,1.21858811378479,0,horizontal,vertical,1,0.705879621505737,green,2,NaN,938.882953928832,813.860994826083,NaN,NaN,684.232422566416,827.206663668034,938.882953928832,813.860994826083,1054.65053136242,586.654331158049,915.767577433584,372.793336331966,661.117046071168,386.139005173917,545.349468637584,613.345668841951,3,4,3,0,5,5,vertical,horizontal,horizontal,horizontal,vertical,vertical
1a,6,100136,2,13,77,20,F,NA,variable,heterogeneous,4,present,1.12206292152405,1,vertical,vertical,1,0.952932071685791,red,3,1,853.017481158529,350.57236181288,746.982518841471,849.42763818712,746.982518841471,849.42763818712,1049.42763818712,653.017481158529,853.017481158529,350.57236181288,550.57236181288,546.982518841471,0,0,0,0,6,0,4,6,NaN,NaN,vertical,vertical,vertical,horizontal,none,none
1a,6,100136,2,14,78,20,F,NA,variable,heterogeneous,4,absent,1.01337814331055,1,vertical,vertical,1,0.835288047790527,green,1,NaN,891.383827134052,838.063008756786,NaN,NaN,891.383827134052,838.063008756786,1038.06300875679,508.616172865948,708.616172865948,361.936991243214,561.936991243214,691.383827134052,0,0,0,0,4,5,5,0,NaN,NaN,vertical,horizontal,horizontal,vertical,none,none
1a,6,100136,2,15,79,20,F,NA,variable,heterogeneous,6,present,0.785871028900146,1,horizontal,horizontal,1,0.788230438232422,green,4,3,725.445215295702,356.142287229426,973.909581815937,413.504806087112,874.554784704298,843.857712770574,1048.46436652023,657.362518857686,973.909581815937,413.504806087112,725.445215295702,356.142287229426,551.535633479765,542.637481142314,626.090418184063,786.495193912888,6,0,5,4,6,5,horizontal,vertical,horizontal,horizontal,horizontal,vertical
1a,6,100136,2,16,80,20,F,NA,variable,heterogeneous,4,absent,0.674170970916748,1,vertical,vertical,1,1.03528288841248,red,3,NaN,657.405809614959,388.595418998464,NaN,NaN,942.594190385041,811.404581001536,1011.40458100154,457.40580961496,657.405809614959,388.595418998464,588.595418998464,742.594190385041,0,0,0,0,5,6,4,0,NaN,NaN,vertical,horizontal,vertical,vertical,none,none
1a,6,100136,2,17,81,20,F,NA,variable,heterogeneous,6,absent,0.804609060287476,0,horizontal,vertical,1,0.835288047790527,red,5,NaN,586.139005173917,461.117046071168,NaN,NaN,786.654331158049,854.650531362416,1013.86099482608,738.882953928832,1027.20666366803,484.232422566416,813.345668841951,345.349468637584,586.139005173917,461.117046071168,572.793336331966,715.767577433584,6,0,5,6,4,3,vertical,vertical,vertical,horizontal,horizontal,horizontal
1a,6,100136,2,18,82,20,F,NA,variable,heterogeneous,5,present,NaN,0,horizontal,none,0,0.799994840621948,green,2,5,1054.0296480134,622.224714400653,581.422338320961,731.334709102064,857.362518857686,848.464366520235,1054.0296480134,622.224714400653,899.636437764765,365.271262369628,607.549057043193,432.704947607421,581.422338320961,731.334709102064,0,0,6,4,3,5,6,NaN,horizontal,horizontal,horizontal,horizontal,horizontal,none
1a,6,100136,2,19,83,20,F,NA,variable,heterogeneous,3,absent,0.935153961181641,0,vertical,horizontal,1,1.09410490036011,red,3,NaN,626.090418184063,413.504806087112,NaN,NaN,725.445215295702,843.857712770574,1048.46436652023,542.637481142314,626.090418184063,413.504806087112,0,0,0,0,0,0,5,6,4,NaN,NaN,NaN,vertical,horizontal,vertical,none,none,none
1a,6,100136,2,20,84,20,F,NA,variable,heterogeneous,6,absent,1.40947103500366,1,horizontal,horizontal,1,0.776466035842896,green,2,NaN,967.295052392579,792.450942956807,NaN,NaN,716.980120613425,841.107236777826,967.295052392579,792.450942956807,1050.31493177915,551.343706178981,883.019879386575,358.892763222174,632.704947607421,407.549057043193,549.685068220846,648.656293821019,6,4,5,6,0,3,vertical,horizontal,horizontal,vertical,vertical,horizontal
1a,6,100136,2,21,85,20,F,NA,variable,heterogeneous,6,absent,0.501744031906128,1,vertical,vertical,1,0.999989681243896,green,3,NaN,973.909581815937,413.504806087112,NaN,NaN,874.554784704298,843.857712770574,1048.46436652023,657.362518857686,973.909581815937,413.504806087112,725.445215295702,356.142287229426,551.535633479765,542.637481142314,626.090418184063,786.495193912888,6,5,4,0,5,0,horizontal,vertical,vertical,vertical,horizontal,horizontal
1a,6,100136,2,22,86,20,F,NA,variable,heterogeneous,6,present,0.966236114501953,1,vertical,vertical,1,0.917638864517212,green,3,5,1054.65053136242,586.654331158049,661.117046071168,386.139005173917,684.232422566416,827.206663668034,938.882953928832,813.860994826083,1054.65053136242,586.654331158049,915.767577433584,372.793336331966,661.117046071168,386.139005173917,545.349468637584,613.345668841951,6,0,4,6,5,3,vertical,horizontal,vertical,vertical,vertical,horizontal
1a,6,100136,2,23,87,20,F,NA,variable,heterogeneous,3,present,0.771170854568481,0,vertical,horizontal,1,0.658822011947632,green,1,3,622.862115532956,783.431649086356,729.712474266665,354.878267535729,622.862115532956,783.431649086356,1047.42541020038,661.690083377915,729.712474266665,354.878267535729,0,0,0,0,0,0,4,5,3,NaN,NaN,NaN,vertical,horizontal,vertical,none,none,none
1a,6,100136,2,24,88,20,F,NA,variable,heterogeneous,5,absent,0.729667186737061,1,vertical,vertical,1,0.752937231063843,green,1,NaN,712.784863451954,839.621618300407,NaN,NaN,712.784863451954,839.621618300407,1000.94274216971,756.993676208043,1011.40458100154,457.40580961496,729.712474266665,354.878267535729,545.155339110131,591.100628340862,0,0,4,6,5,3,6,NaN,vertical,horizontal,horizontal,horizontal,vertical,none
1a,6,100136,2,25,89,20,F,NA,variable,heterogeneous,5,present,1.0552351474762,1,horizontal,horizontal,1,0.741172828674316,red,1,4,712.784863451954,839.621618300407,729.712474266665,354.878267535729,712.784863451954,839.621618300407,1000.94274216971,756.993676208043,1011.40458100154,457.40580961496,729.712474266665,354.878267535729,545.155339110131,591.100628340862,0,0,4,0,3,6,5,NaN,horizontal,vertical,horizontal,horizontal,vertical,none
1a,6,100136,2,26,90,20,F,NA,variable,heterogeneous,3,present,0.561314105987549,0,horizontal,vertical,1,1.03528288841248,red,1,3,915.767577433584,827.206663668034,545.349468637584,586.654331158049,915.767577433584,827.206663668034,938.882953928832,386.139005173917,545.349468637584,586.654331158049,0,0,0,0,0,0,4,3,0,NaN,NaN,NaN,horizontal,vertical,horizontal,none,none,none
1a,6,100136,2,27,91,20,F,NA,variable,heterogeneous,5,absent,1.1962251663208,0,vertical,horizontal,1,0.976460876464844,red,5,NaN,545.155339110131,608.899371659138,NaN,NaN,729.712474266665,845.121732464271,1011.40458100154,742.594190385041,1000.94274216971,443.006323791957,712.784863451954,360.378381699593,545.155339110131,608.899371659138,0,0,6,5,3,5,4,NaN,vertical,horizontal,vertical,horizontal,vertical,none
1a,6,100136,2,28,92,20,F,NA,variable,heterogeneous,5,absent,1.30018782615662,1,vertical,vertical,1,0.6,red,4,NaN,567.045908301137,496.282156015671,NaN,NaN,927.5,820.836477965032,1049.42763818712,546.982518841471,826.654758133252,346.39691668109,567.045908301137,496.282156015671,629.371695378491,789.501930496736,0,0,0,0,5,4,5,NaN,horizontal,horizontal,vertical,vertical,vertical,none
1a,6,100136,2,29,93,20,F,NA,variable,heterogeneous,5,absent,1.56880807876587,1,horizontal,horizontal,1,0.905874462127686,green,2,NaN,1039.62161830041,687.215136548046,NaN,NaN,791.100628340862,854.844660889869,1039.62161830041,687.215136548046,956.993676208043,399.057257830286,657.405809614959,388.595418998464,554.878267535729,670.287525733335,0,0,0,4,3,6,0,NaN,vertical,horizontal,horizontal,horizontal,vertical,none
1a,6,100136,2,30,94,20,F,NA,variable,heterogeneous,6,absent,1.50325894355774,1,vertical,vertical,1,0.952932071685791,red,4,NaN,899.636437764765,365.271262369628,NaN,NaN,700.363562235235,834.728737630372,953.462830903772,803.65205506206,1053.09926866854,568.923317431687,899.636437764765,365.271262369628,646.537169096228,396.34794493794,546.900731331463,631.076682568313,3,3,5,4,0,6,horizontal,horizontal,vertical,vertical,vertical,vertical
1a,6,100136,2,31,95,20,F,NA,variable,heterogeneous,4,present,1.05734491348267,1,vertical,vertical,1,0.98822527885437,green,2,4,1018.57766167904,468.665290897936,581.422338320961,731.334709102064,931.334709102064,818.577661679039,1018.57766167904,468.665290897936,668.665290897936,381.422338320961,581.422338320961,731.334709102064,0,0,0,0,0,4,3,3,NaN,NaN,vertical,vertical,vertical,horizontal,none,none
1a,6,100136,2,32,96,20,F,NA,variable,heterogeneous,3,present,0.559183835983276,1,horizontal,horizontal,1,0.835288047790527,green,2,3,949.885239334581,393.700666434388,546.39691668109,573.345241866748,903.717843984329,832.954091698863,949.885239334581,393.700666434388,546.39691668109,573.345241866748,0,0,0,0,0,0,0,4,0,NaN,NaN,NaN,horizontal,horizontal,horizontal,none,none,none
1a,6,100136,2,33,97,20,F,NA,variable,heterogeneous,3,absent,0.628513097763062,1,vertical,vertical,1,0.694115219116211,green,2,NaN,1054.84466088987,591.100628340862,NaN,NaN,680.284751489598,825.151636179026,1054.84466088987,591.100628340862,664.870587620533,383.747735480111,0,0,0,0,0,0,3,4,0,NaN,NaN,NaN,horizontal,vertical,horizontal,none,none,none
1a,6,100136,2,34,98,20,F,NA,variable,heterogeneous,4,present,0.923041820526123,1,vertical,vertical,1,0.894110059738159,green,1,3,795.549636358493,854.96116226488,804.450363641507,345.03883773512,795.549636358493,854.96116226488,1054.96116226488,604.450363641507,804.450363641507,345.03883773512,545.03883773512,595.549636358493,0,0,0,0,4,0,6,6,NaN,NaN,vertical,vertical,horizontal,vertical,none,none
1a,6,100136,2,35,99,20,F,NA,variable,heterogeneous,4,absent,0.941951036453247,1,horizontal,horizontal,1,0.811759243011475,red,1,NaN,967.295052392579,792.450942956807,NaN,NaN,967.295052392579,792.450942956807,992.450942956807,432.704947607421,632.704947607421,407.549057043193,607.549057043193,767.295052392579,0,0,0,0,4,5,6,0,NaN,NaN,horizontal,vertical,horizontal,horizontal,none,none
1a,6,100136,2,36,100,20,F,NA,variable,heterogeneous,4,absent,0.704637050628662,1,horizontal,horizontal,1,0.964696474075317,green,3,NaN,861.690083377915,352.574589799621,NaN,NaN,738.309916622085,847.425410200379,1047.42541020038,661.690083377915,861.690083377915,352.574589799621,552.574589799621,538.309916622085,0,0,0,0,0,3,4,0,NaN,NaN,horizontal,vertical,horizontal,vertical,none,none
1a,6,100136,2,37,101,20,F,NA,variable,heterogeneous,6,absent,0.472455024719238,1,horizontal,horizontal,1,1.08234049797058,red,4,NaN,891.383827134052,361.936991243214,NaN,NaN,708.616172865948,838.063008756786,960.476699717708,798.172220171528,1051.86052685176,560.109211414741,891.383827134052,361.936991243214,639.523300282292,401.827779828472,548.13947314824,639.890788585259,0,0,3,4,6,6,vertical,vertical,horizontal,horizontal,vertical,vertical
1a,6,100136,2,38,102,20,F,NA,variable,heterogeneous,5,present,0.761123895645142,0,horizontal,vertical,1,0.941167669296265,green,1,4,915.767577433584,827.206663668034,572.793336331966,484.232422566416,915.767577433584,827.206663668034,1051.86052685176,560.109211414741,839.890788585259,348.13947314824,572.793336331966,484.232422566416,619.68777079743,780.31222920257,0,0,4,0,6,0,6,NaN,horizontal,vertical,vertical,vertical,horizontal,none
1a,6,100136,2,39,103,20,F,NA,variable,heterogeneous,4,absent,0.932622909545898,0,horizontal,vertical,1,0.823523645401001,green,4,NaN,567.045908301137,703.717843984329,NaN,NaN,903.717843984329,832.954091698863,1032.95409169886,496.282156015671,696.282156015671,367.045908301137,567.045908301137,703.717843984329,0,0,0,0,0,5,3,4,NaN,NaN,vertical,vertical,vertical,horizontal,none,none
1a,6,100136,2,40,104,20,F,NA,variable,heterogeneous,4,absent,1.53693699836731,1,horizontal,horizontal,1,0.870581254959106,red,3,NaN,680.284751489598,374.848363820974,NaN,NaN,919.715248510402,825.151636179026,1025.15163617903,480.284751489598,680.284751489598,374.848363820974,574.848363820974,719.715248510402,0,0,0,0,5,5,4,3,NaN,NaN,vertical,vertical,horizontal,vertical,none,none
1a,6,100136,2,41,105,20,F,NA,variable,heterogeneous,6,present,0.749573945999146,1,vertical,vertical,1,1.07057609558105,green,2,6,1018.57766167904,731.334709102064,576.971974679454,723.626453162816,795.549636358493,854.96116226488,1018.57766167904,731.334709102064,1023.02802532055,476.373546837184,804.450363641507,345.03883773512,581.422338320961,468.665290897936,576.971974679454,723.626453162816,6,4,0,6,3,0,horizontal,vertical,vertical,vertical,vertical,horizontal
1a,6,100136,2,42,106,20,F,NA,variable,heterogeneous,3,present,0.546455860137939,1,vertical,vertical,1,0.905874462127686,red,2,1,1020.83647796503,472.5,800,855,800,855,1020.83647796503,472.5,579.163522034968,472.5,0,0,0,0,0,0,0,4,6,NaN,NaN,NaN,horizontal,vertical,horizontal,none,none,none
1a,6,100136,2,43,107,20,F,NA,variable,heterogeneous,3,absent,0.470838069915771,1,vertical,vertical,1,1.05881169319153,red,2,NaN,973.909581815937,413.504806087112,NaN,NaN,874.554784704298,843.857712770574,973.909581815937,413.504806087112,551.535633479765,542.637481142314,0,0,0,0,0,0,6,4,3,NaN,NaN,NaN,horizontal,vertical,vertical,none,none,none
1a,6,100136,2,44,108,20,F,NA,variable,heterogeneous,3,present,0.678468942642212,1,vertical,vertical,1,0.894110059738159,red,3,1,553.688914296288,665.998856501143,980.31222920257,780.31222920257,980.31222920257,780.31222920257,865.998856501143,353.688914296288,553.688914296288,665.998856501143,0,0,0,0,0,0,5,6,4,NaN,NaN,NaN,horizontal,horizontal,vertical,none,none,none
1a,6,100136,2,45,109,20,F,NA,variable,heterogeneous,3,present,0.76552414894104,1,horizontal,horizontal,1,1.07057609558105,red,3,2,551.535633479765,657.362518857686,874.554784704298,356.142287229426,973.909581815937,786.495193912888,874.554784704298,356.142287229426,551.535633479765,657.362518857686,0,0,0,0,0,0,3,5,4,NaN,NaN,NaN,vertical,horizontal,horizontal,none,none,none
1a,6,100136,2,46,110,20,F,NA,variable,heterogeneous,3,absent,0.625079870223999,1,horizontal,horizontal,1,1.01175408363342,red,2,NaN,942.594190385041,388.595418998464,NaN,NaN,911.784642431215,829.192481806288,942.594190385041,388.595418998464,545.621167183745,582.212099195248,0,0,0,0,0,0,0,4,5,NaN,NaN,NaN,horizontal,horizontal,horizontal,none,none,none
1a,6,100136,2,47,111,20,F,NA,variable,heterogeneous,6,present,0.613564014434814,1,horizontal,horizontal,1,0.976460876464844,red,3,2,949.885239334581,393.700666434388,1053.60308331891,626.654758133252,903.717843984329,832.954091698863,1053.60308331891,626.654758133252,949.885239334581,393.700666434388,696.282156015671,367.045908301137,546.39691668109,573.345241866748,650.114760665419,806.299333565612,3,5,4,6,0,5,vertical,vertical,horizontal,horizontal,vertical,vertical
1a,6,100136,2,48,112,20,F,NA,variable,heterogeneous,3,absent,1.64747285842896,1,horizontal,horizontal,1,0.870581254959106,green,2,NaN,1053.09926866854,631.076682568313,NaN,NaN,646.537169096228,803.65205506206,1053.09926866854,631.076682568313,700.363562235235,365.271262369628,0,0,0,0,0,0,5,4,5,NaN,NaN,NaN,horizontal,horizontal,vertical,none,none,none
1a,6,100136,2,49,113,20,F,NA,variable,heterogeneous,4,absent,0.603353023529053,1,vertical,vertical,1,0.72940842628479,red,4,NaN,576.971974679454,723.626453162816,NaN,NaN,923.626453162816,823.028025320546,1023.02802532055,476.373546837184,676.373546837184,376.971974679454,576.971974679454,723.626453162816,0,0,0,0,6,3,5,4,NaN,NaN,vertical,vertical,vertical,vertical,none,none
1a,6,100136,2,50,114,20,F,NA,variable,heterogeneous,6,present,NaN,0,horizontal,none,0,0.941167669296265,green,3,1,1003.65205506206,446.537169096228,831.076682568313,853.099268668537,831.076682568313,853.099268668537,1034.72873763037,699.636437764765,1003.65205506206,446.537169096228,768.923317431687,346.900731331463,565.271262369628,500.363562235235,596.34794493794,753.462830903772,0,5,4,3,0,3,vertical,vertical,horizontal,vertical,vertical,horizontal
1a,6,100136,2,51,115,20,F,NA,variable,heterogeneous,3,absent,0.735760927200317,1,horizontal,horizontal,1,0.847052450180054,green,3,NaN,622.862115532956,416.568350913644,NaN,NaN,729.712474266665,845.121732464271,1047.42541020038,538.309916622085,622.862115532956,416.568350913644,0,0,0,0,0,0,0,5,4,NaN,NaN,NaN,horizontal,vertical,horizontal,none,none,none
1a,6,100136,2,52,116,20,F,NA,variable,heterogeneous,6,absent,0.952723979949951,1,vertical,vertical,1,0.705879621505737,red,4,NaN,746.982518841471,350.57236181288,NaN,NaN,853.017481158529,849.42763818712,1042.51941165526,678.799333565612,989.501930496736,429.371695378491,746.982518841471,350.57236181288,557.480588344736,521.200666434388,610.498069503264,770.628304621509,3,0,3,4,6,5,horizontal,vertical,vertical,vertical,horizontal,horizontal
1a,6,100136,2,53,117,20,F,NA,variable,heterogeneous,3,present,0.780458927154541,1,horizontal,horizontal,1,0.823523645401001,green,2,1,919.715248510402,374.848363820974,935.129412379467,816.252264519889,935.129412379467,816.252264519889,919.715248510402,374.848363820974,545.155339110131,608.899371659138,0,0,0,0,0,0,3,4,0,NaN,NaN,NaN,horizontal,horizontal,vertical,none,none,none
1a,6,100136,2,54,118,20,F,NA,variable,heterogeneous,5,present,1.18753004074097,0,vertical,horizontal,1,0.964696474075317,green,1,5,696.282156015671,832.954091698863,546.39691668109,573.345241866748,696.282156015671,832.954091698863,989.501930496736,770.628304621509,1020.83647796503,472.5,746.982518841471,350.57236181288,546.39691668109,573.345241866748,0,0,4,0,6,0,3,NaN,vertical,horizontal,vertical,vertical,vertical,none
1a,6,100136,2,55,119,20,F,NA,variable,heterogeneous,4,present,NaN,0,horizontal,none,0,1.02351848602295,red,4,2,545.349468637584,613.345668841951,1054.65053136242,586.654331158049,813.345668841951,854.650531362416,1054.65053136242,586.654331158049,786.654331158049,345.349468637584,545.349468637584,613.345668841951,0,0,0,0,6,3,5,4,NaN,NaN,vertical,horizontal,horizontal,horizontal,none,none
1a,6,100136,2,56,120,20,F,NA,variable,heterogeneous,6,present,1.12931799888611,1,vertical,vertical,1,0.847052450180054,red,1,6,684.232422566416,827.206663668034,545.349468637584,613.345668841951,684.232422566416,827.206663668034,938.882953928832,813.860994826083,1054.65053136242,586.654331158049,915.767577433584,372.793336331966,661.117046071168,386.139005173917,545.349468637584,613.345668841951,4,3,6,6,5,0,vertical,horizontal,horizontal,horizontal,horizontal,vertical
1a,6,100136,2,57,121,20,F,NA,variable,heterogeneous,5,present,0.807447910308838,1,vertical,vertical,1,0.764701633453369,red,4,5,593.700666434388,450.114760665419,593.700666434388,749.885239334581,878.799333565612,842.519411655264,1055,600,878.799333565612,357.480588344736,593.700666434388,450.114760665419,593.700666434388,749.885239334581,0,0,6,0,3,4,5,NaN,vertical,horizontal,horizontal,vertical,horizontal,none
1a,6,100136,2,58,122,20,F,NA,variable,heterogeneous,4,present,1.2070939540863,1,horizontal,horizontal,1,0.964696474075317,green,2,1,1051.86052685176,639.890788585259,760.109211414741,851.86052685176,760.109211414741,851.86052685176,1051.86052685176,639.890788585259,839.890788585259,348.13947314824,548.13947314824,560.109211414741,0,0,0,0,3,4,5,0,NaN,NaN,horizontal,horizontal,horizontal,vertical,none,none
1a,6,100136,2,59,123,20,F,NA,variable,heterogeneous,5,present,0.928097009658813,1,vertical,vertical,1,1.03528288841248,green,5,3,554.878267535729,529.712474266665,1039.62161830041,512.784863451954,657.405809614959,811.404581001536,956.993676208043,800.942742169714,1039.62161830041,512.784863451954,791.100628340862,345.155339110131,554.878267535729,529.712474266665,0,0,6,5,0,5,4,NaN,horizontal,vertical,vertical,horizontal,vertical,none
1a,6,100136,2,60,124,20,F,NA,variable,heterogeneous,5,absent,0.938011884689331,1,horizontal,horizontal,1,0.952932071685791,green,3,NaN,870.287525733335,354.878267535729,NaN,NaN,887.215136548046,839.621618300407,1054.84466088987,591.100628340862,870.287525733335,354.878267535729,588.595418998464,457.40580961496,599.057257830286,756.993676208043,0,0,3,0,4,5,5,NaN,horizontal,vertical,horizontal,horizontal,horizontal,none
1a,6,100136,2,61,125,20,F,NA,variable,heterogeneous,5,absent,0.993237018585205,1,vertical,vertical,1,0.811759243011475,green,2,NaN,1027.20666366803,715.767577433584,NaN,NaN,760.109211414741,851.86052685176,1027.20666366803,715.767577433584,980.31222920257,419.68777079743,684.232422566416,372.793336331966,548.13947314824,639.890788585259,0,0,3,4,5,6,6,NaN,horizontal,vertical,horizontal,horizontal,vertical,none
1a,6,100136,2,62,126,20,F,NA,variable,heterogeneous,3,absent,0.692471027374268,1,horizontal,horizontal,1,0.964696474075317,red,1,NaN,613.504806087112,773.909581815937,NaN,NaN,613.504806087112,773.909581815937,1043.85771277057,674.554784704298,742.637481142314,351.535633479765,0,0,0,0,0,0,4,6,0,NaN,NaN,NaN,horizontal,vertical,vertical,none,none,none
1a,6,100136,2,63,127,20,F,NA,variable,heterogeneous,3,absent,0.741459131240845,1,vertical,vertical,1,0.952932071685791,green,1,NaN,751.343706178981,850.314931779154,NaN,NaN,751.343706178981,850.314931779154,1041.10723677783,516.980120613425,607.549057043193,432.704947607421,0,0,0,0,0,0,4,0,5,NaN,NaN,NaN,vertical,horizontal,vertical,none,none,none
1a,6,100136,2,64,128,20,F,NA,variable,heterogeneous,3,present,1.22290897369385,1,vertical,vertical,1,0.717644023895264,green,2,1,1038.06300875679,691.383827134052,601.827779828472,760.476699717708,601.827779828472,760.476699717708,1038.06300875679,691.383827134052,760.109211414741,348.13947314824,0,0,0,0,0,0,5,4,6,NaN,NaN,NaN,horizontal,vertical,horizontal,none,none,none
1a,6,100136,3,1,129,20,F,NA,variable,heterogeneous,4,absent,1.13386011123657,1,horizontal,horizontal,1,0.776466035842896,green,4,NaN,545.03883773512,604.450363641507,NaN,NaN,804.450363641507,854.96116226488,1054.96116226488,595.549636358493,795.549636358493,345.03883773512,545.03883773512,604.450363641507,0,0,0,0,0,3,6,4,NaN,NaN,horizontal,horizontal,horizontal,horizontal,none,none
1a,6,100136,3,2,130,20,F,NA,variable,heterogeneous,3,present,0.611991882324219,1,horizontal,horizontal,1,0.964696474075317,green,3,1,568.891514305654,707.767656743878,1008.88377129369,746.261991269517,1008.88377129369,746.261991269517,822.224714400653,345.970351986605,568.891514305654,707.767656743878,0,0,0,0,0,0,5,6,4,NaN,NaN,NaN,horizontal,horizontal,horizontal,none,none,none
1a,6,100136,3,3,131,20,F,NA,variable,heterogeneous,3,absent,0.489161968231201,1,vertical,vertical,1,0.635293207168579,red,2,NaN,1036.43188291453,695.524681321058,NaN,NaN,599.057257830286,756.993676208043,1036.43188291453,695.524681321058,764.510859255183,347.4816424709,0,0,0,0,0,0,5,4,3,NaN,NaN,NaN,vertical,vertical,vertical,none,none,none
1a,6,100136,3,4,132,20,F,NA,variable,heterogeneous,5,absent,1.20930600166321,1,vertical,vertical,1,0.705879621505737,green,3,NaN,998.172220171528,439.523300282291,NaN,NaN,734.001143498857,846.311085703712,1013.86099482608,738.882953928832,998.172220171528,439.523300282291,708.616172865948,361.936991243214,545.349468637584,613.345668841951,0,0,6,3,4,0,6,NaN,horizontal,horizontal,vertical,vertical,horizontal,none
1a,6,100136,3,5,133,20,F,NA,variable,heterogeneous,5,present,0.672100067138672,1,horizontal,horizontal,1,0.717644023895264,red,3,1,919.715248510402,374.848363820974,835.489140744817,852.518357529101,835.489140744817,852.518357529101,1051.12597701811,644.280285305067,919.715248510402,374.848363820974,622.862115532956,416.568350913644,570.807518193712,711.784642431215,0,0,3,0,4,5,6,NaN,vertical,horizontal,horizontal,horizontal,horizontal,none
1a,6,100136,3,6,134,20,F,NA,variable,heterogeneous,4,absent,0.540593147277832,1,horizontal,horizontal,1,0.952932071685791,red,3,NaN,755.719714694933,348.874022981887,NaN,NaN,844.280285305067,851.125977018113,1051.12597701811,555.719714694933,755.719714694933,348.874022981887,548.874022981887,644.280285305067,0,0,0,0,0,5,4,5,NaN,NaN,horizontal,horizontal,horizontal,horizontal,none,none
1a,6,100136,3,7,135,20,F,NA,variable,heterogeneous,4,present,0.731756210327148,1,vertical,vertical,1,0.999989681243896,red,1,3,915.767577433584,827.206663668034,684.232422566416,372.793336331966,915.767577433584,827.206663668034,1027.20666366803,484.232422566416,684.232422566416,372.793336331966,572.793336331966,715.767577433584,0,0,0,0,4,0,5,0,NaN,NaN,vertical,vertical,vertical,vertical,none,none
1a,6,100136,3,8,136,20,F,NA,variable,heterogeneous,3,absent,0.717545032501221,1,horizontal,horizontal,1,0.952932071685791,red,3,NaN,550.57236181288,546.982518841471,NaN,NaN,878.799333565612,842.519411655264,970.628304621509,410.498069503264,550.57236181288,546.982518841471,0,0,0,0,0,0,5,0,4,NaN,NaN,NaN,vertical,vertical,horizontal,none,none,none
1a,6,100136,3,9,137,20,F,NA,variable,heterogeneous,5,absent,0.637248992919922,1,horizontal,horizontal,1,1.047047290802,red,1,NaN,729.712474266665,845.121732464271,NaN,NaN,729.712474266665,845.121732464271,1011.40458100154,742.594190385041,1000.94274216971,443.006323791957,712.784863451954,360.378381699593,545.155339110131,608.899371659138,0,0,4,0,6,5,5,NaN,horizontal,horizontal,horizontal,horizontal,vertical,none
1a,6,100136,3,10,138,20,F,NA,variable,heterogeneous,4,present,0.790611028671265,1,horizontal,horizontal,1,1.02351848602295,green,3,1,895.524681321058,363.568117085469,704.475318678942,836.431882914531,704.475318678942,836.431882914531,1036.43188291453,695.524681321058,895.524681321058,363.568117085469,563.568117085469,504.475318678942,0,0,0,0,0,5,4,6,NaN,NaN,vertical,horizontal,horizontal,horizontal,none,none
1a,6,100136,3,11,139,20,F,NA,variable,heterogeneous,4,present,0.816555023193359,0,horizontal,vertical,1,0.694115219116211,red,3,2,729.712474266665,354.878267535729,1045.12173246427,529.712474266665,870.287525733335,845.121732464271,1045.12173246427,529.712474266665,729.712474266665,354.878267535729,554.878267535729,670.287525733335,0,0,0,0,3,0,4,3,NaN,NaN,vertical,horizontal,horizontal,horizontal,none,none
1a,6,100136,3,12,140,20,F,NA,variable,heterogeneous,5,absent,1.22910809516907,1,horizontal,horizontal,1,0.98822527885437,green,1,NaN,891.383827134052,838.063008756786,NaN,NaN,891.383827134052,838.063008756786,1054.65053136242,586.654331158049,865.998856501143,353.688914296288,586.139005173917,461.117046071168,601.827779828472,760.476699717708,0,0,4,0,0,3,3,NaN,horizontal,horizontal,horizontal,horizontal,horizontal,none
1a,6,100136,3,13,141,20,F,NA,variable,heterogeneous,6,present,0.772454977035522,1,vertical,vertical,1,0.741172828674316,red,2,1,1046.31108570371,665.998856501143,865.998856501143,846.311085703712,865.998856501143,846.311085703712,1046.31108570371,665.998856501143,980.31222920257,419.68777079743,734.001143498857,353.688914296288,553.688914296288,534.001143498857,619.68777079743,780.31222920257,0,4,3,5,3,0,vertical,vertical,vertical,vertical,vertical,vertical
1a,6,100136,3,14,142,20,F,NA,variable,heterogeneous,5,absent,0.578116893768311,1,vertical,vertical,1,0.905874462127686,red,3,NaN,848.656293821019,349.685068220846,NaN,NaN,907.767656743878,831.108485694346,1053.09926866854,568.923317431687,848.656293821019,349.685068220846,576.971974679454,476.373546837184,613.504806087112,773.909581815937,0,0,6,0,4,6,5,NaN,horizontal,vertical,vertical,horizontal,horizontal,none
1a,6,100136,3,15,143,20,F,NA,variable,heterogeneous,4,present,0.898536205291748,1,vertical,vertical,1,0.835288047790527,green,4,2,619.68777079743,780.31222920257,980.31222920257,419.68777079743,980.31222920257,780.31222920257,980.31222920257,419.68777079743,619.68777079743,419.68777079743,619.68777079743,780.31222920257,0,0,0,0,5,6,3,4,NaN,NaN,horizontal,vertical,vertical,vertical,none,none
1a,6,100136,3,16,144,20,F,NA,variable,heterogeneous,5,absent,1.06052207946777,1,horizontal,horizontal,1,0.788230438232422,green,1,NaN,742.637481142314,848.464366520235,NaN,NaN,742.637481142314,848.464366520235,1018.57766167904,731.334709102064,992.450942956807,432.704947607421,700.363562235235,365.271262369628,545.970351986605,622.224714400653,0,0,4,3,6,5,0,NaN,horizontal,horizontal,horizontal,vertical,vertical,none
1a,6,100136,3,17,145,20,F,NA,variable,heterogeneous,5,present,0.730263948440552,1,horizontal,horizontal,1,0.811759243011475,red,5,2,629.371695378491,789.501930496736,1049.42763818712,546.982518841471,927.5,820.836477965032,1049.42763818712,546.982518841471,826.654758133252,346.39691668109,567.045908301137,496.282156015671,629.371695378491,789.501930496736,0,0,5,3,3,0,4,NaN,vertical,horizontal,horizontal,horizontal,horizontal,none
1a,6,100136,3,18,146,20,F,NA,variable,heterogeneous,4,present,0.464786052703857,0,horizontal,vertical,1,0.788230438232422,green,3,2,768.923317431687,346.900731331463,1053.09926866854,568.923317431687,831.076682568313,853.099268668537,1053.09926866854,568.923317431687,768.923317431687,346.900731331463,546.900731331463,631.076682568313,0,0,0,0,5,5,4,0,NaN,NaN,vertical,vertical,horizontal,vertical,none,none
1a,6,100136,3,19,147,20,F,NA,variable,heterogeneous,4,absent,1.03997898101807,1,vertical,vertical,1,1.08234049797058,green,4,NaN,579.163522034968,472.5,NaN,NaN,672.5,820.836477965032,1020.83647796503,727.5,927.5,379.163522034968,579.163522034968,472.5,0,0,0,0,3,5,0,4,NaN,NaN,vertical,vertical,horizontal,vertical,none,none
1a,6,100136,3,20,148,20,F,NA,variable,heterogeneous,4,absent,1.03367185592651,0,horizontal,vertical,1,0.623528804779053,green,3,NaN,704.475318678942,363.568117085469,NaN,NaN,895.524681321058,836.431882914531,1036.43188291453,504.475318678942,704.475318678942,363.568117085469,563.568117085469,695.524681321058,0,0,0,0,6,5,4,0,NaN,NaN,vertical,vertical,horizontal,horizontal,none,none
1a,6,100136,3,21,149,20,F,NA,variable,heterogeneous,6,present,1.55879902839661,0,horizontal,vertical,1,0.823523645401001,green,1,3,870.287525733335,845.121732464271,977.137884467044,416.568350913644,870.287525733335,845.121732464271,1047.42541020038,661.690083377915,977.137884467044,416.568350913644,729.712474266665,354.878267535729,552.574589799621,538.309916622085,622.862115532956,783.431649086356,4,6,0,0,5,5,horizontal,vertical,horizontal,vertical,vertical,vertical
1a,6,100136,3,22,150,20,F,NA,variable,heterogeneous,4,present,1.95799612998962,0,vertical,horizontal,1,1.01175408363342,red,2,3,1031.10848569435,492.232343256122,692.232343256122,368.891514305654,907.767656743878,831.108485694346,1031.10848569435,492.232343256122,692.232343256122,368.891514305654,568.891514305654,707.767656743878,0,0,0,0,0,4,5,3,NaN,NaN,vertical,vertical,vertical,horizontal,none,none
1a,6,100136,3,23,151,20,F,NA,variable,heterogeneous,6,absent,1.91427493095398,1,vertical,vertical,1,0.623528804779053,green,6,NaN,583.747735480111,735.129412379467,NaN,NaN,808.899371659138,854.844660889869,1025.15163617903,719.715248510402,1016.25226451989,464.870587620533,791.100628340862,345.155339110131,574.848363820974,480.284751489598,583.747735480111,735.129412379467,6,0,6,0,3,4,horizontal,vertical,horizontal,vertical,vertical,vertical
1a,6,100136,3,24,152,20,F,NA,variable,heterogeneous,3,present,0.766442060470581,1,vertical,vertical,1,0.894110059738159,red,1,3,949.885239334581,806.299333565612,546.39691668109,626.654758133252,949.885239334581,806.299333565612,903.717843984329,367.045908301137,546.39691668109,626.654758133252,0,0,0,0,0,0,4,5,0,NaN,NaN,NaN,vertical,vertical,vertical,none,none,none
1a,6,100136,3,25,153,20,F,NA,variable,heterogeneous,6,absent,1.00219488143921,1,vertical,vertical,1,0.811759243011475,green,6,NaN,646.537169096228,803.65205506206,NaN,NaN,899.636437764765,834.728737630372,1053.09926866854,631.076682568313,953.462830903772,396.34794493794,700.363562235235,365.271262369628,546.900731331463,568.923317431687,646.537169096228,803.65205506206,3,0,6,6,0,4,vertical,vertical,horizontal,vertical,vertical,vertical
1a,6,100136,3,26,154,20,F,NA,variable,heterogeneous,3,absent,0.779630899429321,1,vertical,vertical,1,0.85881685256958,red,2,NaN,946.261991269517,391.116228706307,NaN,NaN,907.767656743878,831.108485694346,946.261991269517,391.116228706307,545.970351986605,577.775285599347,0,0,0,0,0,0,3,4,5,NaN,NaN,NaN,vertical,vertical,vertical,none,none,none
1a,6,100136,3,27,155,20,F,NA,variable,heterogeneous,4,absent,0.742671012878418,1,vertical,vertical,1,0.752937231063843,red,3,NaN,657.405809614959,388.595418998464,NaN,NaN,942.594190385041,811.404581001536,1011.40458100154,457.40580961496,657.405809614959,388.595418998464,588.595418998464,742.594190385041,0,0,0,0,5,3,4,6,NaN,NaN,horizontal,horizontal,vertical,vertical,none,none
1a,6,100136,3,28,156,20,F,NA,variable,heterogeneous,3,absent,0.475141048431396,0,horizontal,vertical,1,0.682350816726685,red,1,NaN,915.767577433584,827.206663668034,NaN,NaN,915.767577433584,827.206663668034,938.882953928832,386.139005173917,545.349468637584,586.654331158049,0,0,0,0,0,0,4,6,3,NaN,NaN,NaN,horizontal,vertical,vertical,none,none,none
1a,6,100136,3,29,157,20,F,NA,variable,heterogeneous,3,present,0.677654027938843,1,horizontal,horizontal,1,0.835288047790527,red,3,1,550.57236181288,546.982518841471,878.799333565612,842.519411655264,878.799333565612,842.519411655264,970.628304621509,410.498069503264,550.57236181288,546.982518841471,0,0,0,0,0,0,3,0,4,NaN,NaN,NaN,vertical,vertical,horizontal,none,none,none
1a,6,100136,3,30,158,20,F,NA,variable,heterogeneous,3,absent,0.910046100616455,1,vertical,vertical,1,0.941167669296265,green,1,NaN,760.109211414741,851.86052685176,NaN,NaN,760.109211414741,851.86052685176,1038.06300875679,508.616172865948,601.827779828472,439.523300282291,0,0,0,0,0,0,4,3,0,NaN,NaN,NaN,vertical,horizontal,horizontal,none,none,none
1a,6,100136,3,31,159,20,F,NA,variable,heterogeneous,6,present,0.941282033920288,1,vertical,vertical,1,0.635293207168579,green,5,3,622.862115532956,416.568350913644,1047.42541020038,538.309916622085,729.712474266665,845.121732464271,977.137884467044,783.431649086356,1047.42541020038,538.309916622085,870.287525733335,354.878267535729,622.862115532956,416.568350913644,552.574589799621,661.690083377915,6,0,5,3,4,0,horizontal,vertical,horizontal,vertical,vertical,horizontal
1a,6,100136,3,32,160,20,F,NA,variable,heterogeneous,6,present,0.939754962921143,0,vertical,horizontal,1,0.776466035842896,red,4,1,822.224714400653,345.970351986605,777.775285599347,854.029648013395,777.775285599347,854.029648013395,1008.88377129369,746.261991269517,1031.10848569435,492.232343256122,822.224714400653,345.970351986605,591.116228706307,453.738008730483,568.891514305654,707.767656743878,5,5,3,4,6,0,horizontal,horizontal,horizontal,vertical,horizontal,horizontal
1a,6,100136,3,33,161,20,F,NA,variable,heterogeneous,6,absent,0.96898078918457,1,horizontal,horizontal,1,0.905874462127686,red,3,NaN,946.261991269517,391.116228706307,NaN,NaN,907.767656743878,831.108485694346,1054.0296480134,622.224714400653,946.261991269517,391.116228706307,692.232343256122,368.891514305654,545.970351986605,577.775285599347,653.738008730483,808.883771293693,5,5,4,0,6,0,vertical,vertical,horizontal,vertical,horizontal,vertical
1a,6,100136,3,34,162,20,F,NA,variable,heterogeneous,5,absent,0.804632902145386,1,vertical,vertical,1,1.01175408363342,red,4,NaN,604.658667004661,436.089159529932,NaN,NaN,861.690083377915,847.425410200379,1054.37883281626,617.787900804752,895.524681321058,363.568117085469,604.658667004661,436.089159529932,583.747735480111,735.129412379467,0,0,6,5,0,4,5,NaN,vertical,vertical,vertical,vertical,horizontal,none
1a,6,100136,3,35,163,20,F,NA,variable,heterogeneous,3,present,0.942860126495361,1,vertical,vertical,1,1.08234049797058,red,1,2,835.489140744817,852.518357529101,1000.94274216971,443.006323791957,835.489140744817,852.518357529101,1000.94274216971,443.006323791957,563.568117085469,504.475318678942,0,0,0,0,0,0,4,3,3,NaN,NaN,NaN,vertical,vertical,vertical,none,none,none
1a,6,100136,3,36,164,20,F,NA,variable,heterogeneous,5,present,0.964583873748779,1,vertical,vertical,1,0.929403266906738,red,5,2,591.116228706307,746.261991269517,1054.96116226488,604.450363641507,874.554784704298,843.857712770574,1054.96116226488,604.450363641507,883.019879386575,358.892763222174,596.34794493794,446.537169096228,591.116228706307,746.261991269517,0,0,6,6,0,3,4,NaN,horizontal,vertical,horizontal,horizontal,vertical,none
1a,6,100136,3,37,165,20,F,NA,variable,heterogeneous,3,absent,0.848227977752686,1,horizontal,horizontal,1,0.611764402389526,green,2,NaN,1031.10848569435,492.232343256122,NaN,NaN,777.775285599347,854.029648013395,1031.10848569435,492.232343256122,591.116228706307,453.738008730483,0,0,0,0,0,0,3,4,6,NaN,NaN,NaN,horizontal,horizontal,horizontal,none,none,none
1a,6,100136,3,38,166,20,F,NA,variable,heterogeneous,6,absent,1.11920595169067,1,horizontal,horizontal,1,0.870581254959106,red,5,NaN,610.498069503264,429.371695378491,NaN,NaN,746.982518841471,849.42763818712,989.501930496736,770.628304621509,1042.51941165526,521.200666434388,853.017481158529,350.57236181288,610.498069503264,429.371695378491,557.480588344736,678.799333565612,6,3,5,0,4,3,horizontal,vertical,horizontal,horizontal,horizontal,horizontal
1a,6,100136,3,39,167,20,F,NA,variable,heterogeneous,6,absent,0.648452997207642,1,horizontal,horizontal,1,0.941167669296265,green,3,NaN,1045.12173246427,529.712474266665,NaN,NaN,738.309916622085,847.425410200379,983.431649086356,777.137884467044,1045.12173246427,529.712474266665,861.690083377915,352.574589799621,616.568350913644,422.862115532956,554.878267535729,670.287525733335,5,0,4,3,6,5,vertical,vertical,horizontal,horizontal,vertical,horizontal
1a,6,100136,3,40,168,20,F,NA,variable,heterogeneous,3,present,0.866358041763306,0,horizontal,vertical,1,0.835288047790527,green,1,3,721.200666434388,842.519411655264,629.371695378491,410.498069503264,721.200666434388,842.519411655264,1049.42763818712,546.982518841471,629.371695378491,410.498069503264,0,0,0,0,0,0,4,3,0,NaN,NaN,NaN,horizontal,vertical,vertical,none,none,none
1a,6,100136,3,41,169,20,F,NA,variable,heterogeneous,6,present,1.19296979904175,1,horizontal,horizontal,1,0.658822011947632,red,5,2,547.481642470899,564.510859255183,1052.5183575291,635.489140744817,895.524681321058,836.431882914531,1052.5183575291,635.489140744817,956.993676208043,399.057257830286,704.475318678942,363.568117085469,547.481642470899,564.510859255183,643.006323791957,800.942742169714,0,3,5,6,4,5,horizontal,vertical,horizontal,vertical,horizontal,vertical
1a,6,100136,3,42,170,20,F,NA,variable,heterogeneous,6,present,0.958575963973999,1,vertical,vertical,1,0.682350816726685,green,3,6,1048.46436652023,542.637481142314,551.535633479765,657.362518857686,725.445215295702,843.857712770574,973.909581815937,786.495193912888,1048.46436652023,542.637481142314,874.554784704298,356.142287229426,626.090418184063,413.504806087112,551.535633479765,657.362518857686,3,6,4,6,5,0,vertical,horizontal,vertical,horizontal,horizontal,vertical
1a,6,100136,3,43,171,20,F,NA,variable,heterogeneous,6,present,0.774233818054199,1,horizontal,horizontal,1,0.611764402389526,green,3,4,1045.12173246427,529.712474266665,861.690083377915,352.574589799621,738.309916622085,847.425410200379,983.431649086356,777.137884467044,1045.12173246427,529.712474266665,861.690083377915,352.574589799621,616.568350913644,422.862115532956,554.878267535729,670.287525733335,3,0,4,5,6,0,vertical,horizontal,horizontal,horizontal,horizontal,horizontal
1a,6,100136,3,44,172,20,F,NA,variable,heterogeneous,4,absent,0.868537902832031,1,vertical,vertical,1,0.72940842628479,red,1,NaN,760.109211414741,851.86052685176,NaN,NaN,760.109211414741,851.86052685176,1051.86052685176,639.890788585259,839.890788585259,348.13947314824,548.13947314824,560.109211414741,0,0,0,0,4,0,5,6,NaN,NaN,vertical,vertical,horizontal,horizontal,none,none
1a,6,100136,3,45,173,20,F,NA,variable,heterogeneous,4,present,1.92127585411072,1,horizontal,horizontal,1,0.764701633453369,red,3,2,629.371695378491,410.498069503264,989.501930496736,429.371695378491,970.628304621509,789.501930496736,989.501930496736,429.371695378491,629.371695378491,410.498069503264,610.498069503264,770.628304621509,0,0,0,0,6,5,4,5,NaN,NaN,horizontal,vertical,horizontal,horizontal,none,none
1a,6,100136,3,46,174,20,F,NA,variable,heterogeneous,3,present,1.02191281318665,1,vertical,vertical,1,0.905874462127686,green,1,3,835.489140744817,852.518357529101,563.568117085469,504.475318678942,835.489140744817,852.518357529101,1000.94274216971,443.006323791957,563.568117085469,504.475318678942,0,0,0,0,0,0,4,3,0,NaN,NaN,NaN,vertical,horizontal,horizontal,none,none,none
1a,6,100136,3,47,175,20,F,NA,variable,heterogeneous,3,absent,1.18152189254761,1,vertical,vertical,1,0.752937231063843,green,1,NaN,1000.94274216971,756.993676208043,NaN,NaN,1000.94274216971,756.993676208043,835.489140744817,347.4816424709,563.568117085469,695.524681321058,0,0,0,0,0,0,4,3,3,NaN,NaN,NaN,vertical,vertical,horizontal,none,none,none
1a,6,100136,3,48,176,20,F,NA,variable,heterogeneous,6,absent,0.779531002044678,1,vertical,vertical,1,0.717644023895264,red,1,NaN,887.215136548046,839.621618300407,NaN,NaN,887.215136548046,839.621618300407,1051.12597701811,644.280285305067,963.910840470068,404.658667004661,712.784863451954,360.378381699593,548.874022981887,555.719714694933,636.089159529932,795.341332995339,4,6,0,3,0,5,vertical,vertical,horizontal,vertical,horizontal,vertical
1a,6,100136,3,49,177,20,F,NA,variable,heterogeneous,5,present,1.05128288269043,0,horizontal,vertical,1,0.98822527885437,green,4,5,643.006323791957,399.057257830286,560.378381699593,687.215136548046,808.899371659138,854.844660889869,1045.12173246427,670.287525733335,942.594190385041,388.595418998464,643.006323791957,399.057257830286,560.378381699593,687.215136548046,0,0,5,3,0,4,6,NaN,vertical,vertical,horizontal,horizontal,vertical,none
1a,6,100136,3,50,178,20,F,NA,variable,heterogeneous,5,present,1.25574493408203,1,vertical,vertical,1,0.976460876464844,red,4,1,716.980120613425,358.892763222174,725.445215295702,843.857712770574,725.445215295702,843.857712770574,1008.88377129369,746.261991269517,1003.65205506206,446.537169096228,716.980120613425,358.892763222174,545.03883773512,604.450363641507,0,0,6,5,3,4,3,NaN,vertical,vertical,horizontal,vertical,vertical,none
1a,6,100136,3,51,179,20,F,NA,variable,heterogeneous,5,absent,1.05181789398193,0,vertical,horizontal,1,0.929403266906738,green,1,NaN,672.5,820.836477965032,NaN,NaN,672.5,820.836477965032,970.628304621509,789.501930496736,1032.95409169886,496.282156015671,773.345241866748,346.39691668109,550.57236181288,546.982518841471,0,0,4,0,3,5,3,NaN,vertical,horizontal,horizontal,vertical,horizontal,none
1a,6,100136,3,52,180,20,F,NA,variable,heterogeneous,3,present,0.960477113723755,1,vertical,vertical,1,0.776466035842896,green,1,3,704.475318678942,836.431882914531,643.006323791957,399.057257830286,704.475318678942,836.431882914531,1052.5183575291,564.510859255183,643.006323791957,399.057257830286,0,0,0,0,0,0,4,0,0,NaN,NaN,NaN,vertical,horizontal,horizontal,none,none,none
1a,6,100136,3,53,181,20,F,NA,variable,heterogeneous,5,present,1.11492991447449,1,horizontal,horizontal,1,0.752937231063843,green,1,3,746.982518841471,849.42763818712,989.501930496736,429.371695378491,746.982518841471,849.42763818712,1020.83647796503,727.5,989.501930496736,429.371695378491,696.282156015671,367.045908301137,546.39691668109,626.654758133252,0,0,4,6,0,0,6,NaN,horizontal,horizontal,horizontal,vertical,horizontal,none
1a,6,100136,3,54,182,20,F,NA,variable,heterogeneous,6,present,0.946173906326294,1,horizontal,horizontal,1,0.635293207168579,red,4,2,891.383827134052,361.936991243214,960.476699717708,798.172220171528,708.616172865948,838.063008756786,960.476699717708,798.172220171528,1051.86052685176,560.109211414741,891.383827134052,361.936991243214,639.523300282292,401.827779828472,548.13947314824,639.890788585259,3,0,5,4,0,3,horizontal,horizontal,horizontal,horizontal,horizontal,vertical
1a,6,100136,3,55,183,20,F,NA,variable,heterogeneous,5,present,0.828463077545166,1,vertical,vertical,1,0.764701633453369,green,4,5,653.738008730483,391.116228706307,556.142287229426,674.554784704298,795.549636358493,854.96116226488,1041.10723677783,683.019879386575,953.462830903772,396.34794493794,653.738008730483,391.116228706307,556.142287229426,674.554784704298,0,0,5,3,5,4,3,NaN,vertical,vertical,vertical,vertical,horizontal,none
1a,6,100136,3,56,184,20,F,NA,variable,heterogeneous,4,present,0.694396018981934,1,vertical,vertical,1,1.05881169319153,green,2,1,1054.0296480134,577.775285599347,822.224714400653,854.029648013395,822.224714400653,854.029648013395,1054.0296480134,577.775285599347,777.775285599347,345.970351986605,545.970351986605,622.224714400653,0,0,0,0,0,4,5,3,NaN,NaN,horizontal,vertical,vertical,vertical,none,none
1a,6,100136,3,57,185,20,F,NA,variable,heterogeneous,6,absent,1.22147607803345,0,horizontal,vertical,1,0.847052450180054,green,6,NaN,545,600,NaN,NaN,672.5,820.836477965032,927.5,820.836477965032,1055,600,927.5,379.163522034968,672.5,379.163522034968,545,600,5,0,0,6,3,4,horizontal,vertical,horizontal,vertical,horizontal,horizontal
1a,6,100136,3,58,186,20,F,NA,variable,heterogeneous,5,present,1.19130706787109,1,vertical,vertical,1,0.870581254959106,green,1,2,808.899371659138,854.844660889869,1045.12173246427,670.287525733335,808.899371659138,854.844660889869,1045.12173246427,670.287525733335,942.594190385041,388.595418998464,643.006323791957,399.057257830286,560.378381699593,687.215136548046,0,0,4,6,0,5,3,NaN,vertical,vertical,vertical,horizontal,vertical,none
1a,6,100136,3,59,187,20,F,NA,variable,heterogeneous,6,absent,0.779680013656616,1,vertical,vertical,1,0.811759243011475,red,5,NaN,549.685068220846,551.343706178981,NaN,NaN,883.019879386575,841.107236777826,1050.31493177915,648.656293821019,967.295052392579,407.549057043193,716.980120613425,358.892763222174,549.685068220846,551.343706178981,632.704947607421,792.450942956807,3,3,6,6,4,0,vertical,vertical,vertical,vertical,vertical,horizontal
1a,6,100136,3,60,188,20,F,NA,variable,heterogeneous,3,present,0.686532020568848,1,horizontal,horizontal,1,0.952932071685791,red,3,2,565.271262369628,699.636437764765,831.076682568313,346.900731331463,1003.65205506206,753.462830903772,831.076682568313,346.900731331463,565.271262369628,699.636437764765,0,0,0,0,0,0,5,3,4,NaN,NaN,NaN,horizontal,horizontal,horizontal,none,none,none
1a,6,100136,3,61,189,20,F,NA,variable,heterogeneous,4,absent,1.57170796394348,1,vertical,vertical,1,0.964696474075317,green,4,NaN,588.595418998464,457.40580961496,NaN,NaN,657.405809614959,811.404581001536,1011.40458100154,742.594190385041,942.594190385041,388.595418998464,588.595418998464,457.40580961496,0,0,0,0,0,5,5,4,NaN,NaN,vertical,horizontal,horizontal,vertical,none,none
1a,6,100136,3,62,190,20,F,NA,variable,heterogeneous,4,absent,1.2841911315918,0,horizontal,vertical,1,1.047047290802,red,3,NaN,935.129412379467,383.747735480111,NaN,NaN,664.870587620533,816.252264519889,1016.25226451989,735.129412379467,935.129412379467,383.747735480111,583.747735480111,464.870587620533,0,0,0,0,6,3,4,6,NaN,NaN,vertical,vertical,horizontal,vertical,none,none
1a,6,100136,3,63,191,20,F,NA,variable,heterogeneous,3,absent,0.890027046203613,1,horizontal,horizontal,1,0.98822527885437,green,2,NaN,1046.31108570371,534.001143498857,NaN,NaN,734.001143498857,846.311085703712,1046.31108570371,534.001143498857,619.68777079743,419.68777079743,0,0,0,0,0,0,3,4,5,NaN,NaN,NaN,vertical,horizontal,horizontal,none,none,none
1a,6,100136,3,64,192,20,F,NA,variable,heterogeneous,5,absent,0.637295961380005,1,horizontal,horizontal,1,0.670586414337158,red,2,NaN,1054.65053136242,586.654331158049,NaN,NaN,891.383827134052,838.063008756786,1054.65053136242,586.654331158049,865.998856501143,353.688914296288,586.139005173917,461.117046071168,601.827779828472,760.476699717708,0,0,5,4,0,6,3,NaN,horizontal,horizontal,horizontal,vertical,horizontal,none
1a,6,100136,4,1,193,20,F,NA,variable,heterogeneous,6,absent,1.7907989025116,0,horizontal,vertical,1,0.905874462127686,red,2,NaN,1049.42763818712,653.017481158529,NaN,NaN,878.799333565612,842.519411655264,1049.42763818712,653.017481158529,970.628304621509,410.498069503264,721.200666434388,357.480588344736,550.57236181288,546.982518841471,629.371695378491,789.501930496736,3,4,0,0,5,5,vertical,horizontal,vertical,horizontal,vertical,horizontal
1a,6,100136,4,2,194,20,F,NA,variable,heterogeneous,5,absent,0.804250955581665,1,vertical,vertical,1,0.882345657348633,red,2,NaN,1036.43188291453,695.524681321058,NaN,NaN,782.212099195248,854.378832816255,1036.43188291453,695.524681321058,963.910840470068,404.658667004661,664.870587620533,383.747735480111,552.574589799621,661.690083377915,0,0,0,4,3,5,3,NaN,horizontal,vertical,vertical,horizontal,horizontal,none
1a,6,100136,4,3,195,20,F,NA,variable,heterogeneous,6,absent,0.471199035644531,0,horizontal,vertical,1,0.929403266906738,red,6,NaN,636.089159529932,795.341332995339,NaN,NaN,887.215136548046,839.621618300407,1051.12597701811,644.280285305067,963.910840470068,404.658667004661,712.784863451954,360.378381699593,548.874022981887,555.719714694933,636.089159529932,795.341332995339,6,5,3,0,0,4,vertical,vertical,vertical,vertical,horizontal,horizontal
1a,6,100136,4,4,196,20,F,NA,variable,heterogeneous,5,present,1.54561305046082,1,horizontal,horizontal,1,0.635293207168579,green,4,5,664.870587620533,383.747735480111,552.574589799621,661.690083377915,782.212099195248,854.378832816255,1036.43188291453,695.524681321058,963.910840470068,404.658667004661,664.870587620533,383.747735480111,552.574589799621,661.690083377915,0,0,6,5,0,4,3,NaN,vertical,horizontal,vertical,horizontal,horizontal,none
1a,6,100136,4,5,197,20,F,NA,variable,heterogeneous,5,present,1.07666802406311,1,horizontal,horizontal,1,1.01175408363342,red,1,4,931.334709102064,818.577661679039,565.271262369628,500.363562235235,931.334709102064,818.577661679039,1048.46436652023,542.637481142314,822.224714400653,345.970351986605,565.271262369628,500.363562235235,632.704947607421,792.450942956807,0,0,4,3,0,6,5,NaN,horizontal,vertical,vertical,horizontal,horizontal,none
1a,6,100136,4,6,198,20,F,NA,variable,heterogeneous,4,absent,0.467617034912109,1,vertical,vertical,1,1.047047290802,green,3,NaN,907.767656743878,368.891514305654,NaN,NaN,692.232343256122,831.108485694346,1031.10848569435,707.767656743878,907.767656743878,368.891514305654,568.891514305654,492.232343256122,0,0,0,0,6,0,4,0,NaN,NaN,vertical,vertical,vertical,vertical,none,none
1a,6,100136,4,7,199,20,F,NA,variable,heterogeneous,3,absent,0.449200868606567,1,vertical,vertical,1,0.811759243011475,red,2,NaN,935.129412379467,383.747735480111,NaN,NaN,919.715248510402,825.151636179026,935.129412379467,383.747735480111,545.155339110131,591.100628340862,0,0,0,0,0,0,6,4,3,NaN,NaN,NaN,horizontal,vertical,vertical,none,none,none
1a,6,100136,4,8,200,20,F,NA,variable,heterogeneous,3,absent,0.783215045928955,1,horizontal,horizontal,1,0.823523645401001,red,3,NaN,613.504806087112,426.090418184063,NaN,NaN,742.637481142314,848.464366520235,1043.85771277057,525.445215295702,613.504806087112,426.090418184063,0,0,0,0,0,0,6,3,4,NaN,NaN,NaN,horizontal,vertical,horizontal,none,none,none
1a,6,100136,4,9,201,20,F,NA,variable,heterogeneous,5,present,1.25665903091431,1,horizontal,horizontal,1,0.882345657348633,green,2,4,967.295052392579,792.450942956807,777.775285599347,345.970351986605,668.665290897936,818.577661679039,967.295052392579,792.450942956807,1034.72873763037,500.363562235235,777.775285599347,345.970351986605,551.535633479765,542.637481142314,0,0,5,4,6,3,5,NaN,horizontal,horizontal,vertical,horizontal,vertical,none
1a,6,100136,4,10,202,20,F,NA,variable,heterogeneous,3,present,0.55905294418335,1,horizontal,horizontal,1,1.07057609558105,green,3,1,650.114760665419,393.700666434388,696.282156015671,832.954091698863,696.282156015671,832.954091698863,1053.60308331891,573.345241866748,650.114760665419,393.700666434388,0,0,0,0,0,0,0,0,4,NaN,NaN,NaN,vertical,vertical,horizontal,none,none,none
1a,6,100136,4,11,203,20,F,NA,variable,heterogeneous,6,absent,0.787338018417358,1,vertical,vertical,1,1.047047290802,red,4,NaN,817.787900804752,345.621167183745,NaN,NaN,782.212099195248,854.378832816255,1011.40458100154,742.594190385041,1029.19248180629,488.215357568785,817.787900804752,345.621167183745,588.595418998464,457.40580961496,570.807518193712,711.784642431215,6,3,5,4,0,6,vertical,vertical,vertical,vertical,vertical,horizontal
1a,6,100136,4,12,204,20,F,NA,variable,heterogeneous,5,present,0.660358905792236,1,vertical,vertical,1,0.847052450180054,red,2,3,1051.12597701811,555.719714694933,835.489140744817,347.4816424709,919.715248510402,825.151636179026,1051.12597701811,555.719714694933,835.489140744817,347.4816424709,570.807518193712,488.215357568785,622.862115532956,783.431649086356,0,0,0,4,3,6,6,NaN,horizontal,vertical,vertical,horizontal,vertical,none
1a,6,100136,4,13,205,20,F,NA,variable,heterogeneous,5,absent,0.593618869781494,1,vertical,vertical,1,0.788230438232422,red,4,NaN,773.345241866748,346.39691668109,NaN,NaN,672.5,820.836477965032,970.628304621509,789.501930496736,1032.95409169886,496.282156015671,773.345241866748,346.39691668109,550.57236181288,546.982518841471,0,0,0,6,6,4,5,NaN,horizontal,horizontal,vertical,vertical,vertical,none
1a,6,100136,4,14,206,20,F,NA,variable,heterogeneous,4,absent,0.5313560962677,1,vertical,vertical,1,0.694115219116211,red,3,NaN,777.775285599347,345.970351986605,NaN,NaN,822.224714400653,854.029648013395,1054.0296480134,577.775285599347,777.775285599347,345.970351986605,545.970351986605,622.224714400653,0,0,0,0,3,0,4,5,NaN,NaN,vertical,vertical,vertical,vertical,none,none
1a,6,100136,4,15,207,20,F,NA,variable,heterogeneous,5,absent,1.11172318458557,1,vertical,vertical,1,0.670586414337158,green,1,NaN,746.982518841471,849.42763818712,NaN,NaN,746.982518841471,849.42763818712,1020.83647796503,727.5,989.501930496736,429.371695378491,696.282156015671,367.045908301137,546.39691668109,626.654758133252,0,0,4,3,5,5,3,NaN,vertical,vertical,horizontal,vertical,vertical,none
1a,6,100136,4,16,208,20,F,NA,variable,heterogeneous,5,present,0.934107780456543,0,horizontal,vertical,1,1.01175408363342,red,2,3,960.476699717708,798.172220171528,1038.06300875679,508.616172865948,661.117046071168,813.860994826083,960.476699717708,798.172220171528,1038.06300875679,508.616172865948,786.654331158049,345.349468637584,553.688914296288,534.001143498857,0,0,5,4,6,6,0,NaN,vertical,horizontal,horizontal,horizontal,vertical,none
1a,6,100136,4,17,209,20,F,NA,variable,heterogeneous,3,present,0.633271217346191,1,vertical,vertical,1,0.799994840621948,green,1,3,977.137884467044,783.431649086356,552.574589799621,661.690083377915,977.137884467044,783.431649086356,870.287525733335,354.878267535729,552.574589799621,661.690083377915,0,0,0,0,0,0,4,0,5,NaN,NaN,NaN,vertical,horizontal,horizontal,none,none,none
1a,6,100136,4,18,210,20,F,NA,variable,heterogeneous,4,present,0.599608898162842,1,vertical,vertical,1,1.09410490036011,red,4,3,572.793336331966,715.767577433584,684.232422566416,372.793336331966,915.767577433584,827.206663668034,1027.20666366803,484.232422566416,684.232422566416,372.793336331966,572.793336331966,715.767577433584,0,0,0,0,6,3,0,4,NaN,NaN,horizontal,horizontal,vertical,vertical,none,none
1a,6,100136,4,19,211,20,F,NA,variable,heterogeneous,3,absent,1.31795787811279,0,vertical,horizontal,1,0.894110059738159,green,1,NaN,619.68777079743,780.31222920257,NaN,NaN,619.68777079743,780.31222920257,1046.31108570371,665.998856501143,734.001143498857,353.688914296288,0,0,0,0,0,0,4,5,3,NaN,NaN,NaN,vertical,vertical,horizontal,none,none,none
1a,6,100136,4,20,212,20,F,NA,variable,heterogeneous,4,absent,1.22960090637207,1,vertical,vertical,1,0.647057609558105,green,3,NaN,777.775285599347,345.970351986605,NaN,NaN,822.224714400653,854.029648013395,1054.0296480134,577.775285599347,777.775285599347,345.970351986605,545.970351986605,622.224714400653,0,0,0,0,5,3,4,0,NaN,NaN,vertical,vertical,vertical,horizontal,none,none
1a,6,100136,4,21,213,20,F,NA,variable,heterogeneous,3,present,0.607455015182495,1,vertical,vertical,1,0.85881685256958,red,1,2,963.910840470068,795.341332995339,887.215136548046,360.378381699593,963.910840470068,795.341332995339,887.215136548046,360.378381699593,548.874022981887,644.280285305067,0,0,0,0,0,0,4,3,0,NaN,NaN,NaN,vertical,vertical,vertical,none,none,none
1a,6,100136,4,22,214,20,F,NA,variable,heterogeneous,4,absent,0.727762937545776,0,horizontal,vertical,1,1.01175408363342,red,2,NaN,1054.37883281626,582.212099195248,NaN,NaN,817.787900804752,854.378832816255,1054.37883281626,582.212099195248,782.212099195248,345.621167183745,545.621167183745,617.787900804752,0,0,0,0,6,4,6,0,NaN,NaN,horizontal,horizontal,vertical,vertical,none,none
1a,6,100136,4,23,215,20,F,NA,variable,heterogeneous,6,absent,1.43210887908936,1,vertical,vertical,1,0.85881685256958,red,6,NaN,650.114760665419,806.299333565612,NaN,NaN,903.717843984329,832.954091698863,1053.60308331891,626.654758133252,949.885239334581,393.700666434388,696.282156015671,367.045908301137,546.39691668109,573.345241866748,650.114760665419,806.299333565612,3,5,0,3,5,4,horizontal,horizontal,horizontal,vertical,horizontal,vertical
1a,6,100136,4,24,216,20,F,NA,variable,heterogeneous,4,absent,1.6771240234375,1,horizontal,horizontal,1,0.623528804779053,red,2,NaN,1011.40458100154,742.594190385041,NaN,NaN,657.405809614959,811.404581001536,1011.40458100154,742.594190385041,942.594190385041,388.595418998464,588.595418998464,457.40580961496,0,0,0,0,5,4,3,0,NaN,NaN,horizontal,horizontal,horizontal,vertical,none,none
1a,6,100136,4,25,217,20,F,NA,variable,heterogeneous,4,present,0.801486015319824,1,horizontal,horizontal,1,0.72940842628479,green,1,3,755.719714694933,851.125977018113,844.280285305067,348.874022981887,755.719714694933,851.125977018113,1051.12597701811,644.280285305067,844.280285305067,348.874022981887,548.874022981887,555.719714694933,0,0,0,0,4,3,6,0,NaN,NaN,horizontal,vertical,horizontal,vertical,none,none
1a,6,100136,4,26,218,20,F,NA,variable,heterogeneous,4,present,1.02888894081116,1,vertical,vertical,1,0.752937231063843,red,3,1,729.712474266665,354.878267535729,870.287525733335,845.121732464271,870.287525733335,845.121732464271,1045.12173246427,529.712474266665,729.712474266665,354.878267535729,554.878267535729,670.287525733335,0,0,0,0,6,5,4,5,NaN,NaN,horizontal,vertical,vertical,horizontal,none,none
1a,6,100136,4,27,219,20,F,NA,variable,heterogeneous,5,absent,1.242595911026,1,vertical,vertical,1,0.847052450180054,green,2,NaN,1051.86052685176,639.890788585259,NaN,NaN,839.890788585259,851.86052685176,1051.86052685176,639.890788585259,915.767577433584,372.793336331966,619.68777079743,419.68777079743,572.793336331966,715.767577433584,0,0,5,4,3,6,0,NaN,vertical,vertical,vertical,horizontal,vertical,none
1a,6,100136,4,28,220,20,F,NA,variable,heterogeneous,6,present,1.13811588287354,1,horizontal,horizontal,1,0.72940842628479,green,4,6,857.362518857686,351.535633479765,556.142287229426,674.554784704298,742.637481142314,848.464366520235,986.495193912888,773.909581815937,1043.85771277057,525.445215295702,857.362518857686,351.535633479765,613.504806087112,426.090418184063,556.142287229426,674.554784704298,6,3,5,4,0,0,horizontal,vertical,horizontal,horizontal,vertical,vertical
1a,6,100136,4,29,221,20,F,NA,variable,heterogeneous,4,absent,0.925980806350708,1,horizontal,horizontal,1,0.847052450180054,green,1,NaN,861.690083377915,847.425410200379,NaN,NaN,861.690083377915,847.425410200379,1047.42541020038,538.309916622085,738.309916622085,352.574589799621,552.574589799621,661.690083377915,0,0,0,0,4,6,0,3,NaN,NaN,horizontal,horizontal,horizontal,horizontal,none,none
1a,6,100136,4,30,222,20,F,NA,variable,heterogeneous,6,present,1.03516912460327,1,vertical,vertical,1,0.929403266906738,green,3,6,953.462830903772,396.34794493794,646.537169096228,803.65205506206,899.636437764765,834.728737630372,1053.09926866854,631.076682568313,953.462830903772,396.34794493794,700.363562235235,365.271262369628,546.900731331463,568.923317431687,646.537169096228,803.65205506206,6,0,4,6,0,5,vertical,vertical,vertical,vertical,horizontal,horizontal
1a,6,100136,4,31,223,20,F,NA,variable,heterogeneous,6,present,1.36472797393799,1,horizontal,horizontal,1,1.02351848602295,red,2,4,973.909581815937,786.495193912888,874.554784704298,356.142287229426,725.445215295702,843.857712770574,973.909581815937,786.495193912888,1048.46436652023,542.637481142314,874.554784704298,356.142287229426,626.090418184063,413.504806087112,551.535633479765,657.362518857686,3,4,0,5,5,6,vertical,horizontal,vertical,horizontal,horizontal,horizontal
1a,6,100136,4,32,224,20,F,NA,variable,heterogeneous,3,absent,0.82529091835022,1,horizontal,horizontal,1,1.03528288841248,green,1,NaN,960.476699717708,798.172220171528,NaN,NaN,960.476699717708,798.172220171528,891.383827134052,361.936991243214,548.13947314824,639.890788585259,0,0,0,0,0,0,4,5,0,NaN,NaN,NaN,horizontal,horizontal,vertical,none,none,none
1a,6,100136,4,33,225,20,F,NA,variable,heterogeneous,6,present,1.22978401184082,0,horizontal,vertical,1,0.999989681243896,red,4,5,773.345241866748,346.39691668109,567.045908301137,496.282156015671,826.654758133252,853.60308331891,1032.95409169886,703.717843984329,1006.29933356561,450.114760665419,773.345241866748,346.39691668109,567.045908301137,496.282156015671,593.700666434388,749.885239334581,0,3,3,4,5,6,horizontal,vertical,vertical,horizontal,vertical,horizontal
1a,6,100136,4,34,226,20,F,NA,variable,heterogeneous,3,absent,0.94242787361145,1,horizontal,horizontal,1,0.98822527885437,green,2,NaN,1029.19248180629,488.215357568785,NaN,NaN,782.212099195248,854.378832816255,1029.19248180629,488.215357568785,588.595418998464,457.40580961496,0,0,0,0,0,0,6,4,3,NaN,NaN,NaN,vertical,horizontal,horizontal,none,none,none
1a,6,100136,4,35,227,20,F,NA,variable,heterogeneous,6,present,1.18700098991394,0,vertical,horizontal,1,0.882345657348633,red,4,2,795.549636358493,345.03883773512,1023.02802532055,723.626453162816,804.450363641507,854.96116226488,1023.02802532055,723.626453162816,1018.57766167904,468.665290897936,795.549636358493,345.03883773512,576.971974679454,476.373546837184,581.422338320961,731.334709102064,0,0,5,4,5,3,vertical,vertical,vertical,vertical,vertical,horizontal
1a,6,100136,4,36,228,20,F,NA,variable,heterogeneous,6,present,0.781439065933228,1,vertical,vertical,1,0.917638864517212,red,5,3,552.574589799621,538.309916622085,977.137884467044,416.568350913644,870.287525733335,845.121732464271,1047.42541020038,661.690083377915,977.137884467044,416.568350913644,729.712474266665,354.878267535729,552.574589799621,538.309916622085,622.862115532956,783.431649086356,6,6,0,5,4,0,vertical,horizontal,horizontal,horizontal,vertical,vertical
1a,6,100136,4,37,229,20,F,NA,variable,heterogeneous,3,absent,0.893317937850952,1,vertical,vertical,1,0.98822527885437,red,2,NaN,1050.31493177915,648.656293821019,NaN,NaN,632.704947607421,792.450942956807,1050.31493177915,648.656293821019,716.980120613425,358.892763222174,0,0,0,0,0,0,3,4,5,NaN,NaN,NaN,vertical,vertical,horizontal,none,none,none
1a,6,100136,4,38,230,20,F,NA,variable,heterogeneous,3,present,0.735387086868286,1,horizontal,horizontal,1,0.611764402389526,red,3,2,610.498069503264,429.371695378491,1042.51941165526,521.200666434388,746.982518841471,849.42763818712,1042.51941165526,521.200666434388,610.498069503264,429.371695378491,0,0,0,0,0,0,0,6,4,NaN,NaN,NaN,horizontal,vertical,horizontal,none,none,none
1a,6,100136,4,39,231,20,F,NA,variable,heterogeneous,3,absent,1.17540597915649,1,horizontal,horizontal,1,0.658822011947632,red,2,NaN,1054.37883281626,617.787900804752,NaN,NaN,657.405809614959,811.404581001536,1054.37883281626,617.787900804752,688.215357568785,370.807518193712,0,0,0,0,0,0,0,4,6,NaN,NaN,NaN,vertical,horizontal,vertical,none,none,none
1a,6,100136,4,40,232,20,F,NA,variable,heterogeneous,6,absent,0.901118993759155,1,vertical,vertical,1,0.894110059738159,green,6,NaN,653.738008730483,808.883771293693,NaN,NaN,907.767656743878,831.108485694346,1054.0296480134,622.224714400653,946.261991269517,391.116228706307,692.232343256122,368.891514305654,545.970351986605,577.775285599347,653.738008730483,808.883771293693,6,0,3,3,0,4,vertical,horizontal,vertical,horizontal,vertical,vertical
1a,6,100136,4,41,233,20,F,NA,variable,heterogeneous,3,present,0.555292129516602,1,horizontal,horizontal,1,0.799994840621948,red,2,1,915.767577433584,372.793336331966,938.882953928832,813.860994826083,938.882953928832,813.860994826083,915.767577433584,372.793336331966,545.349468637584,613.345668841951,0,0,0,0,0,0,0,4,3,NaN,NaN,NaN,vertical,horizontal,horizontal,none,none,none
1a,6,100136,4,42,234,20,F,NA,variable,heterogeneous,6,present,0.977812051773071,1,vertical,vertical,1,0.964696474075317,green,3,5,1054.65053136242,586.654331158049,661.117046071168,386.139005173917,684.232422566416,827.206663668034,938.882953928832,813.860994826083,1054.65053136242,586.654331158049,915.767577433584,372.793336331966,661.117046071168,386.139005173917,545.349468637584,613.345668841951,6,3,4,3,5,0,horizontal,vertical,vertical,horizontal,horizontal,horizontal
1a,6,100136,4,43,235,20,F,NA,variable,heterogeneous,6,absent,0.711149930953979,0,horizontal,vertical,1,0.670586414337158,green,4,NaN,883.019879386575,358.892763222174,NaN,NaN,716.980120613425,841.107236777826,967.295052392579,792.450942956807,1050.31493177915,551.343706178981,883.019879386575,358.892763222174,632.704947607421,407.549057043193,549.685068220846,648.656293821019,0,5,0,4,3,5,horizontal,horizontal,vertical,horizontal,vertical,horizontal
1a,6,100136,4,44,236,20,F,NA,variable,heterogeneous,4,absent,0.781300067901611,1,horizontal,horizontal,1,0.98822527885437,green,1,NaN,700.363562235235,834.728737630372,NaN,NaN,700.363562235235,834.728737630372,1034.72873763037,699.636437764765,899.636437764765,365.271262369628,565.271262369628,500.363562235235,0,0,0,0,4,5,6,0,NaN,NaN,horizontal,vertical,vertical,horizontal,none,none
1a,6,100136,4,45,237,20,F,NA,variable,heterogeneous,5,absent,1.3521568775177,1,horizontal,horizontal,1,0.752937231063843,red,1,NaN,795.549636358493,854.96116226488,NaN,NaN,795.549636358493,854.96116226488,1041.10723677783,683.019879386575,953.462830903772,396.34794493794,653.738008730483,391.116228706307,556.142287229426,674.554784704298,0,0,4,0,5,6,0,NaN,horizontal,vertical,vertical,horizontal,vertical,none
1a,6,100136,4,46,238,20,F,NA,variable,heterogeneous,3,present,0.558336973190308,1,vertical,vertical,1,0.741172828674316,green,1,3,643.006323791957,800.942742169714,704.475318678942,363.568117085469,643.006323791957,800.942742169714,1052.5183575291,635.489140744817,704.475318678942,363.568117085469,0,0,0,0,0,0,4,5,6,NaN,NaN,NaN,vertical,horizontal,horizontal,none,none,none
1a,6,100136,4,47,239,20,F,NA,variable,heterogeneous,3,present,0.664204835891724,0,vertical,horizontal,1,0.929403266906738,red,3,1,570.807518193712,711.784642431215,1011.40458100154,742.594190385041,1011.40458100154,742.594190385041,817.787900804752,345.621167183745,570.807518193712,711.784642431215,0,0,0,0,0,0,6,6,4,NaN,NaN,NaN,horizontal,horizontal,vertical,none,none,none
1a,6,100136,4,48,240,20,F,NA,variable,heterogeneous,6,absent,0.626135110855103,1,vertical,vertical,1,0.823523645401001,green,6,NaN,565.271262369628,699.636437764765,NaN,NaN,768.923317431687,853.099268668537,1003.65205506206,753.462830903772,1034.72873763037,500.363562235235,831.076682568313,346.900731331463,596.34794493794,446.537169096228,565.271262369628,699.636437764765,0,5,3,6,5,4,vertical,vertical,vertical,horizontal,horizontal,vertical
1a,6,100136,4,49,241,20,F,NA,variable,heterogeneous,5,absent,0.962179183959961,1,horizontal,horizontal,1,0.964696474075317,green,2,NaN,1045.12173246427,670.287525733335,NaN,NaN,808.899371659138,854.844660889869,1045.12173246427,670.287525733335,942.594190385041,388.595418998464,643.006323791957,399.057257830286,560.378381699593,687.215136548046,0,0,3,4,5,5,6,NaN,vertical,horizontal,vertical,horizontal,vertical,none
1a,6,100136,4,50,242,20,F,NA,variable,heterogeneous,5,present,0.792268037796021,1,vertical,vertical,1,0.741172828674316,red,1,5,650.114760665419,806.299333565612,557.480588344736,521.200666434388,650.114760665419,806.299333565612,949.885239334581,806.299333565612,1042.51941165526,521.200666434388,800,345,557.480588344736,521.200666434388,0,0,4,0,6,6,3,NaN,vertical,horizontal,horizontal,horizontal,horizontal,none
1a,6,100136,4,51,243,20,F,NA,variable,heterogeneous,3,absent,0.796083927154541,1,vertical,vertical,1,0.98822527885437,green,3,NaN,557.480588344736,521.200666434388,NaN,NaN,853.017481158529,849.42763818712,989.501930496736,429.371695378491,557.480588344736,521.200666434388,0,0,0,0,0,0,3,3,4,NaN,NaN,NaN,vertical,vertical,vertical,none,none,none
1a,6,100136,4,52,244,20,F,NA,variable,heterogeneous,6,present,1.55734300613403,1,horizontal,horizontal,1,1.047047290802,green,5,6,545,600,672.5,820.836477965032,927.5,820.836477965032,1055,600,927.5,379.163522034968,672.5,379.163522034968,545,600,672.5,820.836477965032,0,6,6,5,4,3,vertical,vertical,horizontal,vertical,horizontal,horizontal
