experiment,subject,uniqueID,block,trial,trial_cumulative,age,gender,color_cond_blocking,color_history,shape_type,set_size,distractor,rt,acc,target_orient,response_key,response_made,iti,target_color,target_item,distractor_item,target_X,target_Y,distractor_X,distractor_Y,item1_X,item1_Y,item2_X,item2_Y,item3_X,item3_Y,item4_X,item4_Y,item5_X,item5_Y,item6_X,item6_Y,item1_shape,item2_shape,item3_shape,item4_shape,item5_shape,item6_shape,item1_line,item2_line,item3_line,item4_line,item5_line,item6_line
1a,7,100128,1,1,1,19,M,NA,variable,heterogeneous,3,present,1.44894599914551,0,vertical,horizontal,1,0.717645406723022,red,2,3,998.172220171528,439.523300282291,561.936991243214,508.616172865948,839.890788585259,851.86052685176,998.172220171528,439.523300282291,561.936991243214,508.616172865948,0,0,0,0,0,0,0,4,5,NaN,NaN,NaN,vertical,vertical,vertical,none,none,none
1a,7,100128,1,2,2,19,M,NA,variable,heterogeneous,6,absent,NaN,0,vertical,none,0,0.741174488067627,red,6,NaN,557.480588344736,678.799333565612,NaN,NaN,746.982518841471,849.42763818712,989.501930496736,770.628304621509,1042.51941165526,521.200666434388,853.017481158529,350.57236181288,610.498069503264,429.371695378491,557.480588344736,678.799333565612,0,0,6,5,5,4,vertical,horizontal,horizontal,horizontal,horizontal,vertical
1a,7,100128,1,3,3,19,M,NA,variable,heterogeneous,6,absent,NaN,0,horizontal,none,0,0.635293622016907,red,2,NaN,1041.10723677783,683.019879386575,NaN,NaN,848.656293821019,850.314931779154,1041.10723677783,683.019879386575,992.450942956807,432.704947607421,751.343706178981,349.685068220846,558.892763222174,516.980120613425,607.549057043193,767.295052392579,5,4,6,3,0,0,vertical,horizontal,vertical,horizontal,horizontal,vertical
1a,7,100128,1,4,4,19,M,NA,variable,heterogeneous,3,present,1.26923179626465,1,horizontal,horizontal,1,0.776468110084534,green,2,3,878.799333565612,357.480588344736,550.57236181288,653.017481158529,970.628304621509,789.501930496736,878.799333565612,357.480588344736,550.57236181288,653.017481158529,0,0,0,0,0,0,0,4,3,NaN,NaN,NaN,horizontal,horizontal,horizontal,none,none,none
1a,7,100128,1,5,5,19,M,NA,variable,heterogeneous,6,absent,1.86307501792908,1,vertical,vertical,1,0.988229842185974,red,5,NaN,664.870587620533,383.747735480111,NaN,NaN,680.284751489598,825.151636179026,935.129412379467,816.252264519889,1054.84466088987,591.100628340862,919.715248510402,374.848363820974,664.870587620533,383.747735480111,545.155339110131,608.899371659138,6,3,6,5,4,0,vertical,vertical,vertical,vertical,vertical,vertical
1a,7,100128,1,6,6,19,M,NA,variable,heterogeneous,4,present,1.42852592468262,1,vertical,vertical,1,0.611764540672302,green,2,1,1051.12597701811,644.280285305067,755.719714694933,851.125977018113,755.719714694933,851.125977018113,1051.12597701811,644.280285305067,844.280285305067,348.874022981887,548.874022981887,555.719714694933,0,0,0,0,6,4,5,6,NaN,NaN,horizontal,vertical,horizontal,vertical,none,none
1a,7,100128,1,7,7,19,M,NA,variable,heterogeneous,5,absent,1.34504294395447,1,horizontal,horizontal,1,0.999994382858276,red,3,NaN,983.431649086356,422.862115532956,NaN,NaN,755.719714694933,851.125977018113,1025.15163617903,719.715248510402,983.431649086356,422.862115532956,688.215357568785,370.807518193712,547.481642470899,635.489140744817,0,0,6,6,4,0,0,NaN,horizontal,horizontal,horizontal,vertical,horizontal,none
1a,7,100128,1,8,8,19,M,NA,variable,heterogeneous,6,absent,1.32507109642029,1,horizontal,horizontal,1,1.03528800487518,green,5,NaN,551.535633479765,542.637481142314,NaN,NaN,874.554784704298,843.857712770574,1048.46436652023,657.362518857686,973.909581815937,413.504806087112,725.445215295702,356.142287229426,551.535633479765,542.637481142314,626.090418184063,786.495193912888,0,0,5,6,4,3,vertical,horizontal,vertical,vertical,horizontal,vertical
1a,7,100128,1,9,9,19,M,NA,variable,heterogeneous,6,present,1.84705591201782,1,horizontal,horizontal,1,0.96470076084137,red,1,3,808.899371659138,854.844660889869,1016.25226451989,464.870587620533,808.899371659138,854.844660889869,1025.15163617903,719.715248510402,1016.25226451989,464.870587620533,791.100628340862,345.155339110131,574.848363820974,480.284751489598,583.747735480111,735.129412379467,4,5,3,0,6,0,horizontal,vertical,vertical,horizontal,vertical,vertical
1a,7,100128,1,10,10,19,M,NA,variable,heterogeneous,4,absent,1.00975608825684,1,vertical,vertical,1,0.882348976135254,green,2,NaN,1043.85771277057,674.554784704298,NaN,NaN,725.445215295702,843.857712770574,1043.85771277057,674.554784704298,874.554784704298,356.142287229426,556.142287229426,525.445215295702,0,0,0,0,5,4,0,5,NaN,NaN,vertical,vertical,vertical,vertical,none,none
1a,7,100128,1,11,11,19,M,NA,variable,heterogeneous,4,absent,1.20283389091492,1,horizontal,horizontal,1,1.03528800487518,red,2,NaN,1051.86052685176,560.109211414741,NaN,NaN,839.890788585259,851.86052685176,1051.86052685176,560.109211414741,760.109211414741,348.13947314824,548.13947314824,639.890788585259,0,0,0,0,5,4,6,5,NaN,NaN,vertical,horizontal,vertical,horizontal,none,none
1a,7,100128,1,12,12,19,M,NA,variable,heterogeneous,3,present,0.871459007263184,1,vertical,vertical,1,0.623529081344604,green,1,2,874.554784704298,843.857712770574,973.909581815937,413.504806087112,874.554784704298,843.857712770574,973.909581815937,413.504806087112,551.535633479765,542.637481142314,0,0,0,0,0,0,4,0,3,NaN,NaN,NaN,vertical,horizontal,vertical,none,none,none
1a,7,100128,1,13,13,19,M,NA,variable,heterogeneous,3,present,0.777724981307983,1,horizontal,horizontal,1,0.81176173210144,red,1,2,998.172220171528,760.476699717708,839.890788585259,348.13947314824,998.172220171528,760.476699717708,839.890788585259,348.13947314824,561.936991243214,691.383827134052,0,0,0,0,0,0,4,0,5,NaN,NaN,NaN,horizontal,horizontal,horizontal,none,none,none
1a,7,100128,1,14,14,19,M,NA,variable,heterogeneous,6,absent,1.35019707679749,1,horizontal,horizontal,1,0.847055354118347,green,2,NaN,1051.12597701811,644.280285305067,NaN,NaN,887.215136548046,839.621618300407,1051.12597701811,644.280285305067,963.910840470068,404.658667004661,712.784863451954,360.378381699593,548.874022981887,555.719714694933,636.089159529932,795.341332995339,3,4,6,0,0,3,horizontal,horizontal,vertical,vertical,horizontal,horizontal
1a,7,100128,1,15,15,19,M,NA,variable,heterogeneous,5,present,0.882011890411377,1,vertical,vertical,1,1.03528800487518,red,2,4,1036.43188291453,695.524681321058,664.870587620533,383.747735480111,782.212099195248,854.378832816255,1036.43188291453,695.524681321058,963.910840470068,404.658667004661,664.870587620533,383.747735480111,552.574589799621,661.690083377915,0,0,0,4,6,5,3,NaN,horizontal,vertical,vertical,horizontal,vertical,none
1a,7,100128,1,16,16,19,M,NA,variable,heterogeneous,3,absent,1.05146884918213,0,vertical,horizontal,1,0.776468110084534,red,3,NaN,632.704947607421,407.549057043193,NaN,NaN,716.980120613425,841.107236777826,1050.31493177915,551.343706178981,632.704947607421,407.549057043193,0,0,0,0,0,0,5,5,4,NaN,NaN,NaN,vertical,vertical,vertical,none,none,none
1a,7,100128,1,17,17,19,M,NA,variable,heterogeneous,4,absent,1.34230804443359,1,horizontal,horizontal,1,0.682351784706116,green,1,NaN,746.982518841471,849.42763818712,NaN,NaN,746.982518841471,849.42763818712,1049.42763818712,653.017481158529,853.017481158529,350.57236181288,550.57236181288,546.982518841471,0,0,0,0,4,5,6,6,NaN,NaN,horizontal,horizontal,horizontal,vertical,none,none
1a,7,100128,1,18,18,19,M,NA,variable,heterogeneous,4,present,0.757308959960938,1,vertical,vertical,1,0.799997191429138,red,3,4,782.212099195248,345.621167183745,545.621167183745,617.787900804752,817.787900804752,854.378832816255,1054.37883281626,582.212099195248,782.212099195248,345.621167183745,545.621167183745,617.787900804752,0,0,0,0,5,0,4,0,NaN,NaN,vertical,horizontal,vertical,horizontal,none,none
1a,7,100128,1,19,19,19,M,NA,variable,heterogeneous,4,present,1.44565105438232,1,vertical,vertical,1,1.05881708621979,red,1,2,643.006323791957,800.942742169714,1000.94274216971,756.993676208043,643.006323791957,800.942742169714,1000.94274216971,756.993676208043,956.993676208043,399.057257830286,599.057257830286,443.006323791957,0,0,0,0,4,5,3,6,NaN,NaN,vertical,horizontal,vertical,horizontal,none,none
1a,7,100128,1,20,20,19,M,NA,variable,heterogeneous,5,absent,1.7156138420105,1,horizontal,horizontal,1,1.02352346420288,red,3,NaN,804.450363641507,345.03883773512,NaN,NaN,946.261991269517,808.883771293693,1043.85771277057,525.445215295702,804.450363641507,345.03883773512,558.892763222174,516.980120613425,646.537169096228,803.65205506206,0,0,6,3,4,0,5,NaN,vertical,vertical,horizontal,horizontal,vertical,none
1a,7,100128,1,21,21,19,M,NA,variable,heterogeneous,6,present,1.50234699249268,1,vertical,vertical,1,0.623529081344604,red,2,5,953.462830903772,803.65205506206,646.537169096228,396.34794493794,700.363562235235,834.728737630372,953.462830903772,803.65205506206,1053.09926866854,568.923317431687,899.636437764765,365.271262369628,646.537169096228,396.34794493794,546.900731331463,631.076682568313,0,4,3,6,6,3,horizontal,vertical,vertical,horizontal,vertical,horizontal
1a,7,100128,1,22,22,19,M,NA,variable,heterogeneous,5,present,1.75756096839905,1,horizontal,horizontal,1,0.847055354118347,red,1,4,844.280285305067,851.125977018113,616.568350913644,422.862115532956,844.280285305067,851.125977018113,1052.5183575291,635.489140744817,911.784642431215,370.807518193712,616.568350913644,422.862115532956,574.848363820974,719.715248510402,0,0,4,6,3,5,6,NaN,horizontal,horizontal,horizontal,vertical,horizontal,none
1a,7,100128,1,23,23,19,M,NA,variable,heterogeneous,4,present,1.22177791595459,1,horizontal,horizontal,1,1.05881708621979,red,3,1,639.523300282292,401.827779828472,960.476699717708,798.172220171528,960.476699717708,798.172220171528,998.172220171528,439.523300282291,639.523300282292,401.827779828472,601.827779828472,760.476699717708,0,0,0,0,6,3,4,0,NaN,NaN,horizontal,vertical,horizontal,horizontal,none,none
1a,7,100128,1,24,24,19,M,NA,variable,heterogeneous,4,absent,0.774649143218994,1,vertical,vertical,1,0.988229842185974,green,3,NaN,848.656293821019,349.685068220846,NaN,NaN,751.343706178981,850.314931779154,1050.31493177915,648.656293821019,848.656293821019,349.685068220846,549.685068220846,551.343706178981,0,0,0,0,5,0,4,0,NaN,NaN,vertical,horizontal,vertical,vertical,none,none
1a,7,100128,1,25,25,19,M,NA,variable,heterogeneous,5,absent,0.890697002410889,1,horizontal,horizontal,1,0.835290813446045,green,3,NaN,857.362518857686,351.535633479765,NaN,NaN,899.636437764765,834.728737630372,1054.0296480134,577.775285599347,857.362518857686,351.535633479765,581.422338320961,468.665290897936,607.549057043193,767.295052392579,0,0,3,5,4,5,3,NaN,horizontal,horizontal,horizontal,vertical,horizontal,none
1a,7,100128,1,26,26,19,M,NA,variable,heterogeneous,3,present,0.729358911514282,1,vertical,vertical,1,0.835290813446045,green,3,2,668.665290897936,381.422338320961,1054.96116226488,595.549636358493,676.373546837184,823.028025320546,1054.96116226488,595.549636358493,668.665290897936,381.422338320961,0,0,0,0,0,0,3,0,4,NaN,NaN,NaN,vertical,vertical,vertical,none,none,none
1a,7,100128,1,27,27,19,M,NA,variable,heterogeneous,3,absent,1.01795220375061,1,vertical,vertical,1,0.682351784706116,green,1,NaN,734.001143498857,846.311085703712,NaN,NaN,734.001143498857,846.311085703712,1046.31108570371,534.001143498857,619.68777079743,419.68777079743,0,0,0,0,0,0,4,6,3,NaN,NaN,NaN,vertical,vertical,vertical,none,none,none
1a,7,100128,1,28,28,19,M,NA,variable,heterogeneous,5,present,NaN,0,horizontal,none,0,0.952936220169067,green,2,3,983.431649086356,777.137884467044,1025.15163617903,480.284751489598,688.215357568785,829.192481806288,983.431649086356,777.137884467044,1025.15163617903,480.284751489598,755.719714694933,348.874022981887,547.481642470899,564.510859255183,0,0,5,4,0,3,0,NaN,vertical,horizontal,horizontal,horizontal,horizontal,none
1a,7,100128,1,29,29,19,M,NA,variable,heterogeneous,3,absent,0.982300996780396,1,horizontal,horizontal,1,1.02352346420288,red,1,NaN,963.910840470068,795.341332995339,NaN,NaN,963.910840470068,795.341332995339,887.215136548046,360.378381699593,548.874022981887,644.280285305067,0,0,0,0,0,0,4,5,6,NaN,NaN,NaN,horizontal,horizontal,vertical,none,none,none
1a,7,100128,1,30,30,19,M,NA,variable,heterogeneous,5,absent,0.776539087295532,1,vertical,vertical,1,0.929407138824463,red,4,NaN,708.616172865948,361.936991243214,NaN,NaN,734.001143498857,846.311085703712,1013.86099482608,738.882953928832,998.172220171528,439.523300282291,708.616172865948,361.936991243214,545.349468637584,613.345668841951,0,0,5,3,0,4,5,NaN,horizontal,horizontal,vertical,vertical,horizontal,none
1a,7,100128,1,31,31,19,M,NA,variable,heterogeneous,4,absent,0.888195991516113,1,horizontal,horizontal,1,0.988229842185974,green,3,NaN,704.475318678942,363.568117085469,NaN,NaN,895.524681321058,836.431882914531,1036.43188291453,504.475318678942,704.475318678942,363.568117085469,563.568117085469,695.524681321058,0,0,0,0,5,0,4,6,NaN,NaN,horizontal,vertical,horizontal,vertical,none,none
1a,7,100128,1,32,32,19,M,NA,variable,heterogeneous,4,present,1.33692407608032,1,horizontal,horizontal,1,0.752939028739929,green,3,2,755.719714694933,348.874022981887,1051.12597701811,555.719714694933,844.280285305067,851.125977018113,1051.12597701811,555.719714694933,755.719714694933,348.874022981887,548.874022981887,644.280285305067,0,0,0,0,5,3,4,6,NaN,NaN,horizontal,vertical,horizontal,vertical,none,none
1a,7,100128,1,33,33,19,M,NA,variable,heterogeneous,3,absent,0.656782865524292,1,vertical,vertical,1,0.635293622016907,green,2,NaN,1016.25226451989,464.870587620533,NaN,NaN,808.899371659138,854.844660889869,1016.25226451989,464.870587620533,574.848363820974,480.284751489598,0,0,0,0,0,0,0,4,6,NaN,NaN,NaN,vertical,vertical,vertical,none,none,none
1a,7,100128,1,34,34,19,M,NA,variable,heterogeneous,4,absent,0.696317195892334,1,vertical,vertical,1,0.917642598152161,red,4,NaN,552.574589799621,661.690083377915,NaN,NaN,861.690083377915,847.425410200379,1047.42541020038,538.309916622085,738.309916622085,352.574589799621,552.574589799621,661.690083377915,0,0,0,0,6,5,5,4,NaN,NaN,vertical,vertical,horizontal,vertical,none,none
1a,7,100128,1,35,35,19,M,NA,variable,heterogeneous,5,present,0.695785999298096,1,vertical,vertical,1,0.670587244033813,green,2,3,1052.5183575291,564.510859255183,844.280285305067,348.874022981887,911.784642431215,829.192481806288,1052.5183575291,564.510859255183,844.280285305067,348.874022981887,574.848363820974,480.284751489598,616.568350913644,777.137884467044,0,0,3,4,6,5,0,NaN,vertical,vertical,horizontal,horizontal,horizontal,none
1a,7,100128,1,36,36,19,M,NA,variable,heterogeneous,6,present,0.731665134429932,1,vertical,vertical,1,0.682351784706116,red,5,6,547.481642470899,564.510859255183,643.006323791957,800.942742169714,895.524681321058,836.431882914531,1052.5183575291,635.489140744817,956.993676208043,399.057257830286,704.475318678942,363.568117085469,547.481642470899,564.510859255183,643.006323791957,800.942742169714,3,5,6,6,4,0,vertical,horizontal,vertical,vertical,vertical,horizontal
1a,7,100128,1,37,37,19,M,NA,variable,heterogeneous,6,present,0.994395017623901,1,horizontal,horizontal,1,1.01175892353058,green,6,3,601.827779828472,760.476699717708,998.172220171528,439.523300282291,839.890788585259,851.86052685176,1038.06300875679,691.383827134052,998.172220171528,439.523300282291,760.109211414741,348.13947314824,561.936991243214,508.616172865948,601.827779828472,760.476699717708,0,6,6,5,5,4,vertical,horizontal,vertical,vertical,horizontal,horizontal
1a,7,100128,1,38,38,19,M,NA,variable,heterogeneous,6,present,1.95141291618347,1,horizontal,horizontal,1,0.635293622016907,green,2,6,989.501930496736,770.628304621509,557.480588344736,678.799333565612,746.982518841471,849.42763818712,989.501930496736,770.628304621509,1042.51941165526,521.200666434388,853.017481158529,350.57236181288,610.498069503264,429.371695378491,557.480588344736,678.799333565612,3,4,6,0,5,6,vertical,horizontal,horizontal,vertical,horizontal,vertical
1a,7,100128,1,39,39,19,M,NA,variable,heterogeneous,5,present,0.95375394821167,1,horizontal,horizontal,1,0.741174488067627,green,4,5,576.971974679454,476.373546837184,613.504806087112,773.909581815937,907.767656743878,831.108485694346,1053.09926866854,568.923317431687,848.656293821019,349.685068220846,576.971974679454,476.373546837184,613.504806087112,773.909581815937,0,0,0,5,0,4,3,NaN,horizontal,vertical,vertical,horizontal,vertical,none
1a,7,100128,1,40,40,19,M,NA,variable,heterogeneous,4,present,1.02166509628296,1,vertical,vertical,1,1.04705254554749,green,1,2,967.295052392579,792.450942956807,992.450942956807,432.704947607421,967.295052392579,792.450942956807,992.450942956807,432.704947607421,632.704947607421,407.549057043193,607.549057043193,767.295052392579,0,0,0,0,4,3,5,6,NaN,NaN,vertical,vertical,horizontal,vertical,none,none
1a,7,100128,1,41,41,19,M,NA,variable,heterogeneous,5,absent,1.08852386474609,1,vertical,vertical,1,0.717645406723022,red,3,NaN,1039.62161830041,512.784863451954,NaN,NaN,657.405809614959,811.404581001536,956.993676208043,800.942742169714,1039.62161830041,512.784863451954,791.100628340862,345.155339110131,554.878267535729,529.712474266665,0,0,6,3,4,5,0,NaN,horizontal,vertical,vertical,horizontal,vertical,none
1a,7,100128,1,42,42,19,M,NA,variable,heterogeneous,4,absent,1.24714303016663,1,horizontal,horizontal,1,0.635293622016907,red,4,NaN,547.481642470899,635.489140744817,NaN,NaN,835.489140744817,852.518357529101,1052.5183575291,564.510859255183,764.510859255183,347.4816424709,547.481642470899,635.489140744817,0,0,0,0,6,6,5,4,NaN,NaN,vertical,vertical,horizontal,horizontal,none,none
1a,7,100128,1,43,43,19,M,NA,variable,heterogeneous,5,present,1.29163599014282,1,vertical,vertical,1,0.776468110084534,green,5,3,546.900731331463,568.923317431687,1023.02802532055,476.373546837184,692.232343256122,831.108485694346,986.495193912888,773.909581815937,1023.02802532055,476.373546837184,751.343706178981,349.685068220846,546.900731331463,568.923317431687,0,0,5,6,0,3,4,NaN,vertical,horizontal,vertical,vertical,vertical,none
1a,7,100128,1,44,44,19,M,NA,variable,heterogeneous,3,present,0.761780023574829,1,horizontal,horizontal,1,0.788232650756836,green,3,1,558.892763222174,683.019879386575,992.450942956807,767.295052392579,992.450942956807,767.295052392579,848.656293821019,349.685068220846,558.892763222174,683.019879386575,0,0,0,0,0,0,6,0,4,NaN,NaN,NaN,vertical,vertical,horizontal,none,none,none
1a,7,100128,1,45,45,19,M,NA,variable,heterogeneous,6,present,1.67831492424011,1,horizontal,horizontal,1,0.670587244033813,red,4,3,878.799333565612,357.480588344736,1049.42763818712,546.982518841471,721.200666434388,842.519411655264,970.628304621509,789.501930496736,1049.42763818712,546.982518841471,878.799333565612,357.480588344736,629.371695378491,410.498069503264,550.57236181288,653.017481158529,3,5,6,4,0,3,horizontal,horizontal,vertical,horizontal,vertical,horizontal
1a,7,100128,1,46,46,19,M,NA,variable,heterogeneous,5,present,1.43270897865295,1,vertical,vertical,1,0.835290813446045,red,3,5,899.636437764765,365.271262369628,581.422338320961,731.334709102064,857.362518857686,848.464366520235,1054.0296480134,622.224714400653,899.636437764765,365.271262369628,607.549057043193,432.704947607421,581.422338320961,731.334709102064,0,0,3,3,4,5,6,NaN,horizontal,vertical,vertical,vertical,horizontal,none
1a,7,100128,1,47,47,19,M,NA,variable,heterogeneous,4,present,1.19559097290039,1,horizontal,horizontal,1,0.70588086605072,green,3,1,808.899371659138,345.155339110131,791.100628340862,854.844660889869,791.100628340862,854.844660889869,1054.84466088987,608.899371659138,808.899371659138,345.155339110131,545.155339110131,591.100628340862,0,0,0,0,3,6,4,0,NaN,NaN,horizontal,vertical,horizontal,horizontal,none,none
1a,7,100128,1,48,48,19,M,NA,variable,heterogeneous,5,absent,0.967441082000732,1,vertical,vertical,1,1.01175892353058,green,1,NaN,800,855,NaN,NaN,800,855,1042.51941165526,678.799333565612,949.885239334581,393.700666434388,650.114760665419,393.700666434388,557.480588344736,678.799333565612,0,0,4,5,6,5,0,NaN,vertical,horizontal,horizontal,horizontal,horizontal,none
1a,7,100128,1,49,49,19,M,NA,variable,heterogeneous,6,present,NaN,0,vertical,none,0,0.764703569412231,green,6,3,546.39691668109,626.654758133252,1053.60308331891,573.345241866748,696.282156015671,832.954091698863,949.885239334581,806.299333565612,1053.60308331891,573.345241866748,903.717843984329,367.045908301137,650.114760665419,393.700666434388,546.39691668109,626.654758133252,6,5,3,3,5,4,vertical,horizontal,horizontal,horizontal,vertical,vertical
1a,7,100128,1,50,50,19,M,NA,variable,heterogeneous,3,absent,1.29641699790955,1,horizontal,horizontal,1,0.670587244033813,red,1,NaN,848.656293821019,850.314931779154,NaN,NaN,848.656293821019,850.314931779154,992.450942956807,432.704947607421,558.892763222174,516.980120613425,0,0,0,0,0,0,4,3,5,NaN,NaN,NaN,horizontal,horizontal,horizontal,none,none,none
1a,7,100128,1,51,51,19,M,NA,variable,heterogeneous,4,present,NaN,0,horizontal,none,0,0.752939028739929,red,4,2,545.155339110131,591.100628340862,1054.84466088987,608.899371659138,791.100628340862,854.844660889869,1054.84466088987,608.899371659138,808.899371659138,345.155339110131,545.155339110131,591.100628340862,0,0,0,0,3,3,0,4,NaN,NaN,vertical,horizontal,horizontal,horizontal,none,none
1a,7,100128,1,52,52,19,M,NA,variable,heterogeneous,5,absent,1.26084613800049,1,vertical,vertical,1,0.941171679496765,green,5,NaN,593.700666434388,749.885239334581,NaN,NaN,878.799333565612,842.519411655264,1055,600,878.799333565612,357.480588344736,593.700666434388,450.114760665419,593.700666434388,749.885239334581,0,0,5,6,0,0,4,NaN,vertical,horizontal,horizontal,horizontal,vertical,none
1a,7,100128,1,53,53,19,M,NA,variable,heterogeneous,4,absent,NaN,0,vertical,none,0,0.670587244033813,red,4,NaN,570.807518193712,488.215357568785,NaN,NaN,688.215357568785,829.192481806288,1029.19248180629,711.784642431215,911.784642431215,370.807518193712,570.807518193712,488.215357568785,0,0,0,0,6,3,0,4,NaN,NaN,vertical,vertical,vertical,vertical,none,none
1a,7,100128,1,54,54,19,M,NA,variable,heterogeneous,6,absent,1.31291699409485,1,horizontal,horizontal,1,0.858819894790649,red,4,NaN,680.284751489598,374.848363820974,NaN,NaN,919.715248510402,825.151636179026,1054.84466088987,608.899371659138,935.129412379467,383.747735480111,680.284751489598,374.848363820974,545.155339110131,591.100628340862,664.870587620533,816.252264519889,0,3,6,4,6,5,horizontal,horizontal,vertical,horizontal,vertical,horizontal
1a,7,100128,1,55,55,19,M,NA,variable,heterogeneous,3,absent,1.60878396034241,1,horizontal,horizontal,1,0.658822703361511,green,2,NaN,891.383827134052,361.936991243214,NaN,NaN,960.476699717708,798.172220171528,891.383827134052,361.936991243214,548.13947314824,639.890788585259,0,0,0,0,0,0,5,4,6,NaN,NaN,NaN,vertical,horizontal,horizontal,none,none,none
1a,7,100128,1,56,56,19,M,NA,variable,heterogeneous,3,absent,0.803990125656128,1,vertical,vertical,1,0.952936220169067,red,3,NaN,545.970351986605,577.775285599347,NaN,NaN,907.767656743878,831.108485694346,946.261991269517,391.116228706307,545.970351986605,577.775285599347,0,0,0,0,0,0,5,5,4,NaN,NaN,NaN,horizontal,horizontal,vertical,none,none,none
1a,7,100128,1,57,57,19,M,NA,variable,heterogeneous,6,absent,1.58625197410583,0,vertical,horizontal,1,0.694116325378418,green,6,NaN,546.900731331463,631.076682568313,NaN,NaN,700.363562235235,834.728737630372,953.462830903772,803.65205506206,1053.09926866854,568.923317431687,899.636437764765,365.271262369628,646.537169096228,396.34794493794,546.900731331463,631.076682568313,0,5,3,3,6,4,vertical,vertical,horizontal,horizontal,vertical,vertical
1a,7,100128,1,58,58,19,M,NA,variable,heterogeneous,3,absent,0.838963031768799,1,horizontal,horizontal,1,0.647058162689209,green,3,NaN,548.13947314824,560.109211414741,NaN,NaN,891.383827134052,838.063008756786,960.476699717708,401.827779828472,548.13947314824,560.109211414741,0,0,0,0,0,0,3,6,4,NaN,NaN,NaN,vertical,horizontal,horizontal,none,none,none
1a,7,100128,1,59,59,19,M,NA,variable,heterogeneous,5,absent,1.4138810634613,1,horizontal,horizontal,1,0.70588086605072,green,5,NaN,591.116228706307,746.261991269517,NaN,NaN,874.554784704298,843.857712770574,1054.96116226488,604.450363641507,883.019879386575,358.892763222174,596.34794493794,446.537169096228,591.116228706307,746.261991269517,0,0,6,3,0,5,4,NaN,vertical,vertical,horizontal,horizontal,horizontal,none
1a,7,100128,1,60,60,19,M,NA,variable,heterogeneous,3,present,1.35247206687927,1,vertical,vertical,1,0.894113516807556,red,2,3,1051.86052685176,639.890788585259,708.616172865948,361.936991243214,639.523300282292,798.172220171528,1051.86052685176,639.890788585259,708.616172865948,361.936991243214,0,0,0,0,0,0,6,4,0,NaN,NaN,NaN,vertical,vertical,horizontal,none,none,none
1a,7,100128,1,61,61,19,M,NA,variable,heterogeneous,6,absent,1.58425402641296,1,vertical,vertical,1,0.835290813446045,green,2,NaN,998.172220171528,760.476699717708,NaN,NaN,760.109211414741,851.86052685176,998.172220171528,760.476699717708,1038.06300875679,508.616172865948,839.890788585259,348.13947314824,601.827779828472,439.523300282291,561.936991243214,691.383827134052,5,4,0,6,5,3,horizontal,vertical,vertical,vertical,vertical,horizontal
1a,7,100128,1,62,62,19,M,NA,variable,heterogeneous,3,present,1.10620808601379,1,horizontal,horizontal,1,0.905878057479858,red,2,3,911.784642431215,370.807518193712,545.621167183745,617.787900804752,942.594190385041,811.404581001536,911.784642431215,370.807518193712,545.621167183745,617.787900804752,0,0,0,0,0,0,0,4,5,NaN,NaN,NaN,vertical,horizontal,vertical,none,none,none
1a,7,100128,1,63,63,19,M,NA,variable,heterogeneous,5,present,NaN,0,horizontal,none,0,0.647058162689209,red,2,1,998.172220171528,760.476699717708,708.616172865948,838.063008756786,708.616172865948,838.063008756786,998.172220171528,760.476699717708,1013.86099482608,461.117046071168,734.001143498857,353.688914296288,545.349468637584,586.654331158049,0,0,5,4,0,5,6,NaN,horizontal,horizontal,horizontal,horizontal,vertical,none
1a,7,100128,1,64,64,19,M,NA,variable,heterogeneous,6,present,1.40141606330872,1,vertical,vertical,1,0.999994382858276,green,2,1,949.885239334581,806.299333565612,696.282156015671,832.954091698863,696.282156015671,832.954091698863,949.885239334581,806.299333565612,1053.60308331891,573.345241866748,903.717843984329,367.045908301137,650.114760665419,393.700666434388,546.39691668109,626.654758133252,0,4,5,3,3,6,horizontal,vertical,vertical,horizontal,horizontal,vertical
1a,7,100128,2,1,65,19,M,NA,variable,heterogeneous,3,absent,0.754033088684082,1,vertical,vertical,1,0.882348976135254,green,2,NaN,915.767577433584,372.793336331966,NaN,NaN,938.882953928832,813.860994826083,915.767577433584,372.793336331966,545.349468637584,613.345668841951,0,0,0,0,0,0,5,4,5,NaN,NaN,NaN,horizontal,vertical,horizontal,none,none,none
1a,7,100128,2,2,66,19,M,NA,variable,heterogeneous,3,present,0.695641994476318,1,vertical,vertical,1,0.717645406723022,green,1,2,653.738008730483,808.883771293693,1054.0296480134,622.224714400653,653.738008730483,808.883771293693,1054.0296480134,622.224714400653,692.232343256122,368.891514305654,0,0,0,0,0,0,4,3,6,NaN,NaN,NaN,vertical,vertical,horizontal,none,none,none
1a,7,100128,2,3,67,19,M,NA,variable,heterogeneous,3,present,1.19866490364075,1,vertical,vertical,1,1.04705254554749,red,3,2,547.481642470899,564.510859255183,956.993676208043,399.057257830286,895.524681321058,836.431882914531,956.993676208043,399.057257830286,547.481642470899,564.510859255183,0,0,0,0,0,0,6,6,4,NaN,NaN,NaN,vertical,horizontal,vertical,none,none,none
1a,7,100128,2,4,68,19,M,NA,variable,heterogeneous,6,absent,0.844896078109741,1,vertical,vertical,1,0.694116325378418,green,3,NaN,1053.60308331891,573.345241866748,NaN,NaN,696.282156015671,832.954091698863,949.885239334581,806.299333565612,1053.60308331891,573.345241866748,903.717843984329,367.045908301137,650.114760665419,393.700666434388,546.39691668109,626.654758133252,3,5,4,6,0,3,horizontal,vertical,vertical,horizontal,horizontal,vertical
1a,7,100128,2,5,69,19,M,NA,variable,heterogeneous,3,absent,0.858016014099121,1,vertical,vertical,1,0.611764540672302,red,2,NaN,1023.02802532055,723.626453162816,NaN,NaN,581.422338320961,731.334709102064,1023.02802532055,723.626453162816,795.549636358493,345.03883773512,0,0,0,0,0,0,6,4,3,NaN,NaN,NaN,vertical,vertical,vertical,none,none,none
1a,7,100128,2,6,70,19,M,NA,variable,heterogeneous,6,absent,1.19424486160278,1,vertical,vertical,1,0.729409947395325,red,1,NaN,915.767577433584,827.206663668034,NaN,NaN,915.767577433584,827.206663668034,1054.65053136242,613.345668841951,938.882953928832,386.139005173917,684.232422566416,372.793336331966,545.349468637584,586.654331158049,661.117046071168,813.860994826083,4,3,6,5,3,0,vertical,horizontal,vertical,vertical,vertical,horizontal
1a,7,100128,2,7,71,19,M,NA,variable,heterogeneous,4,absent,0.87932300567627,1,horizontal,horizontal,1,0.858819894790649,red,2,NaN,1041.10723677783,683.019879386575,NaN,NaN,716.980120613425,841.107236777826,1041.10723677783,683.019879386575,883.019879386575,358.892763222174,558.892763222174,516.980120613425,0,0,0,0,0,4,5,5,NaN,NaN,horizontal,horizontal,vertical,horizontal,none,none
1a,7,100128,2,8,72,19,M,NA,variable,heterogeneous,3,present,0.647315979003906,1,vertical,vertical,1,0.917642598152161,red,1,2,1018.57766167904,731.334709102064,804.450363641507,345.03883773512,1018.57766167904,731.334709102064,804.450363641507,345.03883773512,576.971974679454,723.626453162816,0,0,0,0,0,0,4,0,6,NaN,NaN,NaN,vertical,horizontal,vertical,none,none,none
1a,7,100128,2,9,73,19,M,NA,variable,heterogeneous,3,absent,0.773027896881104,1,vertical,vertical,1,1.02352346420288,green,1,NaN,998.172220171528,760.476699717708,NaN,NaN,998.172220171528,760.476699717708,839.890788585259,348.13947314824,561.936991243214,691.383827134052,0,0,0,0,0,0,4,0,3,NaN,NaN,NaN,vertical,vertical,vertical,none,none,none
1a,7,100128,2,10,74,19,M,NA,variable,heterogeneous,3,absent,0.776607990264893,1,horizontal,horizontal,1,1.01175892353058,red,1,NaN,946.261991269517,808.883771293693,NaN,NaN,946.261991269517,808.883771293693,907.767656743878,368.891514305654,545.970351986605,622.224714400653,0,0,0,0,0,0,4,6,5,NaN,NaN,NaN,horizontal,horizontal,horizontal,none,none,none
1a,7,100128,2,11,75,19,M,NA,variable,heterogeneous,4,present,1.06546807289124,1,vertical,vertical,1,0.858819894790649,red,1,4,725.445215295702,843.857712770574,556.142287229426,525.445215295702,725.445215295702,843.857712770574,1043.85771277057,674.554784704298,874.554784704298,356.142287229426,556.142287229426,525.445215295702,0,0,0,0,4,3,0,6,NaN,NaN,vertical,horizontal,horizontal,horizontal,none,none
1a,7,100128,2,12,76,19,M,NA,variable,heterogeneous,6,absent,0.852330923080444,1,horizontal,horizontal,1,0.647058162689209,green,2,NaN,1049.42763818712,653.017481158529,NaN,NaN,878.799333565612,842.519411655264,1049.42763818712,653.017481158529,970.628304621509,410.498069503264,721.200666434388,357.480588344736,550.57236181288,546.982518841471,629.371695378491,789.501930496736,0,4,5,6,3,0,horizontal,horizontal,vertical,vertical,horizontal,horizontal
1a,7,100128,2,13,77,19,M,NA,variable,heterogeneous,3,present,0.796381950378418,1,vertical,vertical,1,0.941171679496765,green,3,1,725.445215295702,356.142287229426,626.090418184063,786.495193912888,626.090418184063,786.495193912888,1048.46436652023,657.362518857686,725.445215295702,356.142287229426,0,0,0,0,0,0,5,3,4,NaN,NaN,NaN,vertical,horizontal,vertical,none,none,none
1a,7,100128,2,14,78,19,M,NA,variable,heterogeneous,4,present,0.766231060028076,0,vertical,horizontal,1,0.894113516807556,red,2,1,989.501930496736,770.628304621509,629.371695378491,789.501930496736,629.371695378491,789.501930496736,989.501930496736,770.628304621509,970.628304621509,410.498069503264,610.498069503264,429.371695378491,0,0,0,0,5,4,0,0,NaN,NaN,vertical,vertical,vertical,horizontal,none,none
1a,7,100128,2,15,79,19,M,NA,variable,heterogeneous,6,present,1.35000705718994,1,horizontal,horizontal,1,1.02352346420288,green,6,1,626.090418184063,786.495193912888,874.554784704298,843.857712770574,874.554784704298,843.857712770574,1048.46436652023,657.362518857686,973.909581815937,413.504806087112,725.445215295702,356.142287229426,551.535633479765,542.637481142314,626.090418184063,786.495193912888,3,0,6,3,6,4,horizontal,horizontal,horizontal,horizontal,vertical,horizontal
1a,7,100128,2,16,80,19,M,NA,variable,heterogeneous,3,absent,1.06448698043823,1,horizontal,horizontal,1,0.96470076084137,green,1,NaN,725.445215295702,843.857712770574,NaN,NaN,725.445215295702,843.857712770574,1048.46436652023,542.637481142314,626.090418184063,413.504806087112,0,0,0,0,0,0,4,0,5,NaN,NaN,NaN,horizontal,horizontal,horizontal,none,none,none
1a,7,100128,2,17,81,19,M,NA,variable,heterogeneous,5,present,1.22633600234985,1,horizontal,horizontal,1,1.02352346420288,red,5,1,545,600,721.200666434388,842.519411655264,721.200666434388,842.519411655264,1006.29933356561,749.885239334581,1006.29933356561,450.114760665419,721.200666434388,357.480588344736,545,600,0,0,6,6,0,5,4,NaN,horizontal,horizontal,vertical,vertical,horizontal,none
1a,7,100128,2,18,82,19,M,NA,variable,heterogeneous,3,absent,0.96107292175293,1,horizontal,horizontal,1,0.694116325378418,green,2,NaN,1031.10848569435,492.232343256122,NaN,NaN,777.775285599347,854.029648013395,1031.10848569435,492.232343256122,591.116228706307,453.738008730483,0,0,0,0,0,0,3,4,0,NaN,NaN,NaN,horizontal,horizontal,horizontal,none,none,none
1a,7,100128,2,19,83,19,M,NA,variable,heterogeneous,6,present,1.54087686538696,1,horizontal,horizontal,1,0.823526272773743,red,1,4,777.775285599347,854.029648013395,822.224714400653,345.970351986605,777.775285599347,854.029648013395,1008.88377129369,746.261991269517,1031.10848569435,492.232343256122,822.224714400653,345.970351986605,591.116228706307,453.738008730483,568.891514305654,707.767656743878,4,0,3,6,0,3,horizontal,vertical,vertical,horizontal,vertical,horizontal
1a,7,100128,2,20,84,19,M,NA,variable,heterogeneous,5,absent,1.69655609130859,1,horizontal,horizontal,1,0.835290813446045,green,5,NaN,563.568117085469,695.524681321058,NaN,NaN,817.787900804752,854.378832816255,1047.42541020038,661.690083377915,935.129412379467,383.747735480111,636.089159529932,404.658667004661,563.568117085469,695.524681321058,0,0,5,6,3,3,4,NaN,vertical,vertical,horizontal,horizontal,horizontal,none
1a,7,100128,2,21,85,19,M,NA,variable,heterogeneous,5,absent,1.55707597732544,1,vertical,vertical,1,0.70588086605072,red,1,NaN,887.215136548046,839.621618300407,NaN,NaN,887.215136548046,839.621618300407,1054.84466088987,591.100628340862,870.287525733335,354.878267535729,588.595418998464,457.40580961496,599.057257830286,756.993676208043,0,0,4,6,5,6,3,NaN,vertical,horizontal,horizontal,vertical,horizontal,none
1a,7,100128,2,22,86,19,M,NA,variable,heterogeneous,6,absent,NaN,0,horizontal,none,0,1.02352346420288,green,2,NaN,1046.31108570371,665.998856501143,NaN,NaN,865.998856501143,846.311085703712,1046.31108570371,665.998856501143,980.31222920257,419.68777079743,734.001143498857,353.688914296288,553.688914296288,534.001143498857,619.68777079743,780.31222920257,5,4,5,0,6,6,vertical,horizontal,horizontal,vertical,vertical,horizontal
1a,7,100128,2,23,87,19,M,NA,variable,heterogeneous,3,present,0.760324001312256,1,horizontal,horizontal,1,0.96470076084137,green,3,2,619.68777079743,419.68777079743,1046.31108570371,534.001143498857,734.001143498857,846.311085703712,1046.31108570371,534.001143498857,619.68777079743,419.68777079743,0,0,0,0,0,0,5,3,4,NaN,NaN,NaN,horizontal,horizontal,horizontal,none,none,none
1a,7,100128,2,24,88,19,M,NA,variable,heterogeneous,5,present,1.04817795753479,1,vertical,vertical,1,0.835290813446045,red,5,3,576.971974679454,723.626453162816,907.767656743878,368.891514305654,848.656293821019,850.314931779154,1053.09926866854,631.076682568313,907.767656743878,368.891514305654,613.504806087112,426.090418184063,576.971974679454,723.626453162816,0,0,5,6,0,3,4,NaN,horizontal,horizontal,horizontal,vertical,vertical,none
1a,7,100128,2,25,89,19,M,NA,variable,heterogeneous,4,absent,0.662523031234741,1,vertical,vertical,1,0.847055354118347,green,1,NaN,619.68777079743,780.31222920257,NaN,NaN,619.68777079743,780.31222920257,980.31222920257,780.31222920257,980.31222920257,419.68777079743,619.68777079743,419.68777079743,0,0,0,0,4,5,0,6,NaN,NaN,vertical,horizontal,vertical,horizontal,none,none
1a,7,100128,2,26,90,19,M,NA,variable,heterogeneous,6,absent,1.29407501220703,1,vertical,vertical,1,0.905878057479858,red,5,NaN,653.738008730483,391.116228706307,NaN,NaN,692.232343256122,831.108485694346,946.261991269517,808.883771293693,1054.0296480134,577.775285599347,907.767656743878,368.891514305654,653.738008730483,391.116228706307,545.970351986605,622.224714400653,6,5,6,0,4,3,horizontal,vertical,vertical,vertical,vertical,vertical
1a,7,100128,2,27,91,19,M,NA,variable,heterogeneous,3,present,1.17359590530396,1,horizontal,horizontal,1,1.07058162689209,red,3,1,599.057257830286,443.006323791957,764.510859255183,852.518357529101,764.510859255183,852.518357529101,1036.43188291453,504.475318678942,599.057257830286,443.006323791957,0,0,0,0,0,0,0,6,4,NaN,NaN,NaN,horizontal,horizontal,horizontal,none,none,none
1a,7,100128,2,28,92,19,M,NA,variable,heterogeneous,4,present,1.50589895248413,1,vertical,vertical,1,1.03528800487518,green,3,1,883.019879386575,358.892763222174,716.980120613425,841.107236777826,716.980120613425,841.107236777826,1041.10723677783,683.019879386575,883.019879386575,358.892763222174,558.892763222174,516.980120613425,0,0,0,0,3,0,4,6,NaN,NaN,horizontal,horizontal,vertical,vertical,none,none
1a,7,100128,2,29,93,19,M,NA,variable,heterogeneous,5,present,1.2456841468811,0,horizontal,vertical,1,0.870584435462952,red,4,2,557.480588344736,521.200666434388,1042.51941165526,521.200666434388,949.885239334581,806.299333565612,1042.51941165526,521.200666434388,800,345,557.480588344736,521.200666434388,650.114760665419,806.299333565612,0,0,3,0,3,4,6,NaN,vertical,vertical,vertical,horizontal,horizontal,none
1a,7,100128,2,30,94,19,M,NA,variable,heterogeneous,5,present,0.944720029830933,1,vertical,vertical,1,0.70588086605072,red,5,4,546.39691668109,573.345241866748,746.982518841471,350.57236181288,696.282156015671,832.954091698863,989.501930496736,770.628304621509,1020.83647796503,472.5,746.982518841471,350.57236181288,546.39691668109,573.345241866748,0,0,3,0,6,0,4,NaN,vertical,vertical,horizontal,vertical,vertical,none
1a,7,100128,2,31,95,19,M,NA,variable,heterogeneous,5,absent,1.06083917617798,1,horizontal,horizontal,1,0.835290813446045,green,1,NaN,826.654758133252,853.60308331891,NaN,NaN,826.654758133252,853.60308331891,1049.42763818712,653.017481158529,927.5,379.163522034968,629.371695378491,410.498069503264,567.045908301137,703.717843984329,0,0,4,0,0,5,5,NaN,horizontal,horizontal,horizontal,vertical,horizontal,none
1a,7,100128,2,32,96,19,M,NA,variable,heterogeneous,6,present,1.47029781341553,1,horizontal,horizontal,1,0.999994382858276,red,3,1,1053.09926866854,568.923317431687,700.363562235235,834.728737630372,700.363562235235,834.728737630372,953.462830903772,803.65205506206,1053.09926866854,568.923317431687,899.636437764765,365.271262369628,646.537169096228,396.34794493794,546.900731331463,631.076682568313,6,0,4,6,5,3,horizontal,vertical,horizontal,horizontal,vertical,horizontal
1a,7,100128,2,33,97,19,M,NA,variable,heterogeneous,3,present,0.813880920410156,1,horizontal,horizontal,1,1.09411070823669,green,2,1,1038.06300875679,691.383827134052,601.827779828472,760.476699717708,601.827779828472,760.476699717708,1038.06300875679,691.383827134052,760.109211414741,348.13947314824,0,0,0,0,0,0,5,4,5,NaN,NaN,NaN,horizontal,horizontal,horizontal,none,none,none
1a,7,100128,2,34,98,19,M,NA,variable,heterogeneous,6,absent,1.44023704528809,1,horizontal,horizontal,1,1.09411070823669,red,4,NaN,839.890788585259,348.13947314824,NaN,NaN,760.109211414741,851.86052685176,998.172220171528,760.476699717708,1038.06300875679,508.616172865948,839.890788585259,348.13947314824,601.827779828472,439.523300282291,561.936991243214,691.383827134052,0,6,0,4,6,5,horizontal,vertical,horizontal,horizontal,horizontal,vertical
1a,7,100128,2,35,99,19,M,NA,variable,heterogeneous,5,present,1.39381194114685,1,vertical,vertical,1,0.823526272773743,green,5,3,551.535633479765,542.637481142314,1034.72873763037,500.363562235235,668.665290897936,818.577661679039,967.295052392579,792.450942956807,1034.72873763037,500.363562235235,777.775285599347,345.970351986605,551.535633479765,542.637481142314,0,0,3,5,6,6,4,NaN,vertical,vertical,horizontal,horizontal,vertical,none
1a,7,100128,2,36,100,19,M,NA,variable,heterogeneous,4,present,1.1461341381073,1,horizontal,horizontal,1,1.02352346420288,green,2,4,1023.02802532055,723.626453162816,576.971974679454,476.373546837184,676.373546837184,823.028025320546,1023.02802532055,723.626453162816,923.626453162816,376.971974679454,576.971974679454,476.373546837184,0,0,0,0,0,4,0,5,NaN,NaN,vertical,horizontal,horizontal,vertical,none,none
1a,7,100128,2,37,101,19,M,NA,variable,heterogeneous,5,absent,1.4501039981842,1,vertical,vertical,1,0.847055354118347,red,4,NaN,632.704947607421,407.549057043193,NaN,NaN,822.224714400653,854.029648013395,1048.46436652023,657.362518857686,931.334709102064,381.422338320961,632.704947607421,407.549057043193,565.271262369628,699.636437764765,0,0,5,3,6,4,6,NaN,vertical,horizontal,horizontal,vertical,horizontal,none
1a,7,100128,2,38,102,19,M,NA,variable,heterogeneous,5,present,0.994006872177124,1,vertical,vertical,1,0.917642598152161,green,4,2,791.100628340862,345.155339110131,956.993676208043,800.942742169714,657.405809614959,811.404581001536,956.993676208043,800.942742169714,1039.62161830041,512.784863451954,791.100628340862,345.155339110131,554.878267535729,529.712474266665,0,0,0,0,5,4,6,NaN,horizontal,vertical,vertical,vertical,horizontal,none
1a,7,100128,2,39,103,19,M,NA,variable,heterogeneous,5,absent,0.727092027664185,1,vertical,vertical,1,1.05881708621979,green,2,NaN,983.431649086356,777.137884467044,NaN,NaN,688.215357568785,829.192481806288,983.431649086356,777.137884467044,1025.15163617903,480.284751489598,755.719714694933,348.874022981887,547.481642470899,564.510859255183,0,0,5,4,0,0,6,NaN,vertical,vertical,horizontal,horizontal,horizontal,none
1a,7,100128,2,40,104,19,M,NA,variable,heterogeneous,4,absent,0.696893930435181,1,vertical,vertical,1,0.96470076084137,red,1,NaN,738.309916622085,847.425410200379,NaN,NaN,738.309916622085,847.425410200379,1047.42541020038,661.690083377915,861.690083377915,352.574589799621,552.574589799621,538.309916622085,0,0,0,0,4,6,0,3,NaN,NaN,vertical,horizontal,horizontal,horizontal,none,none
1a,7,100128,2,41,105,19,M,NA,variable,heterogeneous,5,absent,1.22782802581787,1,horizontal,horizontal,1,1.03528800487518,red,3,NaN,1023.02802532055,476.373546837184,NaN,NaN,692.232343256122,831.108485694346,986.495193912888,773.909581815937,1023.02802532055,476.373546837184,751.343706178981,349.685068220846,546.900731331463,568.923317431687,0,0,5,3,4,5,6,NaN,vertical,vertical,horizontal,horizontal,vertical,none
1a,7,100128,2,42,106,19,M,NA,variable,heterogeneous,4,absent,0.818058967590332,1,vertical,vertical,1,1.09411070823669,green,1,NaN,967.295052392579,792.450942956807,NaN,NaN,967.295052392579,792.450942956807,992.450942956807,432.704947607421,632.704947607421,407.549057043193,607.549057043193,767.295052392579,0,0,0,0,4,6,3,3,NaN,NaN,vertical,horizontal,horizontal,horizontal,none,none
1a,7,100128,2,43,107,19,M,NA,variable,heterogeneous,6,present,1.07060289382935,1,vertical,vertical,1,0.988229842185974,red,6,4,646.537169096228,803.65205506206,700.363562235235,365.271262369628,899.636437764765,834.728737630372,1053.09926866854,631.076682568313,953.462830903772,396.34794493794,700.363562235235,365.271262369628,546.900731331463,568.923317431687,646.537169096228,803.65205506206,6,0,3,5,3,4,horizontal,horizontal,vertical,horizontal,horizontal,vertical
1a,7,100128,2,44,108,19,M,NA,variable,heterogeneous,6,present,1.90556120872498,1,vertical,vertical,1,0.658822703361511,green,6,1,545.349468637584,613.345668841951,684.232422566416,827.206663668034,684.232422566416,827.206663668034,938.882953928832,813.860994826083,1054.65053136242,586.654331158049,915.767577433584,372.793336331966,661.117046071168,386.139005173917,545.349468637584,613.345668841951,0,3,5,6,6,4,horizontal,horizontal,horizontal,horizontal,horizontal,vertical
1a,7,100128,2,45,109,19,M,NA,variable,heterogeneous,6,present,1.41161704063416,1,vertical,vertical,1,0.976465301513672,green,3,5,1018.57766167904,468.665290897936,576.971974679454,476.373546837184,804.450363641507,854.96116226488,1023.02802532055,723.626453162816,1018.57766167904,468.665290897936,795.549636358493,345.03883773512,576.971974679454,476.373546837184,581.422338320961,731.334709102064,0,0,4,6,3,5,horizontal,vertical,vertical,vertical,vertical,vertical
1a,7,100128,2,46,110,19,M,NA,variable,heterogeneous,5,absent,0.895195007324219,1,vertical,vertical,1,0.96470076084137,green,4,NaN,725.445215295702,356.142287229426,NaN,NaN,716.980120613425,841.107236777826,1003.65205506206,753.462830903772,1008.88377129369,453.738008730483,725.445215295702,356.142287229426,545.03883773512,595.549636358493,0,0,3,6,0,4,5,NaN,vertical,horizontal,horizontal,vertical,horizontal,none
1a,7,100128,2,47,111,19,M,NA,variable,heterogeneous,3,present,1.29291296005249,1,horizontal,horizontal,1,0.776468110084534,red,1,2,995.341332995339,763.910840470068,844.280285305067,348.874022981887,995.341332995339,763.910840470068,844.280285305067,348.874022981887,560.378381699593,687.215136548046,0,0,0,0,0,0,4,3,5,NaN,NaN,NaN,horizontal,vertical,horizontal,none,none,none
1a,7,100128,2,48,112,19,M,NA,variable,heterogeneous,6,absent,1.46557807922363,1,horizontal,horizontal,1,0.729409947395325,red,4,NaN,729.712474266665,354.878267535729,NaN,NaN,870.287525733335,845.121732464271,1047.42541020038,661.690083377915,977.137884467044,416.568350913644,729.712474266665,354.878267535729,552.574589799621,538.309916622085,622.862115532956,783.431649086356,3,5,0,4,3,0,vertical,vertical,horizontal,horizontal,horizontal,vertical
1a,7,100128,2,49,113,19,M,NA,variable,heterogeneous,4,present,0.867626905441284,1,horizontal,horizontal,1,0.823526272773743,red,3,1,848.656293821019,349.685068220846,751.343706178981,850.314931779154,751.343706178981,850.314931779154,1050.31493177915,648.656293821019,848.656293821019,349.685068220846,549.685068220846,551.343706178981,0,0,0,0,6,0,4,0,NaN,NaN,horizontal,horizontal,horizontal,horizontal,none,none
1a,7,100128,2,50,114,19,M,NA,variable,heterogeneous,4,absent,0.804989099502563,1,vertical,vertical,1,0.999994382858276,red,2,NaN,1046.31108570371,534.001143498857,NaN,NaN,865.998856501143,846.311085703712,1046.31108570371,534.001143498857,734.001143498857,353.688914296288,553.688914296288,665.998856501143,0,0,0,0,0,4,5,5,NaN,NaN,vertical,vertical,horizontal,vertical,none,none
1a,7,100128,2,51,115,19,M,NA,variable,heterogeneous,4,absent,1.18528294563293,1,horizontal,horizontal,1,0.999994382858276,red,1,NaN,684.232422566416,827.206663668034,NaN,NaN,684.232422566416,827.206663668034,1027.20666366803,715.767577433584,915.767577433584,372.793336331966,572.793336331966,484.232422566416,0,0,0,0,4,5,3,0,NaN,NaN,horizontal,horizontal,vertical,horizontal,none,none
1a,7,100128,2,52,116,19,M,NA,variable,heterogeneous,5,absent,1.50100588798523,0,horizontal,vertical,1,0.799997191429138,red,1,NaN,927.5,820.836477965032,NaN,NaN,927.5,820.836477965032,1049.42763818712,546.982518841471,826.654758133252,346.39691668109,567.045908301137,496.282156015671,629.371695378491,789.501930496736,0,0,4,6,6,3,3,NaN,horizontal,vertical,vertical,vertical,horizontal,none
1a,7,100128,2,53,117,19,M,NA,variable,heterogeneous,4,present,1.37656497955322,1,horizontal,horizontal,1,0.858819894790649,green,3,1,734.001143498857,353.688914296288,865.998856501143,846.311085703712,865.998856501143,846.311085703712,1046.31108570371,534.001143498857,734.001143498857,353.688914296288,553.688914296288,665.998856501143,0,0,0,0,6,0,4,3,NaN,NaN,vertical,horizontal,horizontal,vertical,none,none
1a,7,100128,2,54,118,19,M,NA,variable,heterogeneous,3,absent,0.829460859298706,1,vertical,vertical,1,0.870584435462952,red,3,NaN,583.747735480111,464.870587620533,NaN,NaN,791.100628340862,854.844660889869,1025.15163617903,480.284751489598,583.747735480111,464.870587620533,0,0,0,0,0,0,6,0,4,NaN,NaN,NaN,horizontal,horizontal,vertical,none,none,none
1a,7,100128,2,55,119,19,M,NA,variable,heterogeneous,4,present,1.15221691131592,1,horizontal,horizontal,1,0.682351784706116,red,2,3,1046.31108570371,534.001143498857,734.001143498857,353.688914296288,865.998856501143,846.311085703712,1046.31108570371,534.001143498857,734.001143498857,353.688914296288,553.688914296288,665.998856501143,0,0,0,0,0,4,6,3,NaN,NaN,horizontal,horizontal,horizontal,vertical,none,none
1a,7,100128,2,56,120,19,M,NA,variable,heterogeneous,4,absent,0.950150966644287,1,horizontal,horizontal,1,0.941171679496765,green,4,NaN,596.34794493794,753.462830903772,NaN,NaN,953.462830903772,803.65205506206,1003.65205506206,446.537169096228,646.537169096228,396.34794493794,596.34794493794,753.462830903772,0,0,0,0,3,0,0,4,NaN,NaN,horizontal,horizontal,vertical,horizontal,none,none
1a,7,100128,2,57,121,19,M,NA,variable,heterogeneous,5,present,0.829684972763062,0,horizontal,vertical,1,0.623529081344604,green,5,2,570.807518193712,711.784642431215,1051.12597701811,644.280285305067,835.489140744817,852.518357529101,1051.12597701811,644.280285305067,919.715248510402,374.848363820974,622.862115532956,416.568350913644,570.807518193712,711.784642431215,0,0,5,5,0,3,4,NaN,vertical,horizontal,horizontal,vertical,horizontal,none
1a,7,100128,2,58,122,19,M,NA,variable,heterogeneous,4,absent,1.02841305732727,1,horizontal,horizontal,1,0.694116325378418,green,2,NaN,1011.40458100154,742.594190385041,NaN,NaN,657.405809614959,811.404581001536,1011.40458100154,742.594190385041,942.594190385041,388.595418998464,588.595418998464,457.40580961496,0,0,0,0,5,4,3,0,NaN,NaN,vertical,horizontal,vertical,horizontal,none,none
1a,7,100128,2,59,123,19,M,NA,variable,heterogeneous,6,present,1.65764713287354,1,vertical,vertical,1,1.02352346420288,red,3,6,1000.94274216971,443.006323791957,599.057257830286,756.993676208043,835.489140744817,852.518357529101,1036.43188291453,695.524681321058,1000.94274216971,443.006323791957,764.510859255183,347.4816424709,563.568117085469,504.475318678942,599.057257830286,756.993676208043,5,6,4,5,0,3,vertical,vertical,vertical,horizontal,horizontal,horizontal
1a,7,100128,2,60,124,19,M,NA,variable,heterogeneous,6,present,NaN,0,horizontal,none,0,0.764703569412231,green,2,1,980.31222920257,780.31222920257,734.001143498857,846.311085703712,734.001143498857,846.311085703712,980.31222920257,780.31222920257,1046.31108570371,534.001143498857,865.998856501143,353.688914296288,619.68777079743,419.68777079743,553.688914296288,665.998856501143,6,4,6,0,5,5,vertical,horizontal,vertical,vertical,horizontal,vertical
1a,7,100128,2,61,125,19,M,NA,variable,heterogeneous,5,present,1.72350406646729,0,horizontal,vertical,1,0.847055354118347,green,2,4,1054.84466088987,608.899371659138,599.057257830286,443.006323791957,870.287525733335,845.121732464271,1054.84466088987,608.899371659138,887.215136548046,360.378381699593,599.057257830286,443.006323791957,588.595418998464,742.594190385041,0,0,5,4,5,3,6,NaN,vertical,horizontal,horizontal,vertical,vertical,none
1a,7,100128,2,62,126,19,M,NA,variable,heterogeneous,4,present,0.809497117996216,0,vertical,horizontal,1,0.976465301513672,green,2,3,1000.94274216971,443.006323791957,643.006323791957,399.057257830286,956.993676208043,800.942742169714,1000.94274216971,443.006323791957,643.006323791957,399.057257830286,599.057257830286,756.993676208043,0,0,0,0,0,4,5,6,NaN,NaN,horizontal,vertical,vertical,horizontal,none,none
1a,7,100128,2,63,127,19,M,NA,variable,heterogeneous,3,absent,1.58510208129883,1,horizontal,horizontal,1,0.764703569412231,red,1,NaN,653.738008730483,808.883771293693,NaN,NaN,653.738008730483,808.883771293693,1054.0296480134,622.224714400653,692.232343256122,368.891514305654,0,0,0,0,0,0,4,5,6,NaN,NaN,NaN,horizontal,vertical,vertical,none,none,none
1a,7,100128,2,64,128,19,M,NA,variable,heterogeneous,6,absent,1.79695796966553,1,vertical,vertical,1,0.6,green,4,NaN,857.362518857686,351.535633479765,NaN,NaN,742.637481142314,848.464366520235,986.495193912888,773.909581815937,1043.85771277057,525.445215295702,857.362518857686,351.535633479765,613.504806087112,426.090418184063,556.142287229426,674.554784704298,0,6,3,4,0,5,horizontal,horizontal,vertical,vertical,horizontal,vertical
1a,7,100128,3,1,129,19,M,NA,variable,heterogeneous,4,present,0.852243900299072,1,horizontal,horizontal,1,1.02352346420288,red,3,4,853.017481158529,350.57236181288,550.57236181288,546.982518841471,746.982518841471,849.42763818712,1049.42763818712,653.017481158529,853.017481158529,350.57236181288,550.57236181288,546.982518841471,0,0,0,0,0,0,4,6,NaN,NaN,horizontal,horizontal,horizontal,vertical,none,none
1a,7,100128,3,2,130,19,M,NA,variable,heterogeneous,3,absent,0.636670112609863,1,vertical,vertical,1,0.764703569412231,green,2,NaN,1034.72873763037,500.363562235235,NaN,NaN,768.923317431687,853.099268668537,1034.72873763037,500.363562235235,596.34794493794,446.537169096228,0,0,0,0,0,0,5,4,0,NaN,NaN,NaN,vertical,vertical,horizontal,none,none,none
1a,7,100128,3,3,131,19,M,NA,variable,heterogeneous,6,present,1.51899313926697,1,horizontal,horizontal,1,0.870584435462952,green,1,2,688.215357568785,829.192481806288,942.594190385041,811.404581001536,688.215357568785,829.192481806288,942.594190385041,811.404581001536,1054.37883281626,582.212099195248,911.784642431215,370.807518193712,657.405809614959,388.595418998464,545.621167183745,617.787900804752,4,5,0,5,3,6,horizontal,vertical,horizontal,horizontal,horizontal,vertical
1a,7,100128,3,4,132,19,M,NA,variable,heterogeneous,4,absent,1.33443903923035,1,vertical,vertical,1,0.623529081344604,green,4,NaN,554.878267535729,529.712474266665,NaN,NaN,729.712474266665,845.121732464271,1045.12173246427,670.287525733335,870.287525733335,354.878267535729,554.878267535729,529.712474266665,0,0,0,0,6,3,5,4,NaN,NaN,horizontal,vertical,horizontal,vertical,none,none
1a,7,100128,3,5,133,19,M,NA,variable,heterogeneous,6,present,1.59023499488831,0,horizontal,vertical,1,1.05881708621979,red,6,4,579.163522034968,727.5,800,345,800,855,1020.83647796503,727.5,1020.83647796503,472.5,800,345,579.163522034968,472.5,579.163522034968,727.5,0,5,3,5,6,4,horizontal,vertical,horizontal,vertical,vertical,horizontal
1a,7,100128,3,6,134,19,M,NA,variable,heterogeneous,6,present,1.38441491127014,1,horizontal,horizontal,1,0.894113516807556,green,4,1,751.343706178981,349.685068220846,848.656293821019,850.314931779154,848.656293821019,850.314931779154,1041.10723677783,683.019879386575,992.450942956807,432.704947607421,751.343706178981,349.685068220846,558.892763222174,516.980120613425,607.549057043193,767.295052392579,5,3,3,4,0,6,horizontal,horizontal,horizontal,horizontal,vertical,horizontal
1a,7,100128,3,7,135,19,M,NA,variable,heterogeneous,6,absent,1.53949594497681,1,vertical,vertical,1,0.776468110084534,red,2,NaN,938.882953928832,813.860994826083,NaN,NaN,684.232422566416,827.206663668034,938.882953928832,813.860994826083,1054.65053136242,586.654331158049,915.767577433584,372.793336331966,661.117046071168,386.139005173917,545.349468637584,613.345668841951,3,4,0,5,6,6,vertical,vertical,vertical,vertical,horizontal,horizontal
1a,7,100128,3,8,136,19,M,NA,variable,heterogeneous,4,absent,1.19354796409607,1,vertical,vertical,1,0.96470076084137,red,4,NaN,586.139005173917,738.882953928832,NaN,NaN,938.882953928832,813.860994826083,1013.86099482608,461.117046071168,661.117046071168,386.139005173917,586.139005173917,738.882953928832,0,0,0,0,6,3,0,4,NaN,NaN,horizontal,vertical,horizontal,vertical,none,none
1a,7,100128,3,9,137,19,M,NA,variable,heterogeneous,3,absent,0.922600030899048,1,horizontal,horizontal,1,0.847055354118347,red,3,NaN,570.807518193712,711.784642431215,NaN,NaN,1011.40458100154,742.594190385041,817.787900804752,345.621167183745,570.807518193712,711.784642431215,0,0,0,0,0,0,3,0,4,NaN,NaN,NaN,vertical,horizontal,horizontal,none,none,none
1a,7,100128,3,10,138,19,M,NA,variable,heterogeneous,3,absent,0.9147047996521,1,horizontal,horizontal,1,0.870584435462952,green,1,NaN,668.665290897936,818.577661679039,NaN,NaN,668.665290897936,818.577661679039,1054.96116226488,604.450363641507,676.373546837184,376.971974679454,0,0,0,0,0,0,4,5,6,NaN,NaN,NaN,horizontal,horizontal,vertical,none,none,none
1a,7,100128,3,11,139,19,M,NA,variable,heterogeneous,3,present,0.719410181045532,1,horizontal,horizontal,1,0.717645406723022,green,2,1,1047.42541020038,538.309916622085,729.712474266665,845.121732464271,729.712474266665,845.121732464271,1047.42541020038,538.309916622085,622.862115532956,416.568350913644,0,0,0,0,0,0,5,4,3,NaN,NaN,NaN,vertical,horizontal,horizontal,none,none,none
1a,7,100128,3,12,140,19,M,NA,variable,heterogeneous,4,present,1.06139206886292,1,vertical,vertical,1,0.976465301513672,green,4,1,563.568117085469,504.475318678942,704.475318678942,836.431882914531,704.475318678942,836.431882914531,1036.43188291453,695.524681321058,895.524681321058,363.568117085469,563.568117085469,504.475318678942,0,0,0,0,5,6,6,4,NaN,NaN,horizontal,horizontal,vertical,vertical,none,none
1a,7,100128,3,13,141,19,M,NA,variable,heterogeneous,3,present,0.882867097854614,1,vertical,vertical,1,1.01175892353058,green,2,1,1045.12173246427,529.712474266665,738.309916622085,847.425410200379,738.309916622085,847.425410200379,1045.12173246427,529.712474266665,616.568350913644,422.862115532956,0,0,0,0,0,0,5,4,5,NaN,NaN,NaN,horizontal,vertical,horizontal,none,none,none
1a,7,100128,3,14,142,19,M,NA,variable,heterogeneous,4,absent,1.0136411190033,1,horizontal,horizontal,1,0.623529081344604,red,4,NaN,596.34794493794,446.537169096228,NaN,NaN,646.537169096228,803.65205506206,1003.65205506206,753.462830903772,953.462830903772,396.34794493794,596.34794493794,446.537169096228,0,0,0,0,5,5,6,4,NaN,NaN,horizontal,horizontal,vertical,horizontal,none,none
1a,7,100128,3,15,143,19,M,NA,variable,heterogeneous,5,absent,1.3440260887146,1,vertical,vertical,1,1.09411070823669,red,5,NaN,545.03883773512,595.549636358493,NaN,NaN,716.980120613425,841.107236777826,1003.65205506206,753.462830903772,1008.88377129369,453.738008730483,725.445215295702,356.142287229426,545.03883773512,595.549636358493,0,0,6,0,5,3,4,NaN,vertical,horizontal,horizontal,horizontal,vertical,none
1a,7,100128,3,16,144,19,M,NA,variable,heterogeneous,3,present,1.34829115867615,1,horizontal,horizontal,1,0.658822703361511,green,3,2,725.445215295702,356.142287229426,1048.46436652023,657.362518857686,626.090418184063,786.495193912888,1048.46436652023,657.362518857686,725.445215295702,356.142287229426,0,0,0,0,0,0,3,0,4,NaN,NaN,NaN,vertical,vertical,horizontal,none,none,none
1a,7,100128,3,17,145,19,M,NA,variable,heterogeneous,3,absent,0.968592166900635,1,vertical,vertical,1,0.658822703361511,red,3,NaN,554.878267535729,670.287525733335,NaN,NaN,983.431649086356,777.137884467044,861.690083377915,352.574589799621,554.878267535729,670.287525733335,0,0,0,0,0,0,6,3,4,NaN,NaN,NaN,horizontal,vertical,vertical,none,none,none
1a,7,100128,3,18,146,19,M,NA,variable,heterogeneous,6,present,1.55853605270386,1,vertical,vertical,1,0.929407138824463,green,2,1,1054.65053136242,613.345668841951,915.767577433584,827.206663668034,915.767577433584,827.206663668034,1054.65053136242,613.345668841951,938.882953928832,386.139005173917,684.232422566416,372.793336331966,545.349468637584,586.654331158049,661.117046071168,813.860994826083,3,4,5,5,6,3,vertical,vertical,horizontal,vertical,horizontal,vertical
1a,7,100128,3,19,147,19,M,NA,variable,heterogeneous,3,present,1.02885818481445,1,horizontal,horizontal,1,0.741174488067627,red,1,3,1020.83647796503,727.5,579.163522034968,727.5,1020.83647796503,727.5,800,345,579.163522034968,727.5,0,0,0,0,0,0,4,3,0,NaN,NaN,NaN,horizontal,horizontal,horizontal,none,none,none
1a,7,100128,3,20,148,19,M,NA,variable,heterogeneous,4,present,0.818971872329712,1,horizontal,horizontal,1,0.870584435462952,green,2,4,1053.09926866854,568.923317431687,546.900731331463,631.076682568313,831.076682568313,853.099268668537,1053.09926866854,568.923317431687,768.923317431687,346.900731331463,546.900731331463,631.076682568313,0,0,0,0,5,4,6,3,NaN,NaN,vertical,horizontal,horizontal,horizontal,none,none
1a,7,100128,3,21,149,19,M,NA,variable,heterogeneous,4,present,0.832156181335449,1,vertical,vertical,1,1.03528800487518,red,2,4,1051.86052685176,639.890788585259,548.13947314824,560.109211414741,760.109211414741,851.86052685176,1051.86052685176,639.890788585259,839.890788585259,348.13947314824,548.13947314824,560.109211414741,0,0,0,0,3,4,3,6,NaN,NaN,vertical,vertical,horizontal,vertical,none,none
1a,7,100128,3,22,150,19,M,NA,variable,heterogeneous,5,present,0.571496963500977,1,vertical,vertical,1,0.929407138824463,green,3,4,1034.72873763037,500.363562235235,777.775285599347,345.970351986605,668.665290897936,818.577661679039,967.295052392579,792.450942956807,1034.72873763037,500.363562235235,777.775285599347,345.970351986605,551.535633479765,542.637481142314,0,0,3,5,4,5,3,NaN,horizontal,horizontal,vertical,vertical,vertical,none
1a,7,100128,3,23,151,19,M,NA,variable,heterogeneous,3,absent,1.00816106796265,1,horizontal,horizontal,1,0.858819894790649,green,2,NaN,938.882953928832,386.139005173917,NaN,NaN,915.767577433584,827.206663668034,938.882953928832,386.139005173917,545.349468637584,586.654331158049,0,0,0,0,0,0,3,4,3,NaN,NaN,NaN,vertical,horizontal,vertical,none,none,none
1a,7,100128,3,24,152,19,M,NA,variable,heterogeneous,5,present,1.52122211456299,1,horizontal,horizontal,1,0.635293622016907,red,3,5,903.717843984329,367.045908301137,579.163522034968,727.5,853.017481158529,849.42763818712,1053.60308331891,626.654758133252,903.717843984329,367.045908301137,610.498069503264,429.371695378491,579.163522034968,727.5,0,0,5,6,4,0,0,NaN,horizontal,vertical,horizontal,horizontal,horizontal,none
1a,7,100128,3,25,153,19,M,NA,variable,heterogeneous,5,absent,1.26793909072876,1,vertical,vertical,1,0.611764540672302,green,5,NaN,619.68777079743,780.31222920257,NaN,NaN,915.767577433584,827.206663668034,1051.86052685176,560.109211414741,839.890788585259,348.13947314824,572.793336331966,484.232422566416,619.68777079743,780.31222920257,0,0,0,5,6,0,4,NaN,horizontal,horizontal,vertical,horizontal,vertical,none
1a,7,100128,3,26,154,19,M,NA,variable,heterogeneous,6,absent,1.67216801643372,0,horizontal,vertical,1,0.917642598152161,red,5,NaN,664.870587620533,383.747735480111,NaN,NaN,680.284751489598,825.151636179026,935.129412379467,816.252264519889,1054.84466088987,591.100628340862,919.715248510402,374.848363820974,664.870587620533,383.747735480111,545.155339110131,608.899371659138,5,0,0,6,4,3,vertical,vertical,vertical,horizontal,horizontal,horizontal
1a,7,100128,3,27,155,19,M,NA,variable,heterogeneous,3,present,1.1855411529541,1,vertical,vertical,1,1.01175892353058,green,2,1,1029.19248180629,711.784642431215,588.595418998464,742.594190385041,588.595418998464,742.594190385041,1029.19248180629,711.784642431215,782.212099195248,345.621167183745,0,0,0,0,0,0,5,4,6,NaN,NaN,NaN,horizontal,vertical,vertical,none,none,none
1a,7,100128,3,28,156,19,M,NA,variable,heterogeneous,4,present,1.72632002830505,1,vertical,vertical,1,0.847055354118347,green,1,3,708.616172865948,838.063008756786,891.383827134052,361.936991243214,708.616172865948,838.063008756786,1038.06300875679,691.383827134052,891.383827134052,361.936991243214,561.936991243214,508.616172865948,0,0,0,0,4,6,0,3,NaN,NaN,vertical,vertical,vertical,horizontal,none,none
1a,7,100128,3,29,157,19,M,NA,variable,heterogeneous,5,present,1.03815698623657,1,vertical,vertical,1,0.847055354118347,green,5,1,565.271262369628,699.636437764765,822.224714400653,854.029648013395,822.224714400653,854.029648013395,1048.46436652023,657.362518857686,931.334709102064,381.422338320961,632.704947607421,407.549057043193,565.271262369628,699.636437764765,0,0,6,5,6,0,4,NaN,vertical,horizontal,vertical,vertical,vertical,none
1a,7,100128,3,30,158,19,M,NA,variable,heterogeneous,4,present,1.04100894927979,1,vertical,vertical,1,0.694116325378418,red,3,1,777.775285599347,345.970351986605,822.224714400653,854.029648013395,822.224714400653,854.029648013395,1054.0296480134,577.775285599347,777.775285599347,345.970351986605,545.970351986605,622.224714400653,0,0,0,0,0,3,4,5,NaN,NaN,horizontal,vertical,vertical,vertical,none,none
1a,7,100128,3,31,159,19,M,NA,variable,heterogeneous,4,absent,0.883869171142578,1,vertical,vertical,1,1.09411070823669,red,3,NaN,919.715248510402,374.848363820974,NaN,NaN,680.284751489598,825.151636179026,1025.15163617903,719.715248510402,919.715248510402,374.848363820974,574.848363820974,480.284751489598,0,0,0,0,6,5,4,0,NaN,NaN,horizontal,horizontal,vertical,vertical,none,none
1a,7,100128,3,32,160,19,M,NA,variable,heterogeneous,4,absent,1.35540199279785,0,horizontal,vertical,1,1.08234616756439,green,2,NaN,989.501930496736,429.371695378491,NaN,NaN,970.628304621509,789.501930496736,989.501930496736,429.371695378491,629.371695378491,410.498069503264,610.498069503264,770.628304621509,0,0,0,0,0,4,3,0,NaN,NaN,horizontal,horizontal,vertical,horizontal,none,none
1a,7,100128,3,33,161,19,M,NA,variable,heterogeneous,4,present,0.926300048828125,1,horizontal,horizontal,1,0.776468110084534,red,3,1,960.476699717708,401.827779828472,639.523300282292,798.172220171528,639.523300282292,798.172220171528,998.172220171528,760.476699717708,960.476699717708,401.827779828472,601.827779828472,439.523300282291,0,0,0,0,0,5,4,0,NaN,NaN,vertical,horizontal,horizontal,horizontal,none,none
1a,7,100128,3,34,162,19,M,NA,variable,heterogeneous,4,present,0.569414138793945,1,horizontal,horizontal,1,0.835290813446045,green,3,2,839.890788585259,348.13947314824,1051.86052685176,639.890788585259,760.109211414741,851.86052685176,1051.86052685176,639.890788585259,839.890788585259,348.13947314824,548.13947314824,560.109211414741,0,0,0,0,0,3,4,6,NaN,NaN,horizontal,horizontal,horizontal,vertical,none,none
1a,7,100128,3,35,163,19,M,NA,variable,heterogeneous,3,present,0.77360200881958,1,vertical,vertical,1,0.611764540672302,red,3,2,738.309916622085,352.574589799621,1045.12173246427,670.287525733335,616.568350913644,777.137884467044,1045.12173246427,670.287525733335,738.309916622085,352.574589799621,0,0,0,0,0,0,6,0,4,NaN,NaN,NaN,vertical,vertical,vertical,none,none,none
1a,7,100128,3,36,164,19,M,NA,variable,heterogeneous,4,absent,1.13572216033936,1,horizontal,horizontal,1,0.941171679496765,green,4,NaN,553.688914296288,665.998856501143,NaN,NaN,865.998856501143,846.311085703712,1046.31108570371,534.001143498857,734.001143498857,353.688914296288,553.688914296288,665.998856501143,0,0,0,0,3,0,0,4,NaN,NaN,horizontal,horizontal,horizontal,horizontal,none,none
1a,7,100128,3,37,165,19,M,NA,variable,heterogeneous,5,present,1.16434001922607,1,horizontal,horizontal,1,0.670587244033813,red,5,1,545.349468637584,586.654331158049,708.616172865948,838.063008756786,708.616172865948,838.063008756786,998.172220171528,760.476699717708,1013.86099482608,461.117046071168,734.001143498857,353.688914296288,545.349468637584,586.654331158049,0,0,5,6,0,3,4,NaN,vertical,horizontal,vertical,vertical,horizontal,none
1a,7,100128,3,38,166,19,M,NA,variable,heterogeneous,6,present,1.54087495803833,1,horizontal,horizontal,1,0.670587244033813,red,2,5,1036.43188291453,695.524681321058,563.568117085469,504.475318678942,835.489140744817,852.518357529101,1036.43188291453,695.524681321058,1000.94274216971,443.006323791957,764.510859255183,347.4816424709,563.568117085469,504.475318678942,599.057257830286,756.993676208043,5,4,3,0,0,5,horizontal,horizontal,horizontal,horizontal,horizontal,vertical
1a,7,100128,3,39,167,19,M,NA,variable,heterogeneous,6,absent,1.58101606369019,1,horizontal,horizontal,1,0.647058162689209,green,6,NaN,560.378381699593,687.215136548046,NaN,NaN,755.719714694933,851.125977018113,995.341332995339,763.910840470068,1039.62161830041,512.784863451954,844.280285305067,348.874022981887,604.658667004661,436.089159529932,560.378381699593,687.215136548046,0,3,0,5,6,4,vertical,vertical,vertical,horizontal,vertical,horizontal
1a,7,100128,3,40,168,19,M,NA,variable,heterogeneous,3,present,0.973345041275024,1,vertical,vertical,1,0.81176173210144,red,3,2,616.568350913644,422.862115532956,1045.12173246427,529.712474266665,738.309916622085,847.425410200379,1045.12173246427,529.712474266665,616.568350913644,422.862115532956,0,0,0,0,0,0,5,3,4,NaN,NaN,NaN,horizontal,vertical,vertical,none,none,none
1a,7,100128,3,41,169,19,M,NA,variable,heterogeneous,6,absent,NaN,0,horizontal,none,0,0.729409947395325,green,2,NaN,956.993676208043,800.942742169714,NaN,NaN,704.475318678942,836.431882914531,956.993676208043,800.942742169714,1052.5183575291,564.510859255183,895.524681321058,363.568117085469,643.006323791957,399.057257830286,547.481642470899,635.489140744817,0,4,3,5,6,0,horizontal,horizontal,horizontal,vertical,horizontal,horizontal
1a,7,100128,3,42,170,19,M,NA,variable,heterogeneous,3,absent,0.787945032119751,1,vertical,vertical,1,0.611764540672302,red,1,NaN,716.980120613425,841.107236777826,NaN,NaN,716.980120613425,841.107236777826,1050.31493177915,551.343706178981,632.704947607421,407.549057043193,0,0,0,0,0,0,4,0,5,NaN,NaN,NaN,vertical,vertical,horizontal,none,none,none
1a,7,100128,3,43,171,19,M,NA,variable,heterogeneous,6,present,1.46682810783386,0,vertical,horizontal,1,0.952936220169067,green,5,4,547.481642470899,564.510859255183,704.475318678942,363.568117085469,895.524681321058,836.431882914531,1052.5183575291,635.489140744817,956.993676208043,399.057257830286,704.475318678942,363.568117085469,547.481642470899,564.510859255183,643.006323791957,800.942742169714,3,6,6,3,4,5,vertical,vertical,horizontal,horizontal,vertical,vertical
1a,7,100128,3,44,172,19,M,NA,variable,heterogeneous,5,present,1.48110008239746,1,vertical,vertical,1,0.835290813446045,red,1,4,946.261991269517,808.883771293693,558.892763222174,516.980120613425,946.261991269517,808.883771293693,1043.85771277057,525.445215295702,804.450363641507,345.03883773512,558.892763222174,516.980120613425,646.537169096228,803.65205506206,0,0,4,6,3,5,3,NaN,vertical,vertical,vertical,vertical,vertical,none
1a,7,100128,3,45,173,19,M,NA,variable,heterogeneous,6,present,0.912802934646606,1,vertical,vertical,1,0.882348976135254,red,6,5,563.568117085469,695.524681321058,599.057257830286,443.006323791957,764.510859255183,852.518357529101,1000.94274216971,756.993676208043,1036.43188291453,504.475318678942,835.489140744817,347.4816424709,599.057257830286,443.006323791957,563.568117085469,695.524681321058,6,3,0,5,0,4,vertical,horizontal,horizontal,horizontal,vertical,vertical
1a,7,100128,3,46,174,19,M,NA,variable,heterogeneous,6,absent,1.4438488483429,1,horizontal,horizontal,1,1.04705254554749,red,2,NaN,953.462830903772,803.65205506206,NaN,NaN,700.363562235235,834.728737630372,953.462830903772,803.65205506206,1053.09926866854,568.923317431687,899.636437764765,365.271262369628,646.537169096228,396.34794493794,546.900731331463,631.076682568313,6,4,6,5,3,0,vertical,horizontal,vertical,vertical,vertical,horizontal
1a,7,100128,3,47,175,19,M,NA,variable,heterogeneous,5,absent,1.15074300765991,1,horizontal,horizontal,1,0.894113516807556,green,2,NaN,949.885239334581,806.299333565612,NaN,NaN,650.114760665419,806.299333565612,949.885239334581,806.299333565612,1042.51941165526,521.200666434388,800,345,557.480588344736,521.200666434388,0,0,5,4,0,6,5,NaN,vertical,horizontal,vertical,horizontal,horizontal,none
1a,7,100128,3,48,176,19,M,NA,variable,heterogeneous,5,present,1.38117384910583,1,horizontal,horizontal,1,0.952936220169067,green,5,3,619.68777079743,780.31222920257,839.890788585259,348.13947314824,915.767577433584,827.206663668034,1051.86052685176,560.109211414741,839.890788585259,348.13947314824,572.793336331966,484.232422566416,619.68777079743,780.31222920257,0,0,6,5,5,6,4,NaN,vertical,vertical,vertical,vertical,horizontal,none
1a,7,100128,3,49,177,19,M,NA,variable,heterogeneous,5,absent,1.93583583831787,1,vertical,vertical,1,0.952936220169067,red,1,NaN,839.890788585259,851.86052685176,NaN,NaN,839.890788585259,851.86052685176,1051.86052685176,639.890788585259,915.767577433584,372.793336331966,619.68777079743,419.68777079743,572.793336331966,715.767577433584,0,0,4,0,3,6,6,NaN,vertical,horizontal,vertical,vertical,horizontal,none
1a,7,100128,3,50,178,19,M,NA,variable,heterogeneous,3,absent,0.957767009735107,1,horizontal,horizontal,1,0.764703569412231,red,1,NaN,895.524681321058,836.431882914531,NaN,NaN,895.524681321058,836.431882914531,956.993676208043,399.057257830286,547.481642470899,564.510859255183,0,0,0,0,0,0,4,5,6,NaN,NaN,NaN,horizontal,vertical,horizontal,none,none,none
1a,7,100128,3,51,179,19,M,NA,variable,heterogeneous,5,absent,0.814382076263428,1,horizontal,horizontal,1,0.858819894790649,red,2,NaN,1039.62161830041,687.215136548046,NaN,NaN,791.100628340862,854.844660889869,1039.62161830041,687.215136548046,956.993676208043,399.057257830286,657.405809614959,388.595418998464,554.878267535729,670.287525733335,0,0,0,4,5,0,5,NaN,horizontal,horizontal,horizontal,horizontal,vertical,none
1a,7,100128,3,52,180,19,M,NA,variable,heterogeneous,5,present,0.814757108688354,1,horizontal,horizontal,1,0.999994382858276,green,4,2,777.775285599347,345.970351986605,967.295052392579,792.450942956807,668.665290897936,818.577661679039,967.295052392579,792.450942956807,1034.72873763037,500.363562235235,777.775285599347,345.970351986605,551.535633479765,542.637481142314,0,0,6,6,5,4,0,NaN,vertical,vertical,horizontal,horizontal,vertical,none
1a,7,100128,3,53,181,19,M,NA,variable,heterogeneous,5,present,0.754727125167847,1,vertical,vertical,1,0.96470076084137,red,3,2,861.690083377915,352.574589799621,1054.37883281626,582.212099195248,895.524681321058,836.431882914531,1054.37883281626,582.212099195248,861.690083377915,352.574589799621,583.747735480111,464.870587620533,604.658667004661,763.910840470068,0,0,5,0,4,3,3,NaN,vertical,horizontal,vertical,vertical,vertical,none
1a,7,100128,3,54,182,19,M,NA,variable,heterogeneous,5,absent,0.909005880355835,1,horizontal,horizontal,1,0.952936220169067,green,1,NaN,895.524681321058,836.431882914531,NaN,NaN,895.524681321058,836.431882914531,1054.37883281626,582.212099195248,861.690083377915,352.574589799621,583.747735480111,464.870587620533,604.658667004661,763.910840470068,0,0,4,6,0,0,5,NaN,horizontal,vertical,vertical,horizontal,horizontal,none
1a,7,100128,3,55,183,19,M,NA,variable,heterogeneous,6,absent,1.29964804649353,1,vertical,vertical,1,0.611764540672302,green,2,NaN,942.594190385041,811.404581001536,NaN,NaN,688.215357568785,829.192481806288,942.594190385041,811.404581001536,1054.37883281626,582.212099195248,911.784642431215,370.807518193712,657.405809614959,388.595418998464,545.621167183745,617.787900804752,5,4,3,6,5,0,horizontal,vertical,horizontal,vertical,vertical,vertical
1a,7,100128,3,56,184,19,M,NA,variable,heterogeneous,6,absent,1.00987505912781,1,vertical,vertical,1,0.999994382858276,green,4,NaN,795.549636358493,345.03883773512,NaN,NaN,804.450363641507,854.96116226488,1023.02802532055,723.626453162816,1018.57766167904,468.665290897936,795.549636358493,345.03883773512,576.971974679454,476.373546837184,581.422338320961,731.334709102064,3,6,5,4,5,0,horizontal,horizontal,horizontal,vertical,horizontal,vertical
1a,7,100128,3,57,185,19,M,NA,variable,heterogeneous,5,absent,0.787129163742065,1,horizontal,horizontal,1,0.858819894790649,red,1,NaN,857.362518857686,848.464366520235,NaN,NaN,857.362518857686,848.464366520235,1054.0296480134,622.224714400653,899.636437764765,365.271262369628,607.549057043193,432.704947607421,581.422338320961,731.334709102064,0,0,4,5,6,5,6,NaN,horizontal,vertical,horizontal,horizontal,horizontal,none
1a,7,100128,3,58,186,19,M,NA,variable,heterogeneous,4,absent,0.678601980209351,1,vertical,vertical,1,0.764703569412231,green,2,NaN,1055,600,NaN,NaN,800,855,1055,600,800,345,545,600,0,0,0,0,0,4,6,3,NaN,NaN,vertical,vertical,horizontal,horizontal,none,none
1a,7,100128,3,59,187,19,M,NA,variable,heterogeneous,6,absent,1.20922994613647,1,vertical,vertical,1,0.835290813446045,red,5,NaN,601.827779828472,439.523300282291,NaN,NaN,760.109211414741,851.86052685176,998.172220171528,760.476699717708,1038.06300875679,508.616172865948,839.890788585259,348.13947314824,601.827779828472,439.523300282291,561.936991243214,691.383827134052,6,3,0,5,4,3,horizontal,vertical,vertical,horizontal,vertical,vertical
1a,7,100128,3,60,188,19,M,NA,variable,heterogeneous,6,present,1.90456700325012,1,vertical,vertical,1,0.764703569412231,red,6,5,583.747735480111,735.129412379467,574.848363820974,480.284751489598,808.899371659138,854.844660889869,1025.15163617903,719.715248510402,1016.25226451989,464.870587620533,791.100628340862,345.155339110131,574.848363820974,480.284751489598,583.747735480111,735.129412379467,0,3,5,6,6,4,horizontal,vertical,vertical,vertical,vertical,vertical
1a,7,100128,3,61,189,19,M,NA,variable,heterogeneous,5,absent,0.992807865142822,1,vertical,vertical,1,0.882348976135254,green,3,NaN,942.594190385041,388.595418998464,NaN,NaN,808.899371659138,854.844660889869,1045.12173246427,670.287525733335,942.594190385041,388.595418998464,643.006323791957,399.057257830286,560.378381699593,687.215136548046,0,0,6,3,4,5,3,NaN,horizontal,horizontal,vertical,vertical,vertical,none
1a,7,100128,3,62,190,19,M,NA,variable,heterogeneous,4,absent,0.862298965454102,1,horizontal,horizontal,1,0.682351784706116,red,4,NaN,604.658667004661,436.089159529932,NaN,NaN,636.089159529932,795.341332995339,995.341332995339,763.910840470068,963.910840470068,404.658667004661,604.658667004661,436.089159529932,0,0,0,0,6,3,6,4,NaN,NaN,vertical,vertical,horizontal,horizontal,none,none
1a,7,100128,3,63,191,19,M,NA,variable,heterogeneous,3,absent,0.76240086555481,1,vertical,vertical,1,0.941171679496765,green,1,NaN,853.017481158529,849.42763818712,NaN,NaN,853.017481158529,849.42763818712,989.501930496736,429.371695378491,557.480588344736,521.200666434388,0,0,0,0,0,0,4,5,0,NaN,NaN,NaN,vertical,vertical,horizontal,none,none,none
1a,7,100128,3,64,192,19,M,NA,variable,heterogeneous,3,present,0.890544176101685,1,horizontal,horizontal,1,0.835290813446045,red,2,3,1050.31493177915,551.343706178981,632.704947607421,407.549057043193,716.980120613425,841.107236777826,1050.31493177915,551.343706178981,632.704947607421,407.549057043193,0,0,0,0,0,0,0,4,3,NaN,NaN,NaN,vertical,horizontal,vertical,none,none,none
1a,7,100128,4,1,193,19,M,NA,variable,heterogeneous,3,absent,0.750407934188843,1,vertical,vertical,1,0.988229842185974,red,1,NaN,963.910840470068,795.341332995339,NaN,NaN,963.910840470068,795.341332995339,887.215136548046,360.378381699593,548.874022981887,644.280285305067,0,0,0,0,0,0,4,5,0,NaN,NaN,NaN,vertical,vertical,vertical,none,none,none
1a,7,100128,4,2,194,19,M,NA,variable,heterogeneous,6,present,0.942178964614868,1,horizontal,horizontal,1,0.847055354118347,red,4,1,870.287525733335,354.878267535729,729.712474266665,845.121732464271,729.712474266665,845.121732464271,977.137884467044,783.431649086356,1047.42541020038,538.309916622085,870.287525733335,354.878267535729,622.862115532956,416.568350913644,552.574589799621,661.690083377915,3,5,0,4,3,0,horizontal,horizontal,horizontal,horizontal,horizontal,horizontal
1a,7,100128,4,3,195,19,M,NA,variable,heterogeneous,6,present,1.89364385604858,1,horizontal,horizontal,1,0.623529081344604,green,4,1,729.712474266665,354.878267535729,870.287525733335,845.121732464271,870.287525733335,845.121732464271,1047.42541020038,661.690083377915,977.137884467044,416.568350913644,729.712474266665,354.878267535729,552.574589799621,538.309916622085,622.862115532956,783.431649086356,6,0,5,4,3,3,horizontal,horizontal,vertical,horizontal,horizontal,horizontal
1a,7,100128,4,4,196,19,M,NA,variable,heterogeneous,5,absent,1.79446792602539,1,vertical,vertical,1,0.929407138824463,green,1,NaN,773.345241866748,853.60308331891,NaN,NaN,773.345241866748,853.60308331891,1032.95409169886,703.717843984329,970.628304621509,410.498069503264,672.5,379.163522034968,550.57236181288,653.017481158529,0,0,4,3,5,5,0,NaN,vertical,vertical,horizontal,vertical,vertical,none
1a,7,100128,4,5,197,19,M,NA,variable,heterogeneous,3,present,1.0529260635376,1,horizontal,horizontal,1,0.717645406723022,green,1,3,616.568350913644,777.137884467044,738.309916622085,352.574589799621,616.568350913644,777.137884467044,1045.12173246427,670.287525733335,738.309916622085,352.574589799621,0,0,0,0,0,0,4,5,6,NaN,NaN,NaN,horizontal,vertical,horizontal,none,none,none
1a,7,100128,4,6,198,19,M,NA,variable,heterogeneous,6,present,1.51123404502869,1,vertical,vertical,1,1.05881708621979,green,6,1,593.700666434388,749.885239334581,826.654758133252,853.60308331891,826.654758133252,853.60308331891,1032.95409169886,703.717843984329,1006.29933356561,450.114760665419,773.345241866748,346.39691668109,567.045908301137,496.282156015671,593.700666434388,749.885239334581,3,3,5,6,5,4,horizontal,horizontal,horizontal,horizontal,horizontal,vertical
1a,7,100128,4,7,199,19,M,NA,variable,heterogeneous,4,absent,0.632800817489624,1,horizontal,horizontal,1,0.752939028739929,red,4,NaN,579.163522034968,727.5,NaN,NaN,927.5,820.836477965032,1020.83647796503,472.5,672.5,379.163522034968,579.163522034968,727.5,0,0,0,0,0,6,5,4,NaN,NaN,horizontal,horizontal,horizontal,horizontal,none,none
1a,7,100128,4,8,200,19,M,NA,variable,heterogeneous,5,absent,1.67186808586121,1,vertical,vertical,1,0.917642598152161,red,1,NaN,684.232422566416,827.206663668034,NaN,NaN,684.232422566416,827.206663668034,980.31222920257,780.31222920257,1027.20666366803,484.232422566416,760.109211414741,348.13947314824,548.13947314824,560.109211414741,0,0,4,0,6,0,6,NaN,vertical,horizontal,vertical,vertical,vertical,none
1a,7,100128,4,9,201,19,M,NA,variable,heterogeneous,5,absent,1.62940120697021,1,horizontal,horizontal,1,0.6,green,5,NaN,646.537169096228,803.65205506206,NaN,NaN,946.261991269517,808.883771293693,1043.85771277057,525.445215295702,804.450363641507,345.03883773512,558.892763222174,516.980120613425,646.537169096228,803.65205506206,0,0,3,0,3,5,4,NaN,vertical,horizontal,vertical,vertical,horizontal,none
1a,7,100128,4,10,202,19,M,NA,variable,heterogeneous,6,present,1.82200312614441,1,horizontal,horizontal,1,0.988229842185974,red,1,6,853.017481158529,849.42763818712,610.498069503264,770.628304621509,853.017481158529,849.42763818712,1042.51941165526,678.799333565612,989.501930496736,429.371695378491,746.982518841471,350.57236181288,557.480588344736,521.200666434388,610.498069503264,770.628304621509,4,0,6,5,3,6,horizontal,vertical,horizontal,horizontal,vertical,vertical
1a,7,100128,4,11,203,19,M,NA,variable,heterogeneous,5,absent,1.63525009155273,1,horizontal,horizontal,1,1.03528800487518,green,4,NaN,626.090418184063,413.504806087112,NaN,NaN,831.076682568313,853.099268668537,1050.31493177915,648.656293821019,923.626453162816,376.971974679454,626.090418184063,413.504806087112,568.891514305654,707.767656743878,0,0,0,6,0,4,3,NaN,horizontal,vertical,vertical,horizontal,horizontal,none
1a,7,100128,4,12,204,19,M,NA,variable,heterogeneous,5,absent,0.954799890518188,1,vertical,vertical,1,0.729409947395325,red,4,NaN,557.480588344736,521.200666434388,NaN,NaN,949.885239334581,806.299333565612,1042.51941165526,521.200666434388,800,345,557.480588344736,521.200666434388,650.114760665419,806.299333565612,0,0,6,5,6,4,5,NaN,horizontal,horizontal,horizontal,vertical,vertical,none
1a,7,100128,4,13,205,19,M,NA,variable,heterogeneous,3,present,1.1921648979187,1,horizontal,horizontal,1,0.894113516807556,red,3,2,661.117046071168,386.139005173917,1054.65053136242,586.654331158049,684.232422566416,827.206663668034,1054.65053136242,586.654331158049,661.117046071168,386.139005173917,0,0,0,0,0,0,3,6,4,NaN,NaN,NaN,horizontal,vertical,horizontal,none,none,none
1a,7,100128,4,14,206,19,M,NA,variable,heterogeneous,4,absent,1.09366202354431,1,horizontal,horizontal,1,0.882348976135254,red,1,NaN,967.295052392579,792.450942956807,NaN,NaN,967.295052392579,792.450942956807,992.450942956807,432.704947607421,632.704947607421,407.549057043193,607.549057043193,767.295052392579,0,0,0,0,4,5,0,6,NaN,NaN,horizontal,vertical,vertical,vertical,none,none
1a,7,100128,4,15,207,19,M,NA,variable,heterogeneous,4,present,1.28977680206299,1,vertical,vertical,1,1.08234616756439,green,1,4,738.309916622085,847.425410200379,552.574589799621,538.309916622085,738.309916622085,847.425410200379,1047.42541020038,661.690083377915,861.690083377915,352.574589799621,552.574589799621,538.309916622085,0,0,0,0,4,0,6,3,NaN,NaN,vertical,horizontal,vertical,vertical,none,none
1a,7,100128,4,16,208,19,M,NA,variable,heterogeneous,3,present,0.683815002441406,1,horizontal,horizontal,1,0.623529081344604,green,2,3,1041.10723677783,516.980120613425,607.549057043193,432.704947607421,751.343706178981,850.314931779154,1041.10723677783,516.980120613425,607.549057043193,432.704947607421,0,0,0,0,0,0,5,4,5,NaN,NaN,NaN,horizontal,horizontal,vertical,none,none,none
1a,7,100128,4,17,209,19,M,NA,variable,heterogeneous,3,absent,1.10854411125183,1,horizontal,horizontal,1,0.929407138824463,green,3,NaN,570.807518193712,711.784642431215,NaN,NaN,1011.40458100154,742.594190385041,817.787900804752,345.621167183745,570.807518193712,711.784642431215,0,0,0,0,0,0,5,3,4,NaN,NaN,NaN,horizontal,horizontal,horizontal,none,none,none
1a,7,100128,4,18,210,19,M,NA,variable,heterogeneous,3,absent,0.857217073440552,1,horizontal,horizontal,1,0.717645406723022,red,3,NaN,632.704947607421,407.549057043193,NaN,NaN,716.980120613425,841.107236777826,1050.31493177915,551.343706178981,632.704947607421,407.549057043193,0,0,0,0,0,0,0,3,4,NaN,NaN,NaN,vertical,vertical,horizontal,none,none,none
1a,7,100128,4,19,211,19,M,NA,variable,heterogeneous,5,absent,1.37095403671265,1,horizontal,horizontal,1,0.835290813446045,red,4,NaN,768.923317431687,346.900731331463,NaN,NaN,676.373546837184,823.028025320546,973.909581815937,786.495193912888,1031.10848569435,492.232343256122,768.923317431687,346.900731331463,549.685068220846,551.343706178981,0,0,5,0,0,4,3,NaN,horizontal,vertical,horizontal,horizontal,horizontal,none
1a,7,100128,4,20,212,19,M,NA,variable,heterogeneous,4,absent,0.704796075820923,1,vertical,vertical,1,0.905878057479858,red,3,NaN,777.775285599347,345.970351986605,NaN,NaN,822.224714400653,854.029648013395,1054.0296480134,577.775285599347,777.775285599347,345.970351986605,545.970351986605,622.224714400653,0,0,0,0,3,5,4,6,NaN,NaN,vertical,vertical,vertical,vertical,none,none
1a,7,100128,4,21,213,19,M,NA,variable,heterogeneous,6,absent,1.34429693222046,0,horizontal,vertical,1,0.658822703361511,green,1,NaN,773.345241866748,853.60308331891,NaN,NaN,773.345241866748,853.60308331891,1006.29933356561,749.885239334581,1032.95409169886,496.282156015671,826.654758133252,346.39691668109,593.700666434388,450.114760665419,567.045908301137,703.717843984329,4,0,5,3,6,6,horizontal,vertical,vertical,horizontal,vertical,horizontal
1a,7,100128,4,22,214,19,M,NA,variable,heterogeneous,6,present,1.23225092887878,1,vertical,vertical,1,1.04705254554749,red,4,1,746.982518841471,350.57236181288,853.017481158529,849.42763818712,853.017481158529,849.42763818712,1042.51941165526,678.799333565612,989.501930496736,429.371695378491,746.982518841471,350.57236181288,557.480588344736,521.200666434388,610.498069503264,770.628304621509,0,5,6,4,3,0,horizontal,horizontal,vertical,vertical,vertical,horizontal
1a,7,100128,4,23,215,19,M,NA,variable,heterogeneous,5,present,1.04179501533508,1,vertical,vertical,1,0.635293622016907,green,1,5,800,855,557.480588344736,678.799333565612,800,855,1042.51941165526,678.799333565612,949.885239334581,393.700666434388,650.114760665419,393.700666434388,557.480588344736,678.799333565612,0,0,4,3,0,5,0,NaN,vertical,horizontal,vertical,horizontal,horizontal,none
1a,7,100128,4,24,216,19,M,NA,variable,heterogeneous,3,absent,0.583924055099487,1,vertical,vertical,1,0.658822703361511,red,3,NaN,643.006323791957,399.057257830286,NaN,NaN,704.475318678942,836.431882914531,1052.5183575291,564.510859255183,643.006323791957,399.057257830286,0,0,0,0,0,0,0,5,4,NaN,NaN,NaN,horizontal,vertical,vertical,none,none,none
1a,7,100128,4,25,217,19,M,NA,variable,heterogeneous,4,absent,1.10115694999695,1,vertical,vertical,1,0.670587244033813,green,2,NaN,1003.65205506206,446.537169096228,NaN,NaN,953.462830903772,803.65205506206,1003.65205506206,446.537169096228,646.537169096228,396.34794493794,596.34794493794,753.462830903772,0,0,0,0,3,4,5,6,NaN,NaN,horizontal,vertical,vertical,horizontal,none,none
1a,7,100128,4,26,218,19,M,NA,variable,heterogeneous,6,absent,1.2332661151886,1,vertical,vertical,1,0.682351784706116,red,3,NaN,1053.60308331891,573.345241866748,NaN,NaN,696.282156015671,832.954091698863,949.885239334581,806.299333565612,1053.60308331891,573.345241866748,903.717843984329,367.045908301137,650.114760665419,393.700666434388,546.39691668109,626.654758133252,5,0,4,3,6,5,vertical,vertical,vertical,vertical,vertical,vertical
1a,7,100128,4,27,219,19,M,NA,variable,heterogeneous,3,absent,0.847616910934448,1,horizontal,horizontal,1,0.894113516807556,green,3,NaN,560.378381699593,512.784863451954,NaN,NaN,844.280285305067,851.125977018113,995.341332995339,436.089159529932,560.378381699593,512.784863451954,0,0,0,0,0,0,3,6,4,NaN,NaN,NaN,horizontal,vertical,horizontal,none,none,none
1a,7,100128,4,28,220,19,M,NA,variable,heterogeneous,6,present,0.91118597984314,1,vertical,vertical,1,0.917642598152161,green,3,2,998.172220171528,439.523300282291,1038.06300875679,691.383827134052,839.890788585259,851.86052685176,1038.06300875679,691.383827134052,998.172220171528,439.523300282291,760.109211414741,348.13947314824,561.936991243214,508.616172865948,601.827779828472,760.476699717708,5,5,4,0,3,6,horizontal,vertical,vertical,vertical,vertical,vertical
1a,7,100128,4,29,221,19,M,NA,variable,heterogeneous,6,absent,1.43018484115601,1,vertical,vertical,1,0.835290813446045,red,2,NaN,1029.19248180629,711.784642431215,NaN,NaN,817.787900804752,854.378832816255,1029.19248180629,711.784642431215,1011.40458100154,457.40580961496,782.212099195248,345.621167183745,570.807518193712,488.215357568785,588.595418998464,742.594190385041,0,4,5,6,0,3,horizontal,vertical,vertical,horizontal,vertical,vertical
1a,7,100128,4,30,222,19,M,NA,variable,heterogeneous,3,present,1.01815891265869,1,vertical,vertical,1,0.752939028739929,red,2,3,1042.51941165526,521.200666434388,610.498069503264,429.371695378491,746.982518841471,849.42763818712,1042.51941165526,521.200666434388,610.498069503264,429.371695378491,0,0,0,0,0,0,5,4,6,NaN,NaN,NaN,horizontal,vertical,horizontal,none,none,none
1a,7,100128,4,31,223,19,M,NA,variable,heterogeneous,3,present,0.66088604927063,1,vertical,vertical,1,0.917642598152161,green,2,3,986.495193912888,426.090418184063,556.142287229426,525.445215295702,857.362518857686,848.464366520235,986.495193912888,426.090418184063,556.142287229426,525.445215295702,0,0,0,0,0,0,0,4,6,NaN,NaN,NaN,vertical,vertical,horizontal,none,none,none
1a,7,100128,4,32,224,19,M,NA,variable,heterogeneous,6,absent,0.869939088821411,1,horizontal,horizontal,1,0.976465301513672,green,4,NaN,688.215357568785,370.807518193712,NaN,NaN,911.784642431215,829.192481806288,1054.37883281626,617.787900804752,942.594190385041,388.595418998464,688.215357568785,370.807518193712,545.621167183745,582.212099195248,657.405809614959,811.404581001536,5,0,3,4,0,6,vertical,vertical,horizontal,horizontal,vertical,horizontal
1a,7,100128,4,33,225,19,M,NA,variable,heterogeneous,6,absent,1.47361183166504,1,horizontal,horizontal,1,0.70588086605072,red,5,NaN,579.163522034968,472.5,NaN,NaN,800,855,1020.83647796503,727.5,1020.83647796503,472.5,800,345,579.163522034968,472.5,579.163522034968,727.5,5,6,3,6,4,0,vertical,horizontal,vertical,horizontal,horizontal,vertical
1a,7,100128,4,34,226,19,M,NA,variable,heterogeneous,5,present,1.19876503944397,1,vertical,vertical,1,0.776468110084534,red,5,4,629.371695378491,789.501930496736,567.045908301137,496.282156015671,927.5,820.836477965032,1049.42763818712,546.982518841471,826.654758133252,346.39691668109,567.045908301137,496.282156015671,629.371695378491,789.501930496736,0,0,0,0,3,6,4,NaN,vertical,vertical,horizontal,vertical,vertical,none
1a,7,100128,4,35,227,19,M,NA,variable,heterogeneous,4,absent,1.1970100402832,1,vertical,vertical,1,1.09411070823669,red,4,NaN,607.549057043193,432.704947607421,NaN,NaN,632.704947607421,792.450942956807,992.450942956807,767.295052392579,967.295052392579,407.549057043193,607.549057043193,432.704947607421,0,0,0,0,5,0,6,4,NaN,NaN,horizontal,horizontal,horizontal,vertical,none,none
1a,7,100128,4,36,228,19,M,NA,variable,heterogeneous,4,absent,1.19296002388,1,horizontal,horizontal,1,1.01175892353058,green,4,NaN,565.271262369628,699.636437764765,NaN,NaN,899.636437764765,834.728737630372,1034.72873763037,500.363562235235,700.363562235235,365.271262369628,565.271262369628,699.636437764765,0,0,0,0,0,3,6,4,NaN,NaN,horizontal,vertical,vertical,horizontal,none,none
1a,7,100128,4,37,229,19,M,NA,variable,heterogeneous,3,present,0.579658985137939,1,vertical,vertical,1,0.917642598152161,green,2,1,1051.86052685176,639.890788585259,639.523300282292,798.172220171528,639.523300282292,798.172220171528,1051.86052685176,639.890788585259,708.616172865948,361.936991243214,0,0,0,0,0,0,6,4,6,NaN,NaN,NaN,vertical,vertical,horizontal,none,none,none
1a,7,100128,4,38,230,19,M,NA,variable,heterogeneous,3,absent,0.770859003067017,1,vertical,vertical,1,0.96470076084137,green,3,NaN,622.862115532956,416.568350913644,NaN,NaN,729.712474266665,845.121732464271,1047.42541020038,538.309916622085,622.862115532956,416.568350913644,0,0,0,0,0,0,5,6,4,NaN,NaN,NaN,vertical,vertical,vertical,none,none,none
1a,7,100128,4,39,231,19,M,NA,variable,heterogeneous,5,present,0.799484014511108,1,horizontal,horizontal,1,0.858819894790649,green,2,3,1041.10723677783,683.019879386575,953.462830903772,396.34794493794,795.549636358493,854.96116226488,1041.10723677783,683.019879386575,953.462830903772,396.34794493794,653.738008730483,391.116228706307,556.142287229426,674.554784704298,0,0,0,4,6,6,5,NaN,horizontal,horizontal,horizontal,horizontal,vertical,none
1a,7,100128,4,40,232,19,M,NA,variable,heterogeneous,5,present,0.99732780456543,1,horizontal,horizontal,1,1.07058162689209,red,3,1,998.172220171528,439.523300282291,734.001143498857,846.311085703712,734.001143498857,846.311085703712,1013.86099482608,738.882953928832,998.172220171528,439.523300282291,708.616172865948,361.936991243214,545.349468637584,613.345668841951,0,0,0,5,4,5,0,NaN,horizontal,vertical,horizontal,vertical,vertical,none
1a,7,100128,4,41,233,19,M,NA,variable,heterogeneous,5,present,1.74923586845398,1,horizontal,horizontal,1,0.999994382858276,red,1,5,725.445215295702,843.857712770574,545.03883773512,604.450363641507,725.445215295702,843.857712770574,1008.88377129369,746.261991269517,1003.65205506206,446.537169096228,716.980120613425,358.892763222174,545.03883773512,604.450363641507,0,0,4,3,3,5,6,NaN,horizontal,vertical,vertical,vertical,horizontal,none
1a,7,100128,4,42,234,19,M,NA,variable,heterogeneous,6,absent,1.19224309921265,1,vertical,vertical,1,1.01175892353058,green,1,NaN,804.450363641507,854.96116226488,NaN,NaN,804.450363641507,854.96116226488,1023.02802532055,723.626453162816,1018.57766167904,468.665290897936,795.549636358493,345.03883773512,576.971974679454,476.373546837184,581.422338320961,731.334709102064,4,6,0,3,0,6,vertical,horizontal,vertical,horizontal,vertical,vertical
1a,7,100128,4,43,235,19,M,NA,variable,heterogeneous,5,present,1.37747693061829,1,vertical,vertical,1,1.04705254554749,green,5,2,636.089159529932,795.341332995339,1047.42541020038,538.309916622085,935.129412379467,816.252264519889,1047.42541020038,538.309916622085,817.787900804752,345.621167183745,563.568117085469,504.475318678942,636.089159529932,795.341332995339,0,0,5,5,0,0,4,NaN,vertical,vertical,horizontal,horizontal,vertical,none
1a,7,100128,4,44,236,19,M,NA,variable,heterogeneous,4,present,0.679097890853882,1,horizontal,horizontal,1,0.894113516807556,green,2,1,1051.12597701811,644.280285305067,755.719714694933,851.125977018113,755.719714694933,851.125977018113,1051.12597701811,644.280285305067,844.280285305067,348.874022981887,548.874022981887,555.719714694933,0,0,0,0,0,4,3,0,NaN,NaN,vertical,horizontal,vertical,vertical,none,none
1a,7,100128,4,45,237,19,M,NA,variable,heterogeneous,5,present,0.936134099960327,1,vertical,vertical,1,0.96470076084137,red,5,4,586.139005173917,738.882953928832,601.827779828472,439.523300282291,865.998856501143,846.311085703712,1054.65053136242,613.345668841951,891.383827134052,361.936991243214,601.827779828472,439.523300282291,586.139005173917,738.882953928832,0,0,6,0,3,6,4,NaN,vertical,vertical,vertical,vertical,vertical,none
1a,7,100128,4,46,238,19,M,NA,variable,heterogeneous,4,present,0.505614995956421,1,vertical,vertical,1,0.929407138824463,green,2,4,1045.12173246427,670.287525733335,554.878267535729,529.712474266665,729.712474266665,845.121732464271,1045.12173246427,670.287525733335,870.287525733335,354.878267535729,554.878267535729,529.712474266665,0,0,0,0,0,4,6,6,NaN,NaN,vertical,vertical,vertical,vertical,none,none
1a,7,100128,4,47,239,19,M,NA,variable,heterogeneous,5,absent,0.644778966903687,1,vertical,vertical,1,0.847055354118347,green,2,NaN,1020.83647796503,727.5,NaN,NaN,746.982518841471,849.42763818712,1020.83647796503,727.5,989.501930496736,429.371695378491,696.282156015671,367.045908301137,546.39691668109,626.654758133252,0,0,0,4,6,5,3,NaN,horizontal,vertical,horizontal,horizontal,horizontal,none
1a,7,100128,4,48,240,19,M,NA,variable,heterogeneous,4,absent,0.863336086273193,1,vertical,vertical,1,0.670587244033813,green,1,NaN,725.445215295702,843.857712770574,NaN,NaN,725.445215295702,843.857712770574,1043.85771277057,674.554784704298,874.554784704298,356.142287229426,556.142287229426,525.445215295702,0,0,0,0,4,6,0,5,NaN,NaN,vertical,vertical,horizontal,vertical,none,none
1a,7,100128,4,49,241,19,M,NA,variable,heterogeneous,3,absent,1.12084698677063,1,vertical,vertical,1,0.6,green,3,NaN,574.848363820974,719.715248510402,NaN,NaN,1016.25226451989,735.129412379467,808.899371659138,345.155339110131,574.848363820974,719.715248510402,0,0,0,0,0,0,5,3,4,NaN,NaN,NaN,horizontal,vertical,vertical,none,none,none
1a,7,100128,4,50,242,19,M,NA,variable,heterogeneous,3,absent,0.675107955932617,1,horizontal,horizontal,1,0.788232650756836,red,2,NaN,1051.12597701811,644.280285305067,NaN,NaN,636.089159529932,795.341332995339,1051.12597701811,644.280285305067,712.784863451954,360.378381699593,0,0,0,0,0,0,5,4,6,NaN,NaN,NaN,horizontal,horizontal,horizontal,none,none,none
1a,7,100128,4,51,243,19,M,NA,variable,heterogeneous,4,present,1.00885081291199,1,horizontal,horizontal,1,0.999994382858276,red,3,1,831.076682568313,346.900731331463,768.923317431687,853.099268668537,768.923317431687,853.099268668537,1053.09926866854,631.076682568313,831.076682568313,346.900731331463,546.900731331463,568.923317431687,0,0,0,0,5,3,4,6,NaN,NaN,horizontal,vertical,horizontal,horizontal,none,none
1a,7,100128,4,52,244,19,M,NA,variable,heterogeneous,6,absent,0.813287973403931,1,horizontal,horizontal,1,0.799997191429138,red,4,NaN,835.489140744817,347.4816424709,NaN,NaN,764.510859255183,852.518357529101,1000.94274216971,756.993676208043,1036.43188291453,504.475318678942,835.489140744817,347.4816424709,599.057257830286,443.006323791957,563.568117085469,695.524681321058,6,0,5,4,3,0,horizontal,vertical,vertical,horizontal,horizontal,vertical
1a,7,100128,4,53,245,19,M,NA,variable,heterogeneous,3,present,0.502696990966797,0,vertical,horizontal,1,0.847055354118347,red,2,1,946.261991269517,391.116228706307,907.767656743878,831.108485694346,907.767656743878,831.108485694346,946.261991269517,391.116228706307,545.970351986605,577.775285599347,0,0,0,0,0,0,3,4,0,NaN,NaN,NaN,horizontal,vertical,vertical,none,none,none
