experiment,subject,uniqueID,block,trial,trial_cumulative,age,gender,color_cond_blocking,color_history,shape_type,set_size,distractor,rt,acc,target_orient,response_key,response_made,iti,target_color,target_item,distractor_item,target_X,target_Y,distractor_X,distractor_Y,item1_X,item1_Y,item2_X,item2_Y,item3_X,item3_Y,item4_X,item4_Y,item5_X,item5_Y,item6_X,item6_Y,item1_shape,item2_shape,item3_shape,item4_shape,item5_shape,item6_shape,item1_line,item2_line,item3_line,item4_line,item5_line,item6_line
1a,8,100141,1,1,1,22,F,NA,variable,heterogeneous,3,present,1.22954607009888,1,vertical,vertical,1,0.788230361938477,red,2,1,1048.46436652023,657.362518857686,626.090418184063,786.495193912888,626.090418184063,786.495193912888,1048.46436652023,657.362518857686,725.445215295702,356.142287229426,0,0,0,0,0,0,3,4,5,NaN,NaN,NaN,horizontal,vertical,horizontal,none,none,none
1a,8,100141,1,2,2,22,F,NA,variable,heterogeneous,5,absent,1.70948195457458,1,horizontal,horizontal,1,0.764701566696167,green,2,NaN,1052.5183575291,635.489140744817,NaN,NaN,844.280285305067,851.125977018113,1052.5183575291,635.489140744817,911.784642431215,370.807518193712,616.568350913644,422.862115532956,574.848363820974,719.715248510402,0,0,5,4,0,3,5,NaN,horizontal,horizontal,vertical,vertical,vertical,none
1a,8,100141,1,3,3,22,F,NA,variable,heterogeneous,3,absent,1.84244298934937,1,horizontal,horizontal,1,0.741172771453857,red,2,NaN,1000.94274216971,443.006323791957,NaN,NaN,835.489140744817,852.518357529101,1000.94274216971,443.006323791957,563.568117085469,504.475318678942,0,0,0,0,0,0,3,4,0,NaN,NaN,NaN,horizontal,horizontal,vertical,none,none,none
1a,8,100141,1,4,4,22,F,NA,variable,heterogeneous,5,present,1.3362021446228,1,horizontal,horizontal,1,0.835287952423096,green,2,5,963.910840470068,795.341332995339,552.574589799621,538.309916622085,664.870587620533,816.252264519889,963.910840470068,795.341332995339,1036.43188291453,504.475318678942,782.212099195248,345.621167183745,552.574589799621,538.309916622085,0,0,6,4,6,5,0,NaN,vertical,horizontal,vertical,horizontal,horizontal,none
1a,8,100141,1,5,5,22,F,NA,variable,heterogeneous,5,present,0.995728015899658,1,vertical,vertical,1,0.823523554801941,red,2,1,949.885239334581,806.299333565612,650.114760665419,806.299333565612,650.114760665419,806.299333565612,949.885239334581,806.299333565612,1042.51941165526,521.200666434388,800,345,557.480588344736,521.200666434388,0,0,5,4,6,0,3,NaN,vertical,vertical,vertical,horizontal,vertical,none
1a,8,100141,1,6,6,22,F,NA,variable,heterogeneous,3,present,1.43379712104797,1,vertical,vertical,1,0.705879578590393,green,2,1,1011.40458100154,457.40580961496,817.787900804752,854.378832816255,817.787900804752,854.378832816255,1011.40458100154,457.40580961496,570.807518193712,488.215357568785,0,0,0,0,0,0,5,4,3,NaN,NaN,NaN,horizontal,vertical,horizontal,none,none,none
1a,8,100141,1,7,7,22,F,NA,variable,heterogeneous,6,present,NaN,0,vertical,none,0,0.811759157180786,red,3,1,998.172220171528,439.523300282291,839.890788585259,851.86052685176,839.890788585259,851.86052685176,1038.06300875679,691.383827134052,998.172220171528,439.523300282291,760.109211414741,348.13947314824,561.936991243214,508.616172865948,601.827779828472,760.476699717708,0,5,4,3,5,6,vertical,horizontal,vertical,vertical,horizontal,vertical
1a,8,100141,1,8,8,22,F,NA,variable,heterogeneous,3,present,1.21631002426147,1,horizontal,horizontal,1,0.858816747665405,green,1,3,899.636437764765,834.728737630372,546.900731331463,568.923317431687,899.636437764765,834.728737630372,953.462830903772,396.34794493794,546.900731331463,568.923317431687,0,0,0,0,0,0,4,5,3,NaN,NaN,NaN,horizontal,horizontal,vertical,none,none,none
1a,8,100141,1,9,9,22,F,NA,variable,heterogeneous,6,absent,1.49211096763611,1,horizontal,horizontal,1,0.964696326255798,red,3,NaN,1036.43188291453,504.475318678942,NaN,NaN,764.510859255183,852.518357529101,1000.94274216971,756.993676208043,1036.43188291453,504.475318678942,835.489140744817,347.4816424709,599.057257830286,443.006323791957,563.568117085469,695.524681321058,0,6,4,3,3,0,vertical,horizontal,horizontal,horizontal,vertical,horizontal
1a,8,100141,1,10,10,22,F,NA,variable,heterogeneous,5,absent,0.866806030273438,1,vertical,vertical,1,0.635293192863464,green,2,NaN,980.31222920257,780.31222920257,NaN,NaN,684.232422566416,827.206663668034,980.31222920257,780.31222920257,1027.20666366803,484.232422566416,760.109211414741,348.13947314824,548.13947314824,560.109211414741,0,0,5,4,5,3,3,NaN,vertical,vertical,horizontal,horizontal,vertical,none
1a,8,100141,1,11,11,22,F,NA,variable,heterogeneous,4,absent,0.982085943222046,1,vertical,vertical,1,1.0941047000885,red,2,NaN,1051.86052685176,560.109211414741,NaN,NaN,839.890788585259,851.86052685176,1051.86052685176,560.109211414741,760.109211414741,348.13947314824,548.13947314824,639.890788585259,0,0,0,0,6,4,0,3,NaN,NaN,horizontal,vertical,horizontal,horizontal,none,none
1a,8,100141,1,12,12,22,F,NA,variable,heterogeneous,4,absent,0.929409027099609,1,horizontal,horizontal,1,0.776465964317322,green,2,NaN,1016.25226451989,735.129412379467,NaN,NaN,664.870587620533,816.252264519889,1016.25226451989,735.129412379467,935.129412379467,383.747735480111,583.747735480111,464.870587620533,0,0,0,0,0,4,6,6,NaN,NaN,vertical,horizontal,horizontal,vertical,none,none
1a,8,100141,1,13,13,22,F,NA,variable,heterogeneous,6,absent,1.64644122123718,1,horizontal,horizontal,1,1.0941047000885,green,4,NaN,822.224714400653,345.970351986605,NaN,NaN,777.775285599347,854.029648013395,1008.88377129369,746.261991269517,1031.10848569435,492.232343256122,822.224714400653,345.970351986605,591.116228706307,453.738008730483,568.891514305654,707.767656743878,5,5,3,4,0,6,horizontal,vertical,horizontal,horizontal,vertical,vertical
1a,8,100141,1,14,14,22,F,NA,variable,heterogeneous,6,present,0.984042882919312,1,vertical,vertical,1,0.635293192863464,green,2,6,1027.20666366803,715.767577433584,586.139005173917,738.882953928832,813.345668841951,854.650531362416,1027.20666366803,715.767577433584,1013.86099482608,461.117046071168,786.654331158049,345.349468637584,572.793336331966,484.232422566416,586.139005173917,738.882953928832,5,4,0,3,6,6,vertical,vertical,vertical,vertical,horizontal,vertical
1a,8,100141,1,15,15,22,F,NA,variable,heterogeneous,3,absent,0.974106073379517,1,vertical,vertical,1,0.717643976211548,green,1,NaN,878.799333565612,842.519411655264,NaN,NaN,878.799333565612,842.519411655264,970.628304621509,410.498069503264,550.57236181288,546.982518841471,0,0,0,0,0,0,4,0,6,NaN,NaN,NaN,vertical,vertical,vertical,none,none,none
1a,8,100141,1,16,16,22,F,NA,variable,heterogeneous,4,absent,0.934425115585327,1,horizontal,horizontal,1,0.823523554801941,red,2,NaN,1053.09926866854,568.923317431687,NaN,NaN,831.076682568313,853.099268668537,1053.09926866854,568.923317431687,768.923317431687,346.900731331463,546.900731331463,631.076682568313,0,0,0,0,0,4,5,3,NaN,NaN,vertical,horizontal,horizontal,vertical,none,none
1a,8,100141,1,17,17,22,F,NA,variable,heterogeneous,5,present,1.74414491653442,1,horizontal,horizontal,1,0.952931928634644,red,5,2,556.142287229426,674.554784704298,1041.10723677783,683.019879386575,795.549636358493,854.96116226488,1041.10723677783,683.019879386575,953.462830903772,396.34794493794,653.738008730483,391.116228706307,556.142287229426,674.554784704298,0,0,3,5,0,6,4,NaN,vertical,vertical,vertical,vertical,horizontal,none
1a,8,100141,1,18,18,22,F,NA,variable,heterogeneous,3,present,0.77812385559082,0,horizontal,vertical,1,0.941167531013489,green,3,2,551.535633479765,542.637481142314,973.909581815937,413.504806087112,874.554784704298,843.857712770574,973.909581815937,413.504806087112,551.535633479765,542.637481142314,0,0,0,0,0,0,0,5,4,NaN,NaN,NaN,horizontal,vertical,horizontal,none,none,none
1a,8,100141,1,19,19,22,F,NA,variable,heterogeneous,3,present,0.90139102935791,1,horizontal,horizontal,1,0.976460723876953,red,3,2,546.900731331463,631.076682568313,899.636437764765,365.271262369628,953.462830903772,803.65205506206,899.636437764765,365.271262369628,546.900731331463,631.076682568313,0,0,0,0,0,0,0,0,4,NaN,NaN,NaN,horizontal,vertical,horizontal,none,none,none
1a,8,100141,1,20,20,22,F,NA,variable,heterogeneous,6,absent,1.24707388877869,1,horizontal,horizontal,1,0.764701566696167,green,4,NaN,808.899371659138,345.155339110131,NaN,NaN,791.100628340862,854.844660889869,1016.25226451989,735.129412379467,1025.15163617903,480.284751489598,808.899371659138,345.155339110131,583.747735480111,464.870587620533,574.848363820974,719.715248510402,5,0,6,4,3,3,horizontal,horizontal,horizontal,horizontal,horizontal,vertical
1a,8,100141,1,21,21,22,F,NA,variable,heterogeneous,4,present,1.42205595970154,1,horizontal,horizontal,1,0.694115180969238,green,2,4,1032.95409169886,703.717843984329,567.045908301137,496.282156015671,696.282156015671,832.954091698863,1032.95409169886,703.717843984329,903.717843984329,367.045908301137,567.045908301137,496.282156015671,0,0,0,0,3,4,6,5,NaN,NaN,horizontal,horizontal,vertical,vertical,none,none
1a,8,100141,1,22,22,22,F,NA,variable,heterogeneous,5,absent,1.45005798339844,1,vertical,vertical,1,0.788230361938477,red,1,NaN,800,855,NaN,NaN,800,855,1042.51941165526,678.799333565612,949.885239334581,393.700666434388,650.114760665419,393.700666434388,557.480588344736,678.799333565612,0,0,4,6,3,0,0,NaN,vertical,vertical,horizontal,horizontal,horizontal,none
1a,8,100141,1,23,23,22,F,NA,variable,heterogeneous,5,present,1.51613903045654,1,horizontal,horizontal,1,1.03528271198273,green,3,4,870.287525733335,354.878267535729,588.595418998464,457.40580961496,887.215136548046,839.621618300407,1054.84466088987,591.100628340862,870.287525733335,354.878267535729,588.595418998464,457.40580961496,599.057257830286,756.993676208043,0,0,3,5,4,0,3,NaN,vertical,horizontal,horizontal,vertical,horizontal,none
1a,8,100141,1,24,24,22,F,NA,variable,heterogeneous,4,present,1.38909697532654,1,horizontal,horizontal,1,0.917638735771179,red,2,4,983.431649086356,422.862115532956,616.568350913644,777.137884467044,977.137884467044,783.431649086356,983.431649086356,422.862115532956,622.862115532956,416.568350913644,616.568350913644,777.137884467044,0,0,0,0,6,4,3,0,NaN,NaN,vertical,horizontal,vertical,vertical,none,none
1a,8,100141,1,25,25,22,F,NA,variable,heterogeneous,6,absent,0.875073194503784,1,vertical,vertical,1,0.905874338150024,red,3,NaN,1013.86099482608,461.117046071168,NaN,NaN,813.345668841951,854.650531362416,1027.20666366803,715.767577433584,1013.86099482608,461.117046071168,786.654331158049,345.349468637584,572.793336331966,484.232422566416,586.139005173917,738.882953928832,5,0,4,5,6,3,horizontal,vertical,vertical,horizontal,horizontal,horizontal
1a,8,100141,1,26,26,22,F,NA,variable,heterogeneous,6,absent,0.882632970809937,1,horizontal,horizontal,1,1.0941047000885,red,3,NaN,983.431649086356,422.862115532956,NaN,NaN,861.690083377915,847.425410200379,1045.12173246427,670.287525733335,983.431649086356,422.862115532956,738.309916622085,352.574589799621,554.878267535729,529.712474266665,616.568350913644,777.137884467044,3,6,4,3,0,5,horizontal,horizontal,horizontal,horizontal,vertical,horizontal
1a,8,100141,1,27,27,22,F,NA,variable,heterogeneous,6,absent,1.50872898101807,1,vertical,vertical,1,0.799994759559631,green,1,NaN,688.215357568785,829.192481806288,NaN,NaN,688.215357568785,829.192481806288,942.594190385041,811.404581001536,1054.37883281626,582.212099195248,911.784642431215,370.807518193712,657.405809614959,388.595418998464,545.621167183745,617.787900804752,4,6,0,3,3,6,vertical,vertical,horizontal,horizontal,vertical,vertical
1a,8,100141,1,28,28,22,F,NA,variable,heterogeneous,3,absent,1.95185780525208,1,vertical,vertical,1,0.823523554801941,red,1,NaN,760.109211414741,851.86052685176,NaN,NaN,760.109211414741,851.86052685176,1038.06300875679,508.616172865948,601.827779828472,439.523300282291,0,0,0,0,0,0,4,6,3,NaN,NaN,NaN,vertical,vertical,horizontal,none,none,none
1a,8,100141,1,29,29,22,F,NA,variable,heterogeneous,4,absent,1.28713798522949,1,vertical,vertical,1,0.811759157180786,green,3,NaN,692.232343256122,368.891514305654,NaN,NaN,907.767656743878,831.108485694346,1031.10848569435,492.232343256122,692.232343256122,368.891514305654,568.891514305654,707.767656743878,0,0,0,0,3,6,4,3,NaN,NaN,horizontal,vertical,vertical,horizontal,none,none
1a,8,100141,1,30,30,22,F,NA,variable,heterogeneous,3,absent,0.827456951141357,1,vertical,vertical,1,0.717643976211548,red,1,NaN,848.656293821019,850.314931779154,NaN,NaN,848.656293821019,850.314931779154,992.450942956807,432.704947607421,558.892763222174,516.980120613425,0,0,0,0,0,0,4,6,6,NaN,NaN,NaN,vertical,horizontal,horizontal,none,none,none
1a,8,100141,1,31,31,22,F,NA,variable,heterogeneous,4,present,0.754994869232178,1,vertical,vertical,1,0.741172771453857,red,2,1,1049.42763818712,653.017481158529,746.982518841471,849.42763818712,746.982518841471,849.42763818712,1049.42763818712,653.017481158529,853.017481158529,350.57236181288,550.57236181288,546.982518841471,0,0,0,0,3,4,3,6,NaN,NaN,vertical,vertical,horizontal,vertical,none,none
1a,8,100141,1,32,32,22,F,NA,variable,heterogeneous,3,present,0.917876005172729,1,vertical,vertical,1,0.976460723876953,red,3,1,546.900731331463,631.076682568313,953.462830903772,803.65205506206,953.462830903772,803.65205506206,899.636437764765,365.271262369628,546.900731331463,631.076682568313,0,0,0,0,0,0,0,5,4,NaN,NaN,NaN,horizontal,vertical,vertical,none,none,none
1a,8,100141,1,33,33,22,F,NA,variable,heterogeneous,5,absent,0.859085083007812,1,horizontal,horizontal,1,0.729408373832703,red,5,NaN,554.878267535729,529.712474266665,NaN,NaN,657.405809614959,811.404581001536,956.993676208043,800.942742169714,1039.62161830041,512.784863451954,791.100628340862,345.155339110131,554.878267535729,529.712474266665,0,0,6,5,0,3,4,NaN,vertical,vertical,vertical,vertical,horizontal,none
1a,8,100141,1,34,34,22,F,NA,variable,heterogeneous,5,absent,1.13013887405396,1,vertical,vertical,1,0.682350783348084,green,2,NaN,1049.42763818712,653.017481158529,NaN,NaN,826.654758133252,853.60308331891,1049.42763818712,653.017481158529,927.5,379.163522034968,629.371695378491,410.498069503264,567.045908301137,703.717843984329,0,0,3,4,6,0,3,NaN,vertical,vertical,vertical,horizontal,horizontal,none
1a,8,100141,1,35,35,22,F,NA,variable,heterogeneous,5,present,1.41631507873535,1,horizontal,horizontal,1,0.764701566696167,red,2,5,1048.46436652023,542.637481142314,632.704947607421,792.450942956807,931.334709102064,818.577661679039,1048.46436652023,542.637481142314,822.224714400653,345.970351986605,565.271262369628,500.363562235235,632.704947607421,792.450942956807,0,0,6,4,5,0,6,NaN,vertical,horizontal,horizontal,vertical,vertical,none
1a,8,100141,1,36,36,22,F,NA,variable,heterogeneous,6,present,1.92550802230835,1,horizontal,horizontal,1,0.835287952423096,red,6,2,567.045908301137,703.717843984329,1006.29933356561,749.885239334581,773.345241866748,853.60308331891,1006.29933356561,749.885239334581,1032.95409169886,496.282156015671,826.654758133252,346.39691668109,593.700666434388,450.114760665419,567.045908301137,703.717843984329,6,0,5,3,3,4,horizontal,horizontal,vertical,horizontal,vertical,horizontal
1a,8,100141,1,37,37,22,F,NA,variable,heterogeneous,6,absent,1.66896390914917,1,vertical,vertical,1,1.04704710960388,red,6,NaN,639.523300282292,798.172220171528,NaN,NaN,891.383827134052,838.063008756786,1051.86052685176,639.890788585259,960.476699717708,401.827779828472,708.616172865948,361.936991243214,548.13947314824,560.109211414741,639.523300282292,798.172220171528,6,5,3,5,6,4,vertical,vertical,vertical,horizontal,vertical,vertical
1a,8,100141,1,38,38,22,F,NA,variable,heterogeneous,6,present,0.779659032821655,1,vertical,vertical,1,0.658821988105774,red,4,5,844.280285305067,348.874022981887,604.658667004661,436.089159529932,755.719714694933,851.125977018113,995.341332995339,763.910840470068,1039.62161830041,512.784863451954,844.280285305067,348.874022981887,604.658667004661,436.089159529932,560.378381699593,687.215136548046,3,0,5,4,6,0,vertical,horizontal,horizontal,vertical,vertical,vertical
1a,8,100141,1,39,39,22,F,NA,variable,heterogeneous,4,present,0.787292003631592,1,vertical,vertical,1,0.788230361938477,red,4,3,574.848363820974,480.284751489598,919.715248510402,374.848363820974,680.284751489598,825.151636179026,1025.15163617903,719.715248510402,919.715248510402,374.848363820974,574.848363820974,480.284751489598,0,0,0,0,3,0,5,4,NaN,NaN,vertical,horizontal,vertical,vertical,none,none
1a,8,100141,1,40,40,22,F,NA,variable,heterogeneous,6,present,NaN,0,horizontal,none,0,0.788230361938477,green,2,3,963.910840470068,795.341332995339,1051.12597701811,555.719714694933,712.784863451954,839.621618300407,963.910840470068,795.341332995339,1051.12597701811,555.719714694933,887.215136548046,360.378381699593,636.089159529932,404.658667004661,548.874022981887,644.280285305067,5,4,3,6,5,0,vertical,horizontal,horizontal,vertical,horizontal,vertical
1a,8,100141,1,41,41,22,F,NA,variable,heterogeneous,4,present,1.01838493347168,1,vertical,vertical,1,0.952931928634644,green,3,2,813.345668841951,345.349468637584,1054.65053136242,613.345668841951,786.654331158049,854.650531362416,1054.65053136242,613.345668841951,813.345668841951,345.349468637584,545.349468637584,586.654331158049,0,0,0,0,5,3,4,3,NaN,NaN,vertical,vertical,vertical,horizontal,none,none
1a,8,100141,1,42,42,22,F,NA,variable,heterogeneous,4,absent,0.961041927337646,1,horizontal,horizontal,1,0.905874338150024,red,3,NaN,661.117046071168,386.139005173917,NaN,NaN,938.882953928832,813.860994826083,1013.86099482608,461.117046071168,661.117046071168,386.139005173917,586.139005173917,738.882953928832,0,0,0,0,6,6,4,3,NaN,NaN,vertical,vertical,horizontal,horizontal,none,none
1a,8,100141,1,43,43,22,F,NA,variable,heterogeneous,3,present,0.765651941299438,1,vertical,vertical,1,1.07057590484619,green,3,1,551.535633479765,657.362518857686,973.909581815937,786.495193912888,973.909581815937,786.495193912888,874.554784704298,356.142287229426,551.535633479765,657.362518857686,0,0,0,0,0,0,5,0,4,NaN,NaN,NaN,vertical,vertical,vertical,none,none,none
1a,8,100141,1,44,44,22,F,NA,variable,heterogeneous,5,absent,1.16818189620972,1,vertical,vertical,1,0.741172771453857,red,5,NaN,629.371695378491,789.501930496736,NaN,NaN,927.5,820.836477965032,1049.42763818712,546.982518841471,826.654758133252,346.39691668109,567.045908301137,496.282156015671,629.371695378491,789.501930496736,0,0,3,0,5,6,4,NaN,horizontal,vertical,horizontal,horizontal,vertical,none
1a,8,100141,1,45,45,22,F,NA,variable,heterogeneous,4,absent,0.744102954864502,1,vertical,vertical,1,1.02351831436157,red,1,NaN,800,855,NaN,NaN,800,855,1055,600,800,345,545,600,0,0,0,0,4,0,6,3,NaN,NaN,vertical,horizontal,vertical,horizontal,none,none
1a,8,100141,1,46,46,22,F,NA,variable,heterogeneous,6,present,0.988960981369019,1,vertical,vertical,1,0.682350783348084,green,4,1,680.284751489598,374.848363820974,919.715248510402,825.151636179026,919.715248510402,825.151636179026,1054.84466088987,608.899371659138,935.129412379467,383.747735480111,680.284751489598,374.848363820974,545.155339110131,591.100628340862,664.870587620533,816.252264519889,5,0,3,4,6,6,vertical,vertical,horizontal,vertical,vertical,horizontal
1a,8,100141,1,47,47,22,F,NA,variable,heterogeneous,5,absent,1.44114708900452,1,horizontal,horizontal,1,0.611764397621155,red,5,NaN,567.045908301137,703.717843984329,NaN,NaN,826.654758133252,853.60308331891,1049.42763818712,653.017481158529,927.5,379.163522034968,629.371695378491,410.498069503264,567.045908301137,703.717843984329,0,0,6,6,5,3,4,NaN,vertical,horizontal,horizontal,vertical,horizontal,none
1a,8,100141,1,48,48,22,F,NA,variable,heterogeneous,4,absent,0.780529975891113,1,vertical,vertical,1,0.717643976211548,green,4,NaN,561.936991243214,691.383827134052,NaN,NaN,891.383827134052,838.063008756786,1038.06300875679,508.616172865948,708.616172865948,361.936991243214,561.936991243214,691.383827134052,0,0,0,0,5,0,5,4,NaN,NaN,horizontal,horizontal,vertical,vertical,none,none
1a,8,100141,1,49,49,22,F,NA,variable,heterogeneous,5,present,1.05536413192749,1,vertical,vertical,1,0.952931928634644,red,1,5,712.784863451954,839.621618300407,545.155339110131,591.100628340862,712.784863451954,839.621618300407,1000.94274216971,756.993676208043,1011.40458100154,457.40580961496,729.712474266665,354.878267535729,545.155339110131,591.100628340862,0,0,4,5,3,6,0,NaN,vertical,vertical,horizontal,horizontal,vertical,none
1a,8,100141,1,50,50,22,F,NA,variable,heterogeneous,5,present,0.749052047729492,1,vertical,vertical,1,1.02351831436157,green,1,4,773.345241866748,853.60308331891,672.5,379.163522034968,773.345241866748,853.60308331891,1032.95409169886,703.717843984329,970.628304621509,410.498069503264,672.5,379.163522034968,550.57236181288,653.017481158529,0,0,4,0,5,0,6,NaN,vertical,horizontal,vertical,horizontal,horizontal,none
1a,8,100141,1,51,51,22,F,NA,variable,heterogeneous,3,absent,0.811205148696899,1,horizontal,horizontal,1,0.752937169075012,green,3,NaN,570.807518193712,488.215357568785,NaN,NaN,817.787900804752,854.378832816255,1011.40458100154,457.40580961496,570.807518193712,488.215357568785,0,0,0,0,0,0,3,6,4,NaN,NaN,NaN,horizontal,horizontal,horizontal,none,none,none
1a,8,100141,1,52,52,22,F,NA,variable,heterogeneous,3,absent,1.39996004104614,1,horizontal,horizontal,1,0.811759157180786,red,2,NaN,1054.96116226488,604.450363641507,NaN,NaN,668.665290897936,818.577661679039,1054.96116226488,604.450363641507,676.373546837184,376.971974679454,0,0,0,0,0,0,6,4,3,NaN,NaN,NaN,horizontal,horizontal,vertical,none,none,none
1a,8,100141,1,53,53,22,F,NA,variable,heterogeneous,3,absent,1.74961996078491,0,horizontal,vertical,1,1.07057590484619,green,1,NaN,980.31222920257,780.31222920257,NaN,NaN,980.31222920257,780.31222920257,865.998856501143,353.688914296288,553.688914296288,665.998856501143,0,0,0,0,0,0,4,5,0,NaN,NaN,NaN,horizontal,horizontal,vertical,none,none,none
1a,8,100141,1,54,54,22,F,NA,variable,heterogeneous,4,present,1.02260398864746,1,horizontal,horizontal,1,0.89410994052887,green,1,4,734.001143498857,846.311085703712,553.688914296288,534.001143498857,734.001143498857,846.311085703712,1046.31108570371,665.998856501143,865.998856501143,353.688914296288,553.688914296288,534.001143498857,0,0,0,0,4,6,0,3,NaN,NaN,horizontal,vertical,horizontal,vertical,none,none
1a,8,100141,1,55,55,22,F,NA,variable,heterogeneous,3,present,1.11297607421875,1,horizontal,horizontal,1,1.08234030246735,red,3,1,712.784863451954,360.378381699593,636.089159529932,795.341332995339,636.089159529932,795.341332995339,1051.12597701811,644.280285305067,712.784863451954,360.378381699593,0,0,0,0,0,0,0,6,4,NaN,NaN,NaN,vertical,horizontal,horizontal,none,none,none
1a,8,100141,1,56,56,22,F,NA,variable,heterogeneous,6,present,1.58835697174072,1,horizontal,horizontal,1,0.647057590484619,green,2,4,960.476699717708,798.172220171528,891.383827134052,361.936991243214,708.616172865948,838.063008756786,960.476699717708,798.172220171528,1051.86052685176,560.109211414741,891.383827134052,361.936991243214,639.523300282292,401.827779828472,548.13947314824,639.890788585259,0,4,5,6,6,5,horizontal,horizontal,vertical,vertical,horizontal,vertical
1a,8,100141,1,57,57,22,F,NA,variable,heterogeneous,5,absent,0.771840810775757,1,horizontal,horizontal,1,0.976460723876953,green,1,NaN,680.284751489598,825.151636179026,NaN,NaN,680.284751489598,825.151636179026,977.137884467044,783.431649086356,1029.19248180629,488.215357568785,764.510859255183,347.4816424709,548.874022981887,555.719714694933,0,0,4,6,0,3,3,NaN,horizontal,horizontal,vertical,vertical,horizontal,none
1a,8,100141,1,58,58,22,F,NA,variable,heterogeneous,6,present,1.09945011138916,1,horizontal,horizontal,1,0.799994759559631,red,4,6,760.109211414741,348.13947314824,601.827779828472,760.476699717708,839.890788585259,851.86052685176,1038.06300875679,691.383827134052,998.172220171528,439.523300282291,760.109211414741,348.13947314824,561.936991243214,508.616172865948,601.827779828472,760.476699717708,6,6,0,4,0,5,horizontal,vertical,vertical,horizontal,horizontal,vertical
1a,8,100141,1,59,59,22,F,NA,variable,heterogeneous,6,absent,1.48768210411072,1,vertical,vertical,1,0.905874338150024,green,2,NaN,1055,600,NaN,NaN,927.5,820.836477965032,1055,600,927.5,379.163522034968,672.5,379.163522034968,545,600,672.5,820.836477965032,0,4,0,5,3,6,horizontal,vertical,vertical,vertical,horizontal,horizontal
1a,8,100141,1,60,60,22,F,NA,variable,heterogeneous,4,absent,0.891220092773438,1,horizontal,horizontal,1,1.07057590484619,green,3,NaN,953.462830903772,396.34794493794,NaN,NaN,646.537169096228,803.65205506206,1003.65205506206,753.462830903772,953.462830903772,396.34794493794,596.34794493794,446.537169096228,0,0,0,0,6,5,4,0,NaN,NaN,vertical,horizontal,horizontal,horizontal,none,none
1a,8,100141,1,61,61,22,F,NA,variable,heterogeneous,4,present,1.17212390899658,1,vertical,vertical,1,0.952931928634644,green,1,4,835.489140744817,852.518357529101,547.481642470899,635.489140744817,835.489140744817,852.518357529101,1052.5183575291,564.510859255183,764.510859255183,347.4816424709,547.481642470899,635.489140744817,0,0,0,0,4,3,6,0,NaN,NaN,vertical,vertical,vertical,vertical,none,none
1a,8,100141,1,62,62,22,F,NA,variable,heterogeneous,5,present,0.821463823318481,1,vertical,vertical,1,1.0941047000885,green,2,5,1048.46436652023,542.637481142314,632.704947607421,792.450942956807,931.334709102064,818.577661679039,1048.46436652023,542.637481142314,822.224714400653,345.970351986605,565.271262369628,500.363562235235,632.704947607421,792.450942956807,0,0,6,4,3,5,0,NaN,horizontal,vertical,vertical,horizontal,vertical,none
1a,8,100141,1,63,63,22,F,NA,variable,heterogeneous,3,absent,1.35900497436523,1,vertical,vertical,1,0.847052350044251,green,1,NaN,629.371695378491,789.501930496736,NaN,NaN,629.371695378491,789.501930496736,1049.42763818712,653.017481158529,721.200666434388,357.480588344736,0,0,0,0,0,0,4,3,3,NaN,NaN,NaN,vertical,horizontal,horizontal,none,none,none
1a,8,100141,1,64,64,22,F,NA,variable,heterogeneous,4,present,1.51487183570862,1,horizontal,horizontal,1,0.847052350044251,red,4,1,596.34794493794,446.537169096228,646.537169096228,803.65205506206,646.537169096228,803.65205506206,1003.65205506206,753.462830903772,953.462830903772,396.34794493794,596.34794493794,446.537169096228,0,0,0,0,5,0,3,4,NaN,NaN,vertical,horizontal,horizontal,horizontal,none,none
1a,8,100141,2,1,65,22,F,NA,variable,heterogeneous,3,absent,0.768877983093262,1,horizontal,horizontal,1,0.905874338150024,red,1,NaN,1011.40458100154,742.594190385041,NaN,NaN,1011.40458100154,742.594190385041,817.787900804752,345.621167183745,570.807518193712,711.784642431215,0,0,0,0,0,0,4,3,0,NaN,NaN,NaN,horizontal,horizontal,vertical,none,none,none
1a,8,100141,2,2,66,22,F,NA,variable,heterogeneous,4,present,0.685340166091919,1,vertical,vertical,1,0.635293192863464,red,2,1,986.495193912888,426.090418184063,973.909581815937,786.495193912888,973.909581815937,786.495193912888,986.495193912888,426.090418184063,626.090418184063,413.504806087112,613.504806087112,773.909581815937,0,0,0,0,0,4,6,3,NaN,NaN,vertical,vertical,vertical,vertical,none,none
1a,8,100141,2,3,67,22,F,NA,variable,heterogeneous,4,present,0.679639101028442,1,vertical,vertical,1,0.62352879524231,red,3,4,725.445215295702,356.142287229426,556.142287229426,674.554784704298,874.554784704298,843.857712770574,1043.85771277057,525.445215295702,725.445215295702,356.142287229426,556.142287229426,674.554784704298,0,0,0,0,3,0,4,5,NaN,NaN,vertical,horizontal,vertical,horizontal,none,none
1a,8,100141,2,4,68,22,F,NA,variable,heterogeneous,5,absent,0.819377183914185,1,vertical,vertical,1,0.905874338150024,green,1,NaN,738.309916622085,847.425410200379,NaN,NaN,738.309916622085,847.425410200379,1016.25226451989,735.129412379467,995.341332995339,436.089159529932,704.475318678942,363.568117085469,545.621167183745,617.787900804752,0,0,4,6,3,5,3,NaN,vertical,vertical,vertical,vertical,vertical,none
1a,8,100141,2,5,69,22,F,NA,variable,heterogeneous,3,present,0.696413993835449,1,vertical,vertical,1,0.611764397621155,red,1,2,861.690083377915,847.425410200379,983.431649086356,422.862115532956,861.690083377915,847.425410200379,983.431649086356,422.862115532956,554.878267535729,529.712474266665,0,0,0,0,0,0,4,3,6,NaN,NaN,NaN,vertical,horizontal,horizontal,none,none,none
1a,8,100141,2,6,70,22,F,NA,variable,heterogeneous,4,present,1.17562818527222,1,horizontal,horizontal,1,0.670586385726929,green,1,2,844.280285305067,851.125977018113,1051.12597701811,555.719714694933,844.280285305067,851.125977018113,1051.12597701811,555.719714694933,755.719714694933,348.874022981887,548.874022981887,644.280285305067,0,0,0,0,4,0,3,6,NaN,NaN,horizontal,horizontal,vertical,vertical,none,none
1a,8,100141,2,7,71,22,F,NA,variable,heterogeneous,3,present,0.79938793182373,1,horizontal,horizontal,1,1.01175391674042,green,2,1,1045.12173246427,529.712474266665,738.309916622085,847.425410200379,738.309916622085,847.425410200379,1045.12173246427,529.712474266665,616.568350913644,422.862115532956,0,0,0,0,0,0,5,4,0,NaN,NaN,NaN,vertical,horizontal,horizontal,none,none,none
1a,8,100141,2,8,72,22,F,NA,variable,heterogeneous,5,present,1.67216396331787,1,horizontal,horizontal,1,0.811759157180786,red,2,3,1046.31108570371,534.001143498857,813.345668841951,345.349468637584,938.882953928832,813.860994826083,1046.31108570371,534.001143498857,813.345668841951,345.349468637584,561.936991243214,508.616172865948,639.523300282292,798.172220171528,0,0,3,4,6,0,6,NaN,vertical,horizontal,vertical,vertical,horizontal,none
1a,8,100141,2,9,73,22,F,NA,variable,heterogeneous,3,absent,1.03549194335938,1,horizontal,horizontal,1,1.08234030246735,green,1,NaN,632.704947607421,792.450942956807,NaN,NaN,632.704947607421,792.450942956807,1050.31493177915,648.656293821019,716.980120613425,358.892763222174,0,0,0,0,0,0,4,6,0,NaN,NaN,NaN,horizontal,horizontal,horizontal,none,none,none
1a,8,100141,2,10,74,22,F,NA,variable,heterogeneous,4,absent,0.57610011100769,1,vertical,vertical,1,0.788230361938477,red,3,NaN,700.363562235235,365.271262369628,NaN,NaN,899.636437764765,834.728737630372,1034.72873763037,500.363562235235,700.363562235235,365.271262369628,565.271262369628,699.636437764765,0,0,0,0,5,3,4,0,NaN,NaN,horizontal,horizontal,vertical,horizontal,none,none
1a,8,100141,2,11,75,22,F,NA,variable,heterogeneous,4,absent,0.683396100997925,1,vertical,vertical,1,0.952931928634644,green,4,NaN,558.892763222174,516.980120613425,NaN,NaN,716.980120613425,841.107236777826,1041.10723677783,683.019879386575,883.019879386575,358.892763222174,558.892763222174,516.980120613425,0,0,0,0,5,5,0,4,NaN,NaN,vertical,vertical,vertical,vertical,none,none
1a,8,100141,2,12,76,22,F,NA,variable,heterogeneous,5,present,1.11056017875671,1,vertical,vertical,1,0.670586385726929,green,2,1,1039.62161830041,687.215136548046,791.100628340862,854.844660889869,791.100628340862,854.844660889869,1039.62161830041,687.215136548046,956.993676208043,399.057257830286,657.405809614959,388.595418998464,554.878267535729,670.287525733335,0,0,0,4,3,0,5,NaN,horizontal,vertical,horizontal,vertical,vertical,none
1a,8,100141,2,13,77,22,F,NA,variable,heterogeneous,4,present,1.01669383049011,1,horizontal,horizontal,1,0.799994759559631,green,3,4,822.224714400653,345.970351986605,545.970351986605,577.775285599347,777.775285599347,854.029648013395,1054.0296480134,622.224714400653,822.224714400653,345.970351986605,545.970351986605,577.775285599347,0,0,0,0,5,6,4,3,NaN,NaN,vertical,vertical,horizontal,vertical,none,none
1a,8,100141,2,14,78,22,F,NA,variable,heterogeneous,5,absent,1.60117816925049,1,horizontal,horizontal,1,0.999989519119263,red,5,NaN,588.595418998464,742.594190385041,NaN,NaN,870.287525733335,845.121732464271,1054.84466088987,608.899371659138,887.215136548046,360.378381699593,599.057257830286,443.006323791957,588.595418998464,742.594190385041,0,0,5,6,6,0,4,NaN,vertical,vertical,vertical,vertical,horizontal,none
1a,8,100141,2,15,79,22,F,NA,variable,heterogeneous,6,present,0.726011037826538,1,vertical,vertical,1,1.02351831436157,red,2,4,960.476699717708,798.172220171528,891.383827134052,361.936991243214,708.616172865948,838.063008756786,960.476699717708,798.172220171528,1051.86052685176,560.109211414741,891.383827134052,361.936991243214,639.523300282292,401.827779828472,548.13947314824,639.890788585259,5,4,0,5,3,6,vertical,vertical,vertical,vertical,vertical,horizontal
1a,8,100141,2,16,80,22,F,NA,variable,heterogeneous,5,present,0.866240978240967,1,vertical,vertical,1,1.08234030246735,red,3,4,831.076682568313,346.900731331463,568.891514305654,492.232343256122,923.626453162816,823.028025320546,1050.31493177915,551.343706178981,831.076682568313,346.900731331463,568.891514305654,492.232343256122,626.090418184063,786.495193912888,0,0,5,6,4,0,3,NaN,horizontal,vertical,vertical,vertical,horizontal,none
1a,8,100141,2,17,81,22,F,NA,variable,heterogeneous,4,present,1.10356497764587,1,vertical,vertical,1,0.988225121498108,green,1,3,946.261991269517,808.883771293693,653.738008730483,391.116228706307,946.261991269517,808.883771293693,1008.88377129369,453.738008730483,653.738008730483,391.116228706307,591.116228706307,746.261991269517,0,0,0,0,4,5,6,0,NaN,NaN,vertical,horizontal,vertical,horizontal,none,none
1a,8,100141,2,18,82,22,F,NA,variable,heterogeneous,6,present,1.2014319896698,1,vertical,vertical,1,0.988225121498108,green,2,4,967.295052392579,792.450942956807,883.019879386575,358.892763222174,716.980120613425,841.107236777826,967.295052392579,792.450942956807,1050.31493177915,551.343706178981,883.019879386575,358.892763222174,632.704947607421,407.549057043193,549.685068220846,648.656293821019,5,4,6,6,5,3,horizontal,vertical,vertical,horizontal,horizontal,horizontal
1a,8,100141,2,19,83,22,F,NA,variable,heterogeneous,4,absent,1.5285530090332,1,horizontal,horizontal,1,0.941167531013489,red,2,NaN,1034.72873763037,500.363562235235,NaN,NaN,899.636437764765,834.728737630372,1034.72873763037,500.363562235235,700.363562235235,365.271262369628,565.271262369628,699.636437764765,0,0,0,0,3,4,6,3,NaN,NaN,vertical,horizontal,vertical,vertical,none,none
1a,8,100141,2,20,84,22,F,NA,variable,heterogeneous,3,absent,1.02363991737366,1,horizontal,horizontal,1,0.611764397621155,red,1,NaN,995.341332995339,763.910840470068,NaN,NaN,995.341332995339,763.910840470068,844.280285305067,348.874022981887,560.378381699593,687.215136548046,0,0,0,0,0,0,4,0,6,NaN,NaN,NaN,horizontal,vertical,horizontal,none,none,none
1a,8,100141,2,21,85,22,F,NA,variable,heterogeneous,5,absent,1.46107482910156,1,horizontal,horizontal,1,0.62352879524231,green,5,NaN,629.371695378491,789.501930496736,NaN,NaN,927.5,820.836477965032,1049.42763818712,546.982518841471,826.654758133252,346.39691668109,567.045908301137,496.282156015671,629.371695378491,789.501930496736,0,0,5,3,0,6,4,NaN,horizontal,horizontal,horizontal,horizontal,horizontal,none
1a,8,100141,2,22,86,22,F,NA,variable,heterogeneous,3,present,0.770095109939575,1,vertical,vertical,1,0.788230361938477,green,1,3,865.998856501143,846.311085703712,553.688914296288,534.001143498857,865.998856501143,846.311085703712,980.31222920257,419.68777079743,553.688914296288,534.001143498857,0,0,0,0,0,0,4,6,5,NaN,NaN,NaN,vertical,vertical,vertical,none,none,none
1a,8,100141,2,23,87,22,F,NA,variable,heterogeneous,3,present,0.659553050994873,1,vertical,vertical,1,1.0941047000885,red,3,2,545.349468637584,586.654331158049,938.882953928832,386.139005173917,915.767577433584,827.206663668034,938.882953928832,386.139005173917,545.349468637584,586.654331158049,0,0,0,0,0,0,5,3,4,NaN,NaN,NaN,vertical,horizontal,vertical,none,none,none
1a,8,100141,2,24,88,22,F,NA,variable,heterogeneous,3,present,1.55889701843262,1,horizontal,horizontal,1,0.89410994052887,green,3,2,552.574589799621,538.309916622085,977.137884467044,416.568350913644,870.287525733335,845.121732464271,977.137884467044,416.568350913644,552.574589799621,538.309916622085,0,0,0,0,0,0,3,5,4,NaN,NaN,NaN,horizontal,vertical,horizontal,none,none,none
1a,8,100141,2,25,89,22,F,NA,variable,heterogeneous,3,absent,1.47048306465149,1,vertical,vertical,1,0.811759157180786,green,1,NaN,942.594190385041,811.404581001536,NaN,NaN,942.594190385041,811.404581001536,911.784642431215,370.807518193712,545.621167183745,617.787900804752,0,0,0,0,0,0,4,3,6,NaN,NaN,NaN,vertical,horizontal,horizontal,none,none,none
1a,8,100141,2,26,90,22,F,NA,variable,heterogeneous,4,absent,0.717051982879639,1,horizontal,horizontal,1,1.04704710960388,green,2,NaN,1051.12597701811,644.280285305067,NaN,NaN,755.719714694933,851.125977018113,1051.12597701811,644.280285305067,844.280285305067,348.874022981887,548.874022981887,555.719714694933,0,0,0,0,3,4,6,0,NaN,NaN,vertical,horizontal,horizontal,horizontal,none,none
1a,8,100141,2,27,91,22,F,NA,variable,heterogeneous,4,present,1.14631485939026,1,vertical,vertical,1,0.729408373832703,green,3,1,960.476699717708,401.827779828472,639.523300282292,798.172220171528,639.523300282292,798.172220171528,998.172220171528,760.476699717708,960.476699717708,401.827779828472,601.827779828472,439.523300282291,0,0,0,0,0,6,4,6,NaN,NaN,vertical,vertical,vertical,horizontal,none,none
1a,8,100141,2,28,92,22,F,NA,variable,heterogeneous,3,present,0.710949897766113,1,horizontal,horizontal,1,0.882345542907715,red,3,1,552.574589799621,538.309916622085,870.287525733335,845.121732464271,870.287525733335,845.121732464271,977.137884467044,416.568350913644,552.574589799621,538.309916622085,0,0,0,0,0,0,0,5,4,NaN,NaN,NaN,horizontal,horizontal,horizontal,none,none,none
1a,8,100141,2,29,93,22,F,NA,variable,heterogeneous,6,present,1.38911104202271,1,horizontal,horizontal,1,0.988225121498108,red,1,5,857.362518857686,848.464366520235,556.142287229426,525.445215295702,857.362518857686,848.464366520235,1043.85771277057,674.554784704298,986.495193912888,426.090418184063,742.637481142314,351.535633479765,556.142287229426,525.445215295702,613.504806087112,773.909581815937,4,0,6,5,5,3,horizontal,vertical,horizontal,horizontal,vertical,horizontal
1a,8,100141,2,30,94,22,F,NA,variable,heterogeneous,6,absent,0.846441030502319,1,vertical,vertical,1,0.87058114528656,green,1,NaN,919.715248510402,825.151636179026,NaN,NaN,919.715248510402,825.151636179026,1054.84466088987,608.899371659138,935.129412379467,383.747735480111,680.284751489598,374.848363820974,545.155339110131,591.100628340862,664.870587620533,816.252264519889,4,6,5,0,0,6,vertical,vertical,horizontal,horizontal,horizontal,horizontal
1a,8,100141,2,31,95,22,F,NA,variable,heterogeneous,4,absent,0.809927940368652,1,horizontal,horizontal,1,0.905874338150024,red,3,NaN,970.628304621509,410.498069503264,NaN,NaN,629.371695378491,789.501930496736,989.501930496736,770.628304621509,970.628304621509,410.498069503264,610.498069503264,429.371695378491,0,0,0,0,6,0,4,6,NaN,NaN,horizontal,horizontal,horizontal,vertical,none,none
1a,8,100141,2,32,96,22,F,NA,variable,heterogeneous,3,absent,0.694189071655273,1,vertical,vertical,1,0.999989519119263,red,1,NaN,700.363562235235,834.728737630372,NaN,NaN,700.363562235235,834.728737630372,1053.09926866854,568.923317431687,646.537169096228,396.34794493794,0,0,0,0,0,0,4,6,3,NaN,NaN,NaN,vertical,vertical,horizontal,none,none,none
1a,8,100141,2,33,97,22,F,NA,variable,heterogeneous,6,present,1.13651609420776,1,vertical,vertical,1,0.611764397621155,red,2,6,1053.60308331891,626.654758133252,650.114760665419,806.299333565612,903.717843984329,832.954091698863,1053.60308331891,626.654758133252,949.885239334581,393.700666434388,696.282156015671,367.045908301137,546.39691668109,573.345241866748,650.114760665419,806.299333565612,3,4,0,5,6,0,vertical,vertical,horizontal,horizontal,horizontal,vertical
1a,8,100141,2,34,98,22,F,NA,variable,heterogeneous,4,absent,0.786334991455078,1,vertical,vertical,1,0.952931928634644,green,4,NaN,572.793336331966,715.767577433584,NaN,NaN,915.767577433584,827.206663668034,1027.20666366803,484.232422566416,684.232422566416,372.793336331966,572.793336331966,715.767577433584,0,0,0,0,0,6,6,4,NaN,NaN,vertical,vertical,vertical,vertical,none,none
1a,8,100141,2,35,99,22,F,NA,variable,heterogeneous,5,absent,0.807679176330566,1,vertical,vertical,1,0.87058114528656,green,1,NaN,672.5,820.836477965032,NaN,NaN,672.5,820.836477965032,970.628304621509,789.501930496736,1032.95409169886,496.282156015671,773.345241866748,346.39691668109,550.57236181288,546.982518841471,0,0,4,5,3,6,6,NaN,vertical,vertical,vertical,vertical,vertical,none
1a,8,100141,2,36,100,22,F,NA,variable,heterogeneous,3,present,0.855869054794312,1,vertical,vertical,1,1.01175391674042,green,3,1,643.006323791957,399.057257830286,704.475318678942,836.431882914531,704.475318678942,836.431882914531,1052.5183575291,564.510859255183,643.006323791957,399.057257830286,0,0,0,0,0,0,5,0,4,NaN,NaN,NaN,vertical,vertical,vertical,none,none,none
1a,8,100141,2,37,101,22,F,NA,variable,heterogeneous,5,absent,NaN,0,horizontal,none,0,1.0941047000885,green,4,NaN,604.658667004661,436.089159529932,NaN,NaN,861.690083377915,847.425410200379,1054.37883281626,617.787900804752,895.524681321058,363.568117085469,604.658667004661,436.089159529932,583.747735480111,735.129412379467,0,0,3,5,6,4,0,NaN,vertical,vertical,horizontal,horizontal,horizontal,none
1a,8,100141,2,38,102,22,F,NA,variable,heterogeneous,6,absent,1.03997015953064,1,vertical,vertical,1,1.03528271198273,red,1,NaN,688.215357568785,829.192481806288,NaN,NaN,688.215357568785,829.192481806288,942.594190385041,811.404581001536,1054.37883281626,582.212099195248,911.784642431215,370.807518193712,657.405809614959,388.595418998464,545.621167183745,617.787900804752,4,6,0,3,6,5,vertical,vertical,vertical,vertical,vertical,vertical
1a,8,100141,2,39,103,22,F,NA,variable,heterogeneous,4,absent,0.66426420211792,1,vertical,vertical,1,0.752937169075012,red,1,NaN,878.799333565612,842.519411655264,NaN,NaN,878.799333565612,842.519411655264,1042.51941165526,521.200666434388,721.200666434388,357.480588344736,557.480588344736,678.799333565612,0,0,0,0,4,6,0,3,NaN,NaN,vertical,vertical,vertical,horizontal,none,none
1a,8,100141,2,40,104,22,F,NA,variable,heterogeneous,3,absent,0.77630877494812,1,horizontal,horizontal,1,0.929403133392334,green,3,NaN,563.568117085469,695.524681321058,NaN,NaN,1000.94274216971,756.993676208043,835.489140744817,347.4816424709,563.568117085469,695.524681321058,0,0,0,0,0,0,6,5,4,NaN,NaN,NaN,horizontal,vertical,horizontal,none,none,none
1a,8,100141,2,41,105,22,F,NA,variable,heterogeneous,4,present,0.730051040649414,1,horizontal,horizontal,1,0.905874338150024,red,2,1,1048.46436652023,542.637481142314,857.362518857686,848.464366520235,857.362518857686,848.464366520235,1048.46436652023,542.637481142314,742.637481142314,351.535633479765,551.535633479765,657.362518857686,0,0,0,0,6,4,5,0,NaN,NaN,horizontal,horizontal,vertical,vertical,none,none
1a,8,100141,2,42,106,22,F,NA,variable,heterogeneous,6,present,1.06995487213135,1,horizontal,horizontal,1,1.04704710960388,red,2,5,1053.60308331891,626.654758133252,546.39691668109,573.345241866748,903.717843984329,832.954091698863,1053.60308331891,626.654758133252,949.885239334581,393.700666434388,696.282156015671,367.045908301137,546.39691668109,573.345241866748,650.114760665419,806.299333565612,3,4,3,5,6,0,vertical,horizontal,horizontal,vertical,horizontal,horizontal
1a,8,100141,2,43,107,22,F,NA,variable,heterogeneous,5,present,1.52633500099182,1,vertical,vertical,1,0.941167531013489,green,4,2,755.719714694933,348.874022981887,983.431649086356,777.137884467044,688.215357568785,829.192481806288,983.431649086356,777.137884467044,1025.15163617903,480.284751489598,755.719714694933,348.874022981887,547.481642470899,564.510859255183,0,0,0,6,0,4,5,NaN,vertical,horizontal,vertical,vertical,vertical,none
1a,8,100141,2,44,108,22,F,NA,variable,heterogeneous,6,absent,1.3895800113678,1,vertical,vertical,1,0.62352879524231,green,3,NaN,980.31222920257,419.68777079743,NaN,NaN,865.998856501143,846.311085703712,1046.31108570371,665.998856501143,980.31222920257,419.68777079743,734.001143498857,353.688914296288,553.688914296288,534.001143498857,619.68777079743,780.31222920257,5,3,4,3,0,0,horizontal,horizontal,vertical,vertical,horizontal,horizontal
1a,8,100141,2,45,109,22,F,NA,variable,heterogeneous,5,absent,NaN,0,horizontal,none,0,0.882345542907715,red,2,NaN,1045.12173246427,670.287525733335,NaN,NaN,808.899371659138,854.844660889869,1045.12173246427,670.287525733335,942.594190385041,388.595418998464,643.006323791957,399.057257830286,560.378381699593,687.215136548046,0,0,0,4,3,6,5,NaN,horizontal,horizontal,horizontal,vertical,horizontal,none
1a,8,100141,2,46,110,22,F,NA,variable,heterogeneous,5,present,1.19153189659119,1,horizontal,horizontal,1,0.799994759559631,red,3,5,931.334709102064,381.422338320961,565.271262369628,699.636437764765,822.224714400653,854.029648013395,1048.46436652023,657.362518857686,931.334709102064,381.422338320961,632.704947607421,407.549057043193,565.271262369628,699.636437764765,0,0,3,6,4,5,6,NaN,horizontal,vertical,horizontal,horizontal,vertical,none
1a,8,100141,2,47,111,22,F,NA,variable,heterogeneous,6,present,NaN,0,vertical,none,0,0.764701566696167,green,2,5,995.341332995339,763.910840470068,604.658667004661,436.089159529932,755.719714694933,851.125977018113,995.341332995339,763.910840470068,1039.62161830041,512.784863451954,844.280285305067,348.874022981887,604.658667004661,436.089159529932,560.378381699593,687.215136548046,0,4,3,5,6,3,horizontal,vertical,horizontal,horizontal,vertical,vertical
1a,8,100141,2,48,112,22,F,NA,variable,heterogeneous,6,absent,0.862291097640991,1,vertical,vertical,1,0.752937169075012,red,4,NaN,760.109211414741,348.13947314824,NaN,NaN,839.890788585259,851.86052685176,1038.06300875679,691.383827134052,998.172220171528,439.523300282291,760.109211414741,348.13947314824,561.936991243214,508.616172865948,601.827779828472,760.476699717708,5,0,6,4,3,0,vertical,horizontal,vertical,vertical,vertical,vertical
1a,8,100141,2,49,113,22,F,NA,variable,heterogeneous,4,absent,0.923463106155396,1,horizontal,horizontal,1,0.988225121498108,green,4,NaN,545.03883773512,595.549636358493,NaN,NaN,795.549636358493,854.96116226488,1054.96116226488,604.450363641507,804.450363641507,345.03883773512,545.03883773512,595.549636358493,0,0,0,0,0,6,5,4,NaN,NaN,vertical,vertical,vertical,horizontal,none,none
1a,8,100141,2,50,114,22,F,NA,variable,heterogeneous,6,absent,1.33385896682739,1,horizontal,horizontal,1,1.01175391674042,green,5,NaN,596.34794493794,446.537169096228,NaN,NaN,768.923317431687,853.099268668537,1003.65205506206,753.462830903772,1034.72873763037,500.363562235235,831.076682568313,346.900731331463,596.34794493794,446.537169096228,565.271262369628,699.636437764765,6,5,0,3,4,0,horizontal,horizontal,horizontal,vertical,horizontal,vertical
1a,8,100141,2,51,115,22,F,NA,variable,heterogeneous,6,absent,1.82232284545898,1,horizontal,horizontal,1,0.858816747665405,green,1,NaN,773.345241866748,853.60308331891,NaN,NaN,773.345241866748,853.60308331891,1006.29933356561,749.885239334581,1032.95409169886,496.282156015671,826.654758133252,346.39691668109,593.700666434388,450.114760665419,567.045908301137,703.717843984329,4,3,5,0,0,6,horizontal,vertical,vertical,vertical,vertical,horizontal
1a,8,100141,2,52,116,22,F,NA,variable,heterogeneous,3,absent,0.85161304473877,1,vertical,vertical,1,0.62352879524231,red,1,NaN,684.232422566416,827.206663668034,NaN,NaN,684.232422566416,827.206663668034,1054.65053136242,586.654331158049,661.117046071168,386.139005173917,0,0,0,0,0,0,4,0,3,NaN,NaN,NaN,vertical,horizontal,horizontal,none,none,none
1a,8,100141,2,53,117,22,F,NA,variable,heterogeneous,3,present,0.802276134490967,1,horizontal,horizontal,1,0.87058114528656,red,1,2,616.568350913644,777.137884467044,1045.12173246427,670.287525733335,616.568350913644,777.137884467044,1045.12173246427,670.287525733335,738.309916622085,352.574589799621,0,0,0,0,0,0,4,5,0,NaN,NaN,NaN,horizontal,vertical,vertical,none,none,none
1a,8,100141,2,54,118,22,F,NA,variable,heterogeneous,4,present,0.77123498916626,1,horizontal,horizontal,1,0.835287952423096,red,2,1,1023.02802532055,476.373546837184,923.626453162816,823.028025320546,923.626453162816,823.028025320546,1023.02802532055,476.373546837184,676.373546837184,376.971974679454,576.971974679454,723.626453162816,0,0,0,0,6,4,0,5,NaN,NaN,horizontal,horizontal,horizontal,vertical,none,none
1a,8,100141,2,55,119,22,F,NA,variable,heterogeneous,6,absent,0.996182918548584,1,horizontal,horizontal,1,0.87058114528656,red,5,NaN,548.874022981887,555.719714694933,NaN,NaN,887.215136548046,839.621618300407,1051.12597701811,644.280285305067,963.910840470068,404.658667004661,712.784863451954,360.378381699593,548.874022981887,555.719714694933,636.089159529932,795.341332995339,6,3,5,0,4,5,vertical,vertical,vertical,vertical,horizontal,horizontal
1a,8,100141,2,56,120,22,F,NA,variable,heterogeneous,6,present,1.16465091705322,1,horizontal,horizontal,1,1.02351831436157,green,1,2,746.982518841471,849.42763818712,989.501930496736,770.628304621509,746.982518841471,849.42763818712,989.501930496736,770.628304621509,1042.51941165526,521.200666434388,853.017481158529,350.57236181288,610.498069503264,429.371695378491,557.480588344736,678.799333565612,4,6,5,6,0,5,horizontal,horizontal,horizontal,vertical,horizontal,vertical
1a,8,100141,2,57,121,22,F,NA,variable,heterogeneous,5,absent,1.4546217918396,1,vertical,vertical,1,0.917638735771179,red,3,NaN,931.334709102064,381.422338320961,NaN,NaN,822.224714400653,854.029648013395,1048.46436652023,657.362518857686,931.334709102064,381.422338320961,632.704947607421,407.549057043193,565.271262369628,699.636437764765,0,0,6,5,4,5,3,NaN,vertical,horizontal,vertical,vertical,vertical,none
1a,8,100141,2,58,122,22,F,NA,variable,heterogeneous,5,present,1.38991904258728,1,vertical,vertical,1,0.89410994052887,red,2,1,1051.12597701811,644.280285305067,835.489140744817,852.518357529101,835.489140744817,852.518357529101,1051.12597701811,644.280285305067,919.715248510402,374.848363820974,622.862115532956,416.568350913644,570.807518193712,711.784642431215,0,0,3,4,0,5,6,NaN,vertical,vertical,vertical,horizontal,horizontal,none
1a,8,100141,2,59,123,22,F,NA,variable,heterogeneous,6,present,NaN,0,horizontal,none,0,0.694115180969238,green,2,1,1031.10848569435,707.767656743878,822.224714400653,854.029648013395,822.224714400653,854.029648013395,1031.10848569435,707.767656743878,1008.88377129369,453.738008730483,777.775285599347,345.970351986605,568.891514305654,492.232343256122,591.116228706307,746.261991269517,0,4,3,5,5,6,horizontal,horizontal,horizontal,horizontal,vertical,horizontal
1a,8,100141,2,60,124,22,F,NA,variable,heterogeneous,3,absent,0.629662990570068,1,vertical,vertical,1,0.89410994052887,green,2,NaN,1039.62161830041,687.215136548046,NaN,NaN,604.658667004661,763.910840470068,1039.62161830041,687.215136548046,755.719714694933,348.874022981887,0,0,0,0,0,0,6,4,0,NaN,NaN,NaN,horizontal,vertical,vertical,none,none,none
1a,8,100141,2,61,125,22,F,NA,variable,heterogeneous,5,absent,0.795259952545166,1,vertical,vertical,1,1.02351831436157,red,1,NaN,768.923317431687,853.099268668537,NaN,NaN,768.923317431687,853.099268668537,1031.10848569435,707.767656743878,973.909581815937,413.504806087112,676.373546837184,376.971974679454,549.685068220846,648.656293821019,0,0,4,0,6,3,0,NaN,vertical,vertical,horizontal,vertical,horizontal,none
1a,8,100141,2,62,126,22,F,NA,variable,heterogeneous,5,present,1.5286328792572,1,horizontal,horizontal,1,0.882345542907715,green,2,3,963.910840470068,795.341332995339,1036.43188291453,504.475318678942,664.870587620533,816.252264519889,963.910840470068,795.341332995339,1036.43188291453,504.475318678942,782.212099195248,345.621167183745,552.574589799621,538.309916622085,0,0,0,4,3,6,5,NaN,horizontal,horizontal,horizontal,vertical,horizontal,none
1a,8,100141,2,63,127,22,F,NA,variable,heterogeneous,5,present,1.08316683769226,1,horizontal,horizontal,1,0.776465964317322,green,4,2,692.232343256122,368.891514305654,1023.02802532055,723.626453162816,751.343706178981,850.314931779154,1023.02802532055,723.626453162816,986.495193912888,426.090418184063,692.232343256122,368.891514305654,546.900731331463,631.076682568313,0,0,6,3,3,4,5,NaN,vertical,vertical,vertical,horizontal,vertical,none
1a,8,100141,2,64,128,22,F,NA,variable,heterogeneous,6,absent,1.50464105606079,0,horizontal,vertical,1,0.788230361938477,red,2,NaN,935.129412379467,816.252264519889,NaN,NaN,680.284751489598,825.151636179026,935.129412379467,816.252264519889,1054.84466088987,591.100628340862,919.715248510402,374.848363820974,664.870587620533,383.747735480111,545.155339110131,608.899371659138,0,4,5,6,5,3,horizontal,horizontal,vertical,horizontal,vertical,horizontal
1a,8,100141,3,1,129,22,F,NA,variable,heterogeneous,6,absent,NaN,0,vertical,none,0,0.647057590484619,green,6,NaN,545,600,NaN,NaN,672.5,820.836477965032,927.5,820.836477965032,1055,600,927.5,379.163522034968,672.5,379.163522034968,545,600,5,3,0,5,6,4,vertical,vertical,horizontal,vertical,vertical,vertical
1a,8,100141,3,2,130,22,F,NA,variable,heterogeneous,6,absent,1.42333817481995,1,vertical,vertical,1,1.05881150722504,red,4,NaN,760.109211414741,348.13947314824,NaN,NaN,839.890788585259,851.86052685176,1038.06300875679,691.383827134052,998.172220171528,439.523300282291,760.109211414741,348.13947314824,561.936991243214,508.616172865948,601.827779828472,760.476699717708,0,0,3,4,3,6,vertical,horizontal,vertical,vertical,vertical,horizontal
1a,8,100141,3,3,131,22,F,NA,variable,heterogeneous,5,absent,0.687482118606567,1,vertical,vertical,1,0.964696326255798,green,4,NaN,619.68777079743,419.68777079743,NaN,NaN,839.890788585259,851.86052685176,1051.86052685176,639.890788585259,915.767577433584,372.793336331966,619.68777079743,419.68777079743,572.793336331966,715.767577433584,0,0,6,0,0,4,3,NaN,horizontal,horizontal,horizontal,vertical,horizontal,none
1a,8,100141,3,4,132,22,F,NA,variable,heterogeneous,6,present,0.750747203826904,1,vertical,vertical,1,1.08234030246735,red,6,5,646.537169096228,803.65205506206,546.900731331463,568.923317431687,899.636437764765,834.728737630372,1053.09926866854,631.076682568313,953.462830903772,396.34794493794,700.363562235235,365.271262369628,546.900731331463,568.923317431687,646.537169096228,803.65205506206,5,0,3,6,6,4,horizontal,vertical,vertical,vertical,horizontal,vertical
1a,8,100141,3,5,133,22,F,NA,variable,heterogeneous,4,present,0.841200113296509,1,horizontal,horizontal,1,0.611764397621155,green,1,4,672.5,820.836477965032,579.163522034968,472.5,672.5,820.836477965032,1020.83647796503,727.5,927.5,379.163522034968,579.163522034968,472.5,0,0,0,0,4,0,3,6,NaN,NaN,horizontal,vertical,vertical,vertical,none,none
1a,8,100141,3,6,134,22,F,NA,variable,heterogeneous,3,absent,0.970856904983521,1,vertical,vertical,1,0.976460723876953,red,2,NaN,911.784642431215,370.807518193712,NaN,NaN,942.594190385041,811.404581001536,911.784642431215,370.807518193712,545.621167183745,617.787900804752,0,0,0,0,0,0,6,4,5,NaN,NaN,NaN,vertical,vertical,vertical,none,none,none
1a,8,100141,3,7,135,22,F,NA,variable,heterogeneous,5,present,0.875370979309082,1,horizontal,horizontal,1,0.847052350044251,green,5,3,550.57236181288,546.982518841471,1032.95409169886,496.282156015671,672.5,820.836477965032,970.628304621509,789.501930496736,1032.95409169886,496.282156015671,773.345241866748,346.39691668109,550.57236181288,546.982518841471,0,0,3,0,0,5,4,NaN,horizontal,vertical,vertical,vertical,horizontal,none
1a,8,100141,3,8,136,22,F,NA,variable,heterogeneous,4,present,1.39383387565613,1,horizontal,horizontal,1,0.647057590484619,red,1,4,953.462830903772,803.65205506206,596.34794493794,753.462830903772,953.462830903772,803.65205506206,1003.65205506206,446.537169096228,646.537169096228,396.34794493794,596.34794493794,753.462830903772,0,0,0,0,4,3,5,5,NaN,NaN,horizontal,vertical,vertical,horizontal,none,none
1a,8,100141,3,9,137,22,F,NA,variable,heterogeneous,4,absent,0.650133848190308,1,vertical,vertical,1,0.799994759559631,red,1,NaN,746.982518841471,849.42763818712,NaN,NaN,746.982518841471,849.42763818712,1049.42763818712,653.017481158529,853.017481158529,350.57236181288,550.57236181288,546.982518841471,0,0,0,0,4,0,0,3,NaN,NaN,vertical,vertical,vertical,vertical,none,none
1a,8,100141,3,10,138,22,F,NA,variable,heterogeneous,6,absent,1.37094807624817,1,horizontal,horizontal,1,0.988225121498108,green,6,NaN,626.090418184063,786.495193912888,NaN,NaN,874.554784704298,843.857712770574,1048.46436652023,657.362518857686,973.909581815937,413.504806087112,725.445215295702,356.142287229426,551.535633479765,542.637481142314,626.090418184063,786.495193912888,3,3,0,0,6,4,vertical,vertical,vertical,vertical,vertical,horizontal
1a,8,100141,3,11,139,22,F,NA,variable,heterogeneous,4,absent,0.790775060653687,1,vertical,vertical,1,1.01175391674042,green,2,NaN,1006.29933356561,450.114760665419,NaN,NaN,949.885239334581,806.299333565612,1006.29933356561,450.114760665419,650.114760665419,393.700666434388,593.700666434388,749.885239334581,0,0,0,0,3,4,6,6,NaN,NaN,horizontal,vertical,vertical,horizontal,none,none
1a,8,100141,3,12,140,22,F,NA,variable,heterogeneous,6,absent,1.01023721694946,1,horizontal,horizontal,1,0.658821988105774,red,3,NaN,989.501930496736,429.371695378491,NaN,NaN,853.017481158529,849.42763818712,1042.51941165526,678.799333565612,989.501930496736,429.371695378491,746.982518841471,350.57236181288,557.480588344736,521.200666434388,610.498069503264,770.628304621509,0,5,4,6,0,5,horizontal,horizontal,horizontal,vertical,horizontal,horizontal
1a,8,100141,3,13,141,22,F,NA,variable,heterogeneous,3,present,0.864262819290161,1,horizontal,horizontal,1,0.788230361938477,red,2,3,1054.0296480134,622.224714400653,692.232343256122,368.891514305654,653.738008730483,808.883771293693,1054.0296480134,622.224714400653,692.232343256122,368.891514305654,0,0,0,0,0,0,3,4,5,NaN,NaN,NaN,horizontal,horizontal,horizontal,none,none,none
1a,8,100141,3,14,142,22,F,NA,variable,heterogeneous,3,absent,0.713624000549316,1,vertical,vertical,1,0.799994759559631,red,2,NaN,813.345668841951,345.349468637584,NaN,NaN,1013.86099482608,738.882953928832,813.345668841951,345.349468637584,572.793336331966,715.767577433584,0,0,0,0,0,0,5,4,0,NaN,NaN,NaN,horizontal,vertical,vertical,none,none,none
1a,8,100141,3,15,143,22,F,NA,variable,heterogeneous,5,absent,0.888082027435303,1,vertical,vertical,1,0.882345542907715,red,2,NaN,1053.60308331891,573.345241866748,NaN,NaN,903.717843984329,832.954091698863,1053.60308331891,573.345241866748,853.017481158529,350.57236181288,579.163522034968,472.5,610.498069503264,770.628304621509,0,0,0,4,6,5,3,NaN,horizontal,vertical,horizontal,vertical,vertical,none
1a,8,100141,3,16,144,22,F,NA,variable,heterogeneous,6,present,1.40467500686646,1,horizontal,horizontal,1,0.89410994052887,red,5,1,604.658667004661,436.089159529932,755.719714694933,851.125977018113,755.719714694933,851.125977018113,995.341332995339,763.910840470068,1039.62161830041,512.784863451954,844.280285305067,348.874022981887,604.658667004661,436.089159529932,560.378381699593,687.215136548046,5,5,3,6,4,0,horizontal,horizontal,horizontal,vertical,horizontal,vertical
1a,8,100141,3,17,145,22,F,NA,variable,heterogeneous,5,present,1.33072590827942,1,horizontal,horizontal,1,1.04704710960388,green,5,1,550.57236181288,546.982518841471,672.5,820.836477965032,672.5,820.836477965032,970.628304621509,789.501930496736,1032.95409169886,496.282156015671,773.345241866748,346.39691668109,550.57236181288,546.982518841471,0,0,5,6,0,6,4,NaN,vertical,vertical,horizontal,vertical,horizontal,none
1a,8,100141,3,18,146,22,F,NA,variable,heterogeneous,5,present,0.859467029571533,1,vertical,vertical,1,0.682350783348084,green,2,3,992.450942956807,767.295052392579,1018.57766167904,468.665290897936,700.363562235235,834.728737630372,992.450942956807,767.295052392579,1018.57766167904,468.665290897936,742.637481142314,351.535633479765,545.970351986605,577.775285599347,0,0,0,4,6,3,3,NaN,vertical,vertical,horizontal,vertical,horizontal,none
1a,8,100141,3,19,147,22,F,NA,variable,heterogeneous,5,present,0.790655851364136,1,horizontal,horizontal,1,0.89410994052887,red,5,4,557.480588344736,678.799333565612,650.114760665419,393.700666434388,800,855,1042.51941165526,678.799333565612,949.885239334581,393.700666434388,650.114760665419,393.700666434388,557.480588344736,678.799333565612,0,0,0,6,0,5,4,NaN,horizontal,horizontal,horizontal,horizontal,horizontal,none
1a,8,100141,3,20,148,22,F,NA,variable,heterogeneous,3,present,1.26647400856018,1,horizontal,horizontal,1,0.788230361938477,green,3,2,636.089159529932,404.658667004661,1051.12597701811,555.719714694933,712.784863451954,839.621618300407,1051.12597701811,555.719714694933,636.089159529932,404.658667004661,0,0,0,0,0,0,3,3,4,NaN,NaN,NaN,vertical,horizontal,horizontal,none,none,none
1a,8,100141,3,21,149,22,F,NA,variable,heterogeneous,3,present,0.941298007965088,1,vertical,vertical,1,0.670586385726929,red,1,2,861.690083377915,847.425410200379,983.431649086356,422.862115532956,861.690083377915,847.425410200379,983.431649086356,422.862115532956,554.878267535729,529.712474266665,0,0,0,0,0,0,4,0,6,NaN,NaN,NaN,vertical,vertical,horizontal,none,none,none
1a,8,100141,3,22,150,22,F,NA,variable,heterogeneous,4,present,1.77436709403992,1,horizontal,horizontal,1,1.0941047000885,red,4,2,616.568350913644,777.137884467044,983.431649086356,422.862115532956,977.137884467044,783.431649086356,983.431649086356,422.862115532956,622.862115532956,416.568350913644,616.568350913644,777.137884467044,0,0,0,0,0,5,6,4,NaN,NaN,vertical,vertical,horizontal,horizontal,none,none
1a,8,100141,3,23,151,22,F,NA,variable,heterogeneous,3,present,0.998311042785645,1,horizontal,horizontal,1,1.04704710960388,red,1,3,808.899371659138,854.844660889869,574.848363820974,480.284751489598,808.899371659138,854.844660889869,1016.25226451989,464.870587620533,574.848363820974,480.284751489598,0,0,0,0,0,0,4,3,5,NaN,NaN,NaN,horizontal,horizontal,horizontal,none,none,none
1a,8,100141,3,24,152,22,F,NA,variable,heterogeneous,4,present,0.773812055587769,1,vertical,vertical,1,0.952931928634644,red,3,2,953.462830903772,396.34794493794,1003.65205506206,753.462830903772,646.537169096228,803.65205506206,1003.65205506206,753.462830903772,953.462830903772,396.34794493794,596.34794493794,446.537169096228,0,0,0,0,5,5,4,0,NaN,NaN,vertical,horizontal,vertical,horizontal,none,none
1a,8,100141,3,25,153,22,F,NA,variable,heterogeneous,3,absent,0.668882846832275,1,vertical,vertical,1,0.976460723876953,green,3,NaN,696.282156015671,367.045908301137,NaN,NaN,650.114760665419,806.299333565612,1053.60308331891,626.654758133252,696.282156015671,367.045908301137,0,0,0,0,0,0,0,3,4,NaN,NaN,NaN,horizontal,horizontal,vertical,none,none,none
1a,8,100141,3,26,154,22,F,NA,variable,heterogeneous,6,present,1.01097011566162,1,vertical,vertical,1,1.03528271198273,green,6,5,554.878267535729,670.287525733335,616.568350913644,422.862115532956,738.309916622085,847.425410200379,983.431649086356,777.137884467044,1045.12173246427,529.712474266665,861.690083377915,352.574589799621,616.568350913644,422.862115532956,554.878267535729,670.287525733335,0,5,5,3,3,4,vertical,horizontal,vertical,vertical,horizontal,vertical
1a,8,100141,3,27,155,22,F,NA,variable,heterogeneous,4,absent,0.859216213226318,1,vertical,vertical,1,0.776465964317322,red,1,NaN,680.284751489598,825.151636179026,NaN,NaN,680.284751489598,825.151636179026,1025.15163617903,719.715248510402,919.715248510402,374.848363820974,574.848363820974,480.284751489598,0,0,0,0,4,0,0,6,NaN,NaN,vertical,vertical,vertical,vertical,none,none
1a,8,100141,3,28,156,22,F,NA,variable,heterogeneous,5,absent,0.875958919525146,1,horizontal,horizontal,1,0.776465964317322,red,4,NaN,692.232343256122,368.891514305654,NaN,NaN,751.343706178981,850.314931779154,1023.02802532055,723.626453162816,986.495193912888,426.090418184063,692.232343256122,368.891514305654,546.900731331463,631.076682568313,0,0,3,6,5,4,5,NaN,horizontal,horizontal,horizontal,horizontal,horizontal,none
1a,8,100141,3,29,157,22,F,NA,variable,heterogeneous,6,present,1.26291990280151,0,horizontal,vertical,1,0.858816747665405,red,3,1,927.5,379.163522034968,927.5,820.836477965032,927.5,820.836477965032,1055,600,927.5,379.163522034968,672.5,379.163522034968,545,600,672.5,820.836477965032,0,6,4,3,6,5,vertical,horizontal,horizontal,horizontal,horizontal,horizontal
1a,8,100141,3,30,158,22,F,NA,variable,heterogeneous,6,absent,1.34769296646118,1,vertical,vertical,1,0.964696326255798,green,1,NaN,782.212099195248,854.378832816255,NaN,NaN,782.212099195248,854.378832816255,1011.40458100154,742.594190385041,1029.19248180629,488.215357568785,817.787900804752,345.621167183745,588.595418998464,457.40580961496,570.807518193712,711.784642431215,4,3,6,5,6,5,vertical,vertical,vertical,horizontal,horizontal,vertical
1a,8,100141,3,31,159,22,F,NA,variable,heterogeneous,6,absent,1.80567097663879,1,horizontal,horizontal,1,0.941167531013489,red,5,NaN,619.68777079743,419.68777079743,NaN,NaN,734.001143498857,846.311085703712,980.31222920257,780.31222920257,1046.31108570371,534.001143498857,865.998856501143,353.688914296288,619.68777079743,419.68777079743,553.688914296288,665.998856501143,5,6,6,3,4,5,horizontal,horizontal,vertical,vertical,horizontal,horizontal
1a,8,100141,3,32,160,22,F,NA,variable,heterogeneous,6,present,NaN,0,vertical,none,0,0.717643976211548,red,4,3,755.719714694933,348.874022981887,995.341332995339,436.089159529932,844.280285305067,851.125977018113,1039.62161830041,687.215136548046,995.341332995339,436.089159529932,755.719714694933,348.874022981887,560.378381699593,512.784863451954,604.658667004661,763.910840470068,0,0,3,4,6,6,vertical,horizontal,horizontal,vertical,horizontal,horizontal
1a,8,100141,3,33,161,22,F,NA,variable,heterogeneous,3,present,0.812684059143066,1,vertical,vertical,1,0.611764397621155,green,1,3,989.501930496736,770.628304621509,557.480588344736,678.799333565612,989.501930496736,770.628304621509,853.017481158529,350.57236181288,557.480588344736,678.799333565612,0,0,0,0,0,0,4,0,0,NaN,NaN,NaN,vertical,horizontal,horizontal,none,none,none
1a,8,100141,3,34,162,22,F,NA,variable,heterogeneous,3,absent,0.730828046798706,1,vertical,vertical,1,1.08234030246735,green,3,NaN,545.03883773512,604.450363641507,NaN,NaN,931.334709102064,818.577661679039,923.626453162816,376.971974679454,545.03883773512,604.450363641507,0,0,0,0,0,0,0,3,4,NaN,NaN,NaN,vertical,vertical,vertical,none,none,none
1a,8,100141,3,35,163,22,F,NA,variable,heterogeneous,3,absent,1.42648792266846,1,horizontal,horizontal,1,0.835287952423096,red,3,NaN,546.39691668109,573.345241866748,NaN,NaN,903.717843984329,832.954091698863,949.885239334581,393.700666434388,546.39691668109,573.345241866748,0,0,0,0,0,0,5,5,4,NaN,NaN,NaN,vertical,vertical,horizontal,none,none,none
1a,8,100141,3,36,164,22,F,NA,variable,heterogeneous,3,absent,1.45966482162476,1,horizontal,horizontal,1,1.01175391674042,green,2,NaN,895.524681321058,363.568117085469,NaN,NaN,956.993676208043,800.942742169714,895.524681321058,363.568117085469,547.481642470899,635.489140744817,0,0,0,0,0,0,6,4,6,NaN,NaN,NaN,vertical,horizontal,horizontal,none,none,none
1a,8,100141,3,37,165,22,F,NA,variable,heterogeneous,5,present,1.02339887619019,1,vertical,vertical,1,0.917638735771179,green,4,3,764.510859255183,347.4816424709,1029.19248180629,488.215357568785,680.284751489598,825.151636179026,977.137884467044,783.431649086356,1029.19248180629,488.215357568785,764.510859255183,347.4816424709,548.874022981887,555.719714694933,0,0,0,5,6,4,5,NaN,horizontal,vertical,horizontal,vertical,horizontal,none
1a,8,100141,3,38,166,22,F,NA,variable,heterogeneous,6,present,0.711610794067383,1,vertical,vertical,1,0.988225121498108,green,3,4,977.137884467044,416.568350913644,729.712474266665,354.878267535729,870.287525733335,845.121732464271,1047.42541020038,661.690083377915,977.137884467044,416.568350913644,729.712474266665,354.878267535729,552.574589799621,538.309916622085,622.862115532956,783.431649086356,0,6,4,5,3,0,vertical,horizontal,vertical,horizontal,horizontal,vertical
1a,8,100141,3,39,167,22,F,NA,variable,heterogeneous,4,absent,0.694261074066162,1,vertical,vertical,1,0.835287952423096,green,4,NaN,616.568350913644,777.137884467044,NaN,NaN,977.137884467044,783.431649086356,983.431649086356,422.862115532956,622.862115532956,416.568350913644,616.568350913644,777.137884467044,0,0,0,0,0,6,0,4,NaN,NaN,vertical,vertical,horizontal,vertical,none,none
1a,8,100141,3,40,168,22,F,NA,variable,heterogeneous,5,present,0.849238157272339,1,vertical,vertical,1,0.611764397621155,red,3,1,817.787900804752,345.621167183745,935.129412379467,816.252264519889,935.129412379467,816.252264519889,1047.42541020038,538.309916622085,817.787900804752,345.621167183745,563.568117085469,504.475318678942,636.089159529932,795.341332995339,0,0,5,5,4,3,6,NaN,horizontal,horizontal,vertical,vertical,horizontal,none
1a,8,100141,3,41,169,22,F,NA,variable,heterogeneous,6,present,1.58000206947327,1,horizontal,horizontal,1,1.08234030246735,green,2,6,927.5,820.836477965032,545,600,672.5,820.836477965032,927.5,820.836477965032,1055,600,927.5,379.163522034968,672.5,379.163522034968,545,600,0,4,3,6,0,3,horizontal,horizontal,horizontal,vertical,vertical,vertical
1a,8,100141,3,42,170,22,F,NA,variable,heterogeneous,5,absent,0.90261697769165,1,horizontal,horizontal,1,0.929403133392334,red,1,NaN,927.5,820.836477965032,NaN,NaN,927.5,820.836477965032,1049.42763818712,546.982518841471,826.654758133252,346.39691668109,567.045908301137,496.282156015671,629.371695378491,789.501930496736,0,0,4,5,0,3,6,NaN,horizontal,vertical,horizontal,horizontal,vertical,none
1a,8,100141,3,43,171,22,F,NA,variable,heterogeneous,5,absent,0.975759029388428,1,vertical,vertical,1,0.764701566696167,green,5,NaN,583.747735480111,735.129412379467,NaN,NaN,861.690083377915,847.425410200379,1054.37883281626,617.787900804752,895.524681321058,363.568117085469,604.658667004661,436.089159529932,583.747735480111,735.129412379467,0,0,3,0,0,5,4,NaN,vertical,vertical,horizontal,vertical,vertical,none
1a,8,100141,3,44,172,22,F,NA,variable,heterogeneous,3,present,0.903430938720703,1,horizontal,horizontal,1,0.988225121498108,green,2,1,1055,600,672.5,820.836477965032,672.5,820.836477965032,1055,600,672.5,379.163522034968,0,0,0,0,0,0,5,4,6,NaN,NaN,NaN,horizontal,horizontal,vertical,none,none,none
1a,8,100141,3,45,173,22,F,NA,variable,heterogeneous,4,absent,0.986994981765747,1,horizontal,horizontal,1,1.05881150722504,red,1,NaN,684.232422566416,827.206663668034,NaN,NaN,684.232422566416,827.206663668034,1027.20666366803,715.767577433584,915.767577433584,372.793336331966,572.793336331966,484.232422566416,0,0,0,0,4,5,5,0,NaN,NaN,horizontal,vertical,vertical,horizontal,none,none
1a,8,100141,3,46,174,22,F,NA,variable,heterogeneous,3,present,0.737790107727051,1,vertical,vertical,1,0.752937169075012,red,1,3,684.232422566416,827.206663668034,661.117046071168,386.139005173917,684.232422566416,827.206663668034,1054.65053136242,586.654331158049,661.117046071168,386.139005173917,0,0,0,0,0,0,4,3,6,NaN,NaN,NaN,vertical,horizontal,horizontal,none,none,none
1a,8,100141,3,47,175,22,F,NA,variable,heterogeneous,3,absent,0.638760089874268,1,horizontal,horizontal,1,0.89410994052887,red,1,NaN,583.747735480111,735.129412379467,NaN,NaN,583.747735480111,735.129412379467,1025.15163617903,719.715248510402,791.100628340862,345.155339110131,0,0,0,0,0,0,4,3,6,NaN,NaN,NaN,horizontal,vertical,horizontal,none,none,none
1a,8,100141,3,48,176,22,F,NA,variable,heterogeneous,4,absent,1.44380021095276,1,horizontal,horizontal,1,0.611764397621155,green,2,NaN,1048.46436652023,542.637481142314,NaN,NaN,857.362518857686,848.464366520235,1048.46436652023,542.637481142314,742.637481142314,351.535633479765,551.535633479765,657.362518857686,0,0,0,0,3,4,6,5,NaN,NaN,horizontal,horizontal,horizontal,vertical,none,none
1a,8,100141,3,49,177,22,F,NA,variable,heterogeneous,5,absent,1.53139901161194,1,horizontal,horizontal,1,0.752937169075012,green,1,NaN,935.129412379467,816.252264519889,NaN,NaN,935.129412379467,816.252264519889,1047.42541020038,538.309916622085,817.787900804752,345.621167183745,563.568117085469,504.475318678942,636.089159529932,795.341332995339,0,0,4,5,6,0,6,NaN,horizontal,vertical,horizontal,vertical,vertical,none
1a,8,100141,3,50,178,22,F,NA,variable,heterogeneous,6,absent,0.735203981399536,1,vertical,vertical,1,0.694115180969238,red,1,NaN,700.363562235235,834.728737630372,NaN,NaN,700.363562235235,834.728737630372,953.462830903772,803.65205506206,1053.09926866854,568.923317431687,899.636437764765,365.271262369628,646.537169096228,396.34794493794,546.900731331463,631.076682568313,4,6,0,5,3,5,vertical,horizontal,horizontal,horizontal,horizontal,horizontal
1a,8,100141,3,51,179,22,F,NA,variable,heterogeneous,3,present,0.901798009872437,1,vertical,vertical,1,0.917638735771179,green,2,3,1023.02802532055,723.626453162816,795.549636358493,345.03883773512,581.422338320961,731.334709102064,1023.02802532055,723.626453162816,795.549636358493,345.03883773512,0,0,0,0,0,0,5,4,3,NaN,NaN,NaN,horizontal,vertical,vertical,none,none,none
1a,8,100141,3,52,180,22,F,NA,variable,heterogeneous,6,absent,1.06479406356812,1,horizontal,horizontal,1,0.929403133392334,green,6,NaN,570.807518193712,711.784642431215,NaN,NaN,782.212099195248,854.378832816255,1011.40458100154,742.594190385041,1029.19248180629,488.215357568785,817.787900804752,345.621167183745,588.595418998464,457.40580961496,570.807518193712,711.784642431215,3,5,0,6,5,4,vertical,horizontal,vertical,horizontal,vertical,horizontal
1a,8,100141,3,53,181,22,F,NA,variable,heterogeneous,5,absent,0.820933818817139,1,horizontal,horizontal,1,0.647057590484619,green,2,NaN,1051.12597701811,555.719714694933,NaN,NaN,919.715248510402,825.151636179026,1051.12597701811,555.719714694933,835.489140744817,347.4816424709,570.807518193712,488.215357568785,622.862115532956,783.431649086356,0,0,5,4,5,3,3,NaN,vertical,horizontal,horizontal,horizontal,vertical,none
1a,8,100141,3,54,182,22,F,NA,variable,heterogeneous,4,present,0.823881864547729,1,vertical,vertical,1,0.917638735771179,green,4,2,616.568350913644,777.137884467044,983.431649086356,422.862115532956,977.137884467044,783.431649086356,983.431649086356,422.862115532956,622.862115532956,416.568350913644,616.568350913644,777.137884467044,0,0,0,0,3,5,3,4,NaN,NaN,horizontal,horizontal,vertical,vertical,none,none
1a,8,100141,3,55,183,22,F,NA,variable,heterogeneous,4,present,0.846366167068481,1,horizontal,horizontal,1,1.0941047000885,green,2,4,992.450942956807,432.704947607421,607.549057043193,767.295052392579,967.295052392579,792.450942956807,992.450942956807,432.704947607421,632.704947607421,407.549057043193,607.549057043193,767.295052392579,0,0,0,0,6,4,5,3,NaN,NaN,vertical,horizontal,horizontal,horizontal,none,none
1a,8,100141,3,56,184,22,F,NA,variable,heterogeneous,4,present,0.867547035217285,1,vertical,vertical,1,0.799994759559631,red,1,2,692.232343256122,831.108485694346,1031.10848569435,707.767656743878,692.232343256122,831.108485694346,1031.10848569435,707.767656743878,907.767656743878,368.891514305654,568.891514305654,492.232343256122,0,0,0,0,4,6,0,3,NaN,NaN,vertical,vertical,horizontal,horizontal,none,none
1a,8,100141,3,57,185,22,F,NA,variable,heterogeneous,5,absent,1.08083319664001,1,vertical,vertical,1,0.788230361938477,red,3,NaN,1034.72873763037,500.363562235235,NaN,NaN,668.665290897936,818.577661679039,967.295052392579,792.450942956807,1034.72873763037,500.363562235235,777.775285599347,345.970351986605,551.535633479765,542.637481142314,0,0,5,6,4,0,0,NaN,horizontal,vertical,vertical,horizontal,vertical,none
1a,8,100141,3,58,186,22,F,NA,variable,heterogeneous,4,absent,0.681637048721313,1,horizontal,horizontal,1,0.952931928634644,red,1,NaN,629.371695378491,789.501930496736,NaN,NaN,629.371695378491,789.501930496736,989.501930496736,770.628304621509,970.628304621509,410.498069503264,610.498069503264,429.371695378491,0,0,0,0,4,6,0,3,NaN,NaN,horizontal,horizontal,vertical,vertical,none,none
1a,8,100141,3,59,187,22,F,NA,variable,heterogeneous,5,present,0.637216091156006,1,vertical,vertical,1,1.0941047000885,red,5,3,546.39691668109,573.345241866748,1020.83647796503,472.5,696.282156015671,832.954091698863,989.501930496736,770.628304621509,1020.83647796503,472.5,746.982518841471,350.57236181288,546.39691668109,573.345241866748,0,0,0,5,6,6,4,NaN,vertical,vertical,horizontal,vertical,vertical,none
1a,8,100141,3,60,188,22,F,NA,variable,heterogeneous,6,present,0.815070152282715,1,horizontal,horizontal,1,0.917638735771179,green,5,4,626.090418184063,413.504806087112,874.554784704298,356.142287229426,725.445215295702,843.857712770574,973.909581815937,786.495193912888,1048.46436652023,542.637481142314,874.554784704298,356.142287229426,626.090418184063,413.504806087112,551.535633479765,657.362518857686,5,6,6,0,4,0,vertical,horizontal,vertical,vertical,horizontal,horizontal
1a,8,100141,3,61,189,22,F,NA,variable,heterogeneous,4,absent,0.738250970840454,1,horizontal,horizontal,1,0.647057590484619,green,2,NaN,1054.84466088987,608.899371659138,NaN,NaN,791.100628340862,854.844660889869,1054.84466088987,608.899371659138,808.899371659138,345.155339110131,545.155339110131,591.100628340862,0,0,0,0,5,4,6,3,NaN,NaN,horizontal,horizontal,horizontal,horizontal,none,none
1a,8,100141,3,62,190,22,F,NA,variable,heterogeneous,4,present,0.741238832473755,1,vertical,vertical,1,0.6,green,1,3,942.594190385041,811.404581001536,657.405809614959,388.595418998464,942.594190385041,811.404581001536,1011.40458100154,457.40580961496,657.405809614959,388.595418998464,588.595418998464,742.594190385041,0,0,0,0,4,0,3,5,NaN,NaN,vertical,horizontal,horizontal,horizontal,none,none
1a,8,100141,3,63,191,22,F,NA,variable,heterogeneous,5,present,0.928055047988892,1,horizontal,horizontal,1,0.788230361938477,red,2,1,1052.5183575291,635.489140744817,844.280285305067,851.125977018113,844.280285305067,851.125977018113,1052.5183575291,635.489140744817,911.784642431215,370.807518193712,616.568350913644,422.862115532956,574.848363820974,719.715248510402,0,0,0,4,3,0,5,NaN,vertical,horizontal,vertical,horizontal,vertical,none
1a,8,100141,3,64,192,22,F,NA,variable,heterogeneous,3,absent,1.33853697776794,1,horizontal,horizontal,1,0.6,green,1,NaN,708.616172865948,838.063008756786,NaN,NaN,708.616172865948,838.063008756786,1051.86052685176,560.109211414741,639.523300282292,401.827779828472,0,0,0,0,0,0,4,6,3,NaN,NaN,NaN,horizontal,vertical,horizontal,none,none,none
1a,8,100141,4,1,193,22,F,NA,variable,heterogeneous,4,absent,0.924025058746338,1,vertical,vertical,1,0.62352879524231,green,2,NaN,1034.72873763037,500.363562235235,NaN,NaN,899.636437764765,834.728737630372,1034.72873763037,500.363562235235,700.363562235235,365.271262369628,565.271262369628,699.636437764765,0,0,0,0,5,4,6,5,NaN,NaN,vertical,vertical,vertical,vertical,none,none
1a,8,100141,4,2,194,22,F,NA,variable,heterogeneous,5,absent,0.992711067199707,1,horizontal,horizontal,1,0.905874338150024,green,3,NaN,973.909581815937,413.504806087112,NaN,NaN,768.923317431687,853.099268668537,1031.10848569435,707.767656743878,973.909581815937,413.504806087112,676.373546837184,376.971974679454,549.685068220846,648.656293821019,0,0,6,5,4,6,3,NaN,horizontal,horizontal,horizontal,vertical,vertical,none
1a,8,100141,4,3,195,22,F,NA,variable,heterogeneous,3,present,0.905580043792725,1,vertical,vertical,1,0.847052350044251,red,2,3,835.489140744817,347.4816424709,563.568117085469,695.524681321058,1000.94274216971,756.993676208043,835.489140744817,347.4816424709,563.568117085469,695.524681321058,0,0,0,0,0,0,5,4,3,NaN,NaN,NaN,vertical,vertical,horizontal,none,none,none
1a,8,100141,4,4,196,22,F,NA,variable,heterogeneous,5,present,0.917464971542358,1,horizontal,horizontal,1,1.07057590484619,red,2,1,1046.31108570371,534.001143498857,938.882953928832,813.860994826083,938.882953928832,813.860994826083,1046.31108570371,534.001143498857,813.345668841951,345.349468637584,561.936991243214,508.616172865948,639.523300282292,798.172220171528,0,0,3,4,3,5,6,NaN,horizontal,horizontal,vertical,vertical,vertical,none
1a,8,100141,4,5,197,22,F,NA,variable,heterogeneous,4,present,0.748970031738281,1,vertical,vertical,1,0.647057590484619,red,2,3,986.495193912888,426.090418184063,626.090418184063,413.504806087112,973.909581815937,786.495193912888,986.495193912888,426.090418184063,626.090418184063,413.504806087112,613.504806087112,773.909581815937,0,0,0,0,6,4,3,0,NaN,NaN,vertical,vertical,vertical,horizontal,none,none
1a,8,100141,4,6,198,22,F,NA,variable,heterogeneous,4,present,0.702038049697876,1,vertical,vertical,1,0.89410994052887,green,4,1,545.970351986605,622.224714400653,822.224714400653,854.029648013395,822.224714400653,854.029648013395,1054.0296480134,577.775285599347,777.775285599347,345.970351986605,545.970351986605,622.224714400653,0,0,0,0,3,3,0,4,NaN,NaN,horizontal,vertical,horizontal,vertical,none,none
1a,8,100141,4,7,199,22,F,NA,variable,heterogeneous,5,absent,0.884544134140015,1,vertical,vertical,1,0.647057590484619,red,3,NaN,919.715248510402,374.848363820974,NaN,NaN,835.489140744817,852.518357529101,1051.12597701811,644.280285305067,919.715248510402,374.848363820974,622.862115532956,416.568350913644,570.807518193712,711.784642431215,0,0,0,5,4,3,6,NaN,horizontal,horizontal,vertical,horizontal,horizontal,none
1a,8,100141,4,8,200,22,F,NA,variable,heterogeneous,4,present,0.642069101333618,1,horizontal,horizontal,1,0.741172771453857,red,1,2,970.628304621509,789.501930496736,989.501930496736,429.371695378491,970.628304621509,789.501930496736,989.501930496736,429.371695378491,629.371695378491,410.498069503264,610.498069503264,770.628304621509,0,0,0,0,4,3,6,0,NaN,NaN,horizontal,vertical,horizontal,horizontal,none,none
1a,8,100141,4,9,201,22,F,NA,variable,heterogeneous,3,absent,0.719588994979858,1,vertical,vertical,1,1.03528271198273,red,1,NaN,676.373546837184,823.028025320546,NaN,NaN,676.373546837184,823.028025320546,1054.96116226488,595.549636358493,668.665290897936,381.422338320961,0,0,0,0,0,0,4,3,3,NaN,NaN,NaN,vertical,vertical,horizontal,none,none,none
1a,8,100141,4,10,202,22,F,NA,variable,heterogeneous,3,absent,0.835708141326904,1,horizontal,horizontal,1,0.705879578590393,red,3,NaN,599.057257830286,443.006323791957,NaN,NaN,764.510859255183,852.518357529101,1036.43188291453,504.475318678942,599.057257830286,443.006323791957,0,0,0,0,0,0,6,6,4,NaN,NaN,NaN,horizontal,horizontal,horizontal,none,none,none
1a,8,100141,4,11,203,22,F,NA,variable,heterogeneous,5,present,0.646011114120483,1,vertical,vertical,1,0.847052350044251,red,4,3,583.747735480111,464.870587620533,861.690083377915,352.574589799621,895.524681321058,836.431882914531,1054.37883281626,582.212099195248,861.690083377915,352.574589799621,583.747735480111,464.870587620533,604.658667004661,763.910840470068,0,0,3,6,3,4,5,NaN,horizontal,vertical,horizontal,vertical,vertical,none
1a,8,100141,4,12,204,22,F,NA,variable,heterogeneous,6,present,0.862115859985352,1,horizontal,horizontal,1,0.741172771453857,green,6,4,548.13947314824,639.890788585259,891.383827134052,361.936991243214,708.616172865948,838.063008756786,960.476699717708,798.172220171528,1051.86052685176,560.109211414741,891.383827134052,361.936991243214,639.523300282292,401.827779828472,548.13947314824,639.890788585259,5,3,6,3,6,4,horizontal,horizontal,vertical,vertical,horizontal,horizontal
1a,8,100141,4,13,205,22,F,NA,variable,heterogeneous,3,present,0.893190145492554,1,vertical,vertical,1,0.682350783348084,green,1,2,664.870587620533,816.252264519889,1054.84466088987,608.899371659138,664.870587620533,816.252264519889,1054.84466088987,608.899371659138,680.284751489598,374.848363820974,0,0,0,0,0,0,4,5,6,NaN,NaN,NaN,vertical,horizontal,vertical,none,none,none
1a,8,100141,4,14,206,22,F,NA,variable,heterogeneous,5,absent,0.803902864456177,1,vertical,vertical,1,1.02351831436157,green,3,NaN,861.690083377915,352.574589799621,NaN,NaN,895.524681321058,836.431882914531,1054.37883281626,582.212099195248,861.690083377915,352.574589799621,583.747735480111,464.870587620533,604.658667004661,763.910840470068,0,0,5,6,4,5,3,NaN,horizontal,horizontal,vertical,vertical,vertical,none
1a,8,100141,4,15,207,22,F,NA,variable,heterogeneous,4,present,0.602813959121704,1,vertical,vertical,1,0.941167531013489,red,4,3,545.03883773512,595.549636358493,804.450363641507,345.03883773512,795.549636358493,854.96116226488,1054.96116226488,604.450363641507,804.450363641507,345.03883773512,545.03883773512,595.549636358493,0,0,0,0,0,3,5,4,NaN,NaN,vertical,horizontal,vertical,vertical,none,none
1a,8,100141,4,16,208,22,F,NA,variable,heterogeneous,5,absent,0.739414930343628,1,vertical,vertical,1,0.611764397621155,green,2,NaN,1016.25226451989,735.129412379467,NaN,NaN,738.309916622085,847.425410200379,1016.25226451989,735.129412379467,995.341332995339,436.089159529932,704.475318678942,363.568117085469,545.621167183745,617.787900804752,0,0,3,4,0,3,5,NaN,vertical,vertical,horizontal,horizontal,horizontal,none
1a,8,100141,4,17,209,22,F,NA,variable,heterogeneous,3,present,0.826349973678589,1,horizontal,horizontal,1,1.01175391674042,green,2,3,977.137884467044,416.568350913644,552.574589799621,538.309916622085,870.287525733335,845.121732464271,977.137884467044,416.568350913644,552.574589799621,538.309916622085,0,0,0,0,0,0,3,4,5,NaN,NaN,NaN,vertical,horizontal,vertical,none,none,none
1a,8,100141,4,18,210,22,F,NA,variable,heterogeneous,3,absent,0.590843915939331,1,vertical,vertical,1,0.999989519119263,green,1,NaN,949.885239334581,806.299333565612,NaN,NaN,949.885239334581,806.299333565612,903.717843984329,367.045908301137,546.39691668109,626.654758133252,0,0,0,0,0,0,4,5,3,NaN,NaN,NaN,vertical,horizontal,vertical,none,none,none
1a,8,100141,4,19,211,22,F,NA,variable,heterogeneous,4,absent,0.70279598236084,1,vertical,vertical,1,0.776465964317322,green,3,NaN,773.345241866748,346.39691668109,NaN,NaN,826.654758133252,853.60308331891,1053.60308331891,573.345241866748,773.345241866748,346.39691668109,546.39691668109,626.654758133252,0,0,0,0,0,6,4,5,NaN,NaN,horizontal,vertical,vertical,horizontal,none,none
1a,8,100141,4,20,212,22,F,NA,variable,heterogeneous,5,present,1.15743803977966,1,horizontal,horizontal,1,0.823523554801941,green,1,3,804.450363641507,854.96116226488,946.261991269517,391.116228706307,804.450363641507,854.96116226488,1043.85771277057,674.554784704298,946.261991269517,391.116228706307,646.537169096228,396.34794493794,558.892763222174,683.019879386575,0,0,4,6,6,0,5,NaN,horizontal,vertical,vertical,vertical,vertical,none
1a,8,100141,4,21,213,22,F,NA,variable,heterogeneous,5,absent,1.16888308525085,1,horizontal,horizontal,1,0.823523554801941,red,1,NaN,878.799333565612,842.519411655264,NaN,NaN,878.799333565612,842.519411655264,1055,600,878.799333565612,357.480588344736,593.700666434388,450.114760665419,593.700666434388,749.885239334581,0,0,4,0,5,6,6,NaN,horizontal,horizontal,vertical,horizontal,vertical,none
1a,8,100141,4,22,214,22,F,NA,variable,heterogeneous,4,absent,0.7433180809021,1,vertical,vertical,1,0.752937169075012,red,3,NaN,953.462830903772,396.34794493794,NaN,NaN,646.537169096228,803.65205506206,1003.65205506206,753.462830903772,953.462830903772,396.34794493794,596.34794493794,446.537169096228,0,0,0,0,3,5,4,0,NaN,NaN,horizontal,horizontal,vertical,horizontal,none,none
1a,8,100141,4,23,215,22,F,NA,variable,heterogeneous,6,present,1.01757788658142,1,vertical,vertical,1,0.717643976211548,green,1,5,700.363562235235,834.728737630372,646.537169096228,396.34794493794,700.363562235235,834.728737630372,953.462830903772,803.65205506206,1053.09926866854,568.923317431687,899.636437764765,365.271262369628,646.537169096228,396.34794493794,546.900731331463,631.076682568313,4,3,3,5,5,6,vertical,horizontal,horizontal,vertical,horizontal,vertical
1a,8,100141,4,24,216,22,F,NA,variable,heterogeneous,5,absent,0.784841775894165,1,vertical,vertical,1,0.776465964317322,red,3,NaN,986.495193912888,426.090418184063,NaN,NaN,751.343706178981,850.314931779154,1023.02802532055,723.626453162816,986.495193912888,426.090418184063,692.232343256122,368.891514305654,546.900731331463,631.076682568313,0,0,3,6,4,6,0,NaN,vertical,vertical,vertical,horizontal,horizontal,none
1a,8,100141,4,25,217,22,F,NA,variable,heterogeneous,4,absent,0.658753156661987,1,vertical,vertical,1,1.08234030246735,red,3,NaN,746.982518841471,350.57236181288,NaN,NaN,853.017481158529,849.42763818712,1049.42763818712,546.982518841471,746.982518841471,350.57236181288,550.57236181288,653.017481158529,0,0,0,0,6,3,4,6,NaN,NaN,horizontal,horizontal,vertical,horizontal,none,none
1a,8,100141,4,26,218,22,F,NA,variable,heterogeneous,6,present,0.846210956573486,1,horizontal,horizontal,1,0.917638735771179,red,1,6,755.719714694933,851.125977018113,560.378381699593,687.215136548046,755.719714694933,851.125977018113,995.341332995339,763.910840470068,1039.62161830041,512.784863451954,844.280285305067,348.874022981887,604.658667004661,436.089159529932,560.378381699593,687.215136548046,4,3,6,3,0,5,horizontal,vertical,horizontal,vertical,horizontal,horizontal
1a,8,100141,4,27,219,22,F,NA,variable,heterogeneous,5,present,0.893625020980835,1,vertical,vertical,1,1.0941047000885,red,5,4,545,600,721.200666434388,357.480588344736,721.200666434388,842.519411655264,1006.29933356561,749.885239334581,1006.29933356561,450.114760665419,721.200666434388,357.480588344736,545,600,0,0,6,6,3,3,4,NaN,horizontal,horizontal,vertical,vertical,vertical,none
1a,8,100141,4,28,220,22,F,NA,variable,heterogeneous,3,present,0.920032978057861,1,horizontal,horizontal,1,0.811759157180786,green,1,2,878.799333565612,842.519411655264,970.628304621509,410.498069503264,878.799333565612,842.519411655264,970.628304621509,410.498069503264,550.57236181288,546.982518841471,0,0,0,0,0,0,4,6,5,NaN,NaN,NaN,horizontal,horizontal,vertical,none,none,none
1a,8,100141,4,29,221,22,F,NA,variable,heterogeneous,5,present,0.859266042709351,1,vertical,vertical,1,1.03528271198273,green,5,4,548.13947314824,639.890788585259,684.232422566416,372.793336331966,760.109211414741,851.86052685176,1027.20666366803,715.767577433584,980.31222920257,419.68777079743,684.232422566416,372.793336331966,548.13947314824,639.890788585259,0,0,5,0,3,0,4,NaN,horizontal,vertical,vertical,vertical,vertical,none
1a,8,100141,4,30,222,22,F,NA,variable,heterogeneous,6,absent,1.24422812461853,1,vertical,vertical,1,0.776465964317322,red,1,NaN,721.200666434388,842.519411655264,NaN,NaN,721.200666434388,842.519411655264,970.628304621509,789.501930496736,1049.42763818712,546.982518841471,878.799333565612,357.480588344736,629.371695378491,410.498069503264,550.57236181288,653.017481158529,4,3,6,3,5,0,vertical,horizontal,horizontal,vertical,horizontal,horizontal
1a,8,100141,4,31,223,22,F,NA,variable,heterogeneous,3,absent,0.850917100906372,1,horizontal,horizontal,1,0.682350783348084,green,1,NaN,822.224714400653,854.029648013395,NaN,NaN,822.224714400653,854.029648013395,1008.88377129369,453.738008730483,568.891514305654,492.232343256122,0,0,0,0,0,0,4,3,6,NaN,NaN,NaN,horizontal,vertical,horizontal,none,none,none
1a,8,100141,4,32,224,22,F,NA,variable,heterogeneous,5,absent,1.02370595932007,1,horizontal,horizontal,1,0.776465964317322,green,4,NaN,558.892763222174,516.980120613425,NaN,NaN,946.261991269517,808.883771293693,1043.85771277057,525.445215295702,804.450363641507,345.03883773512,558.892763222174,516.980120613425,646.537169096228,803.65205506206,0,0,3,0,6,4,3,NaN,vertical,vertical,horizontal,horizontal,vertical,none
1a,8,100141,4,33,225,22,F,NA,variable,heterogeneous,6,absent,0.759181022644043,1,horizontal,horizontal,1,0.941167531013489,red,5,NaN,570.807518193712,488.215357568785,NaN,NaN,817.787900804752,854.378832816255,1029.19248180629,711.784642431215,1011.40458100154,457.40580961496,782.212099195248,345.621167183745,570.807518193712,488.215357568785,588.595418998464,742.594190385041,6,5,3,5,4,0,vertical,vertical,horizontal,vertical,horizontal,vertical
1a,8,100141,4,34,226,22,F,NA,variable,heterogeneous,6,absent,1.28727698326111,1,vertical,vertical,1,0.835287952423096,green,2,NaN,980.31222920257,780.31222920257,NaN,NaN,734.001143498857,846.311085703712,980.31222920257,780.31222920257,1046.31108570371,534.001143498857,865.998856501143,353.688914296288,619.68777079743,419.68777079743,553.688914296288,665.998856501143,5,4,0,3,6,0,vertical,vertical,vertical,horizontal,vertical,vertical
1a,8,100141,4,35,227,22,F,NA,variable,heterogeneous,4,absent,0.639830112457275,1,horizontal,horizontal,1,0.729408373832703,green,2,NaN,1036.43188291453,504.475318678942,NaN,NaN,895.524681321058,836.431882914531,1036.43188291453,504.475318678942,704.475318678942,363.568117085469,563.568117085469,695.524681321058,0,0,0,0,0,4,5,3,NaN,NaN,horizontal,horizontal,horizontal,horizontal,none,none
1a,8,100141,4,36,228,22,F,NA,variable,heterogeneous,3,absent,0.620038986206055,1,horizontal,horizontal,1,0.764701566696167,green,2,NaN,1054.65053136242,613.345668841951,NaN,NaN,661.117046071168,813.860994826083,1054.65053136242,613.345668841951,684.232422566416,372.793336331966,0,0,0,0,0,0,0,4,5,NaN,NaN,NaN,horizontal,horizontal,vertical,none,none,none
1a,8,100141,4,37,229,22,F,NA,variable,heterogeneous,3,present,0.89715313911438,1,vertical,vertical,1,0.635293192863464,red,2,3,989.501930496736,429.371695378491,557.480588344736,521.200666434388,853.017481158529,849.42763818712,989.501930496736,429.371695378491,557.480588344736,521.200666434388,0,0,0,0,0,0,6,4,5,NaN,NaN,NaN,vertical,vertical,horizontal,none,none,none
1a,8,100141,4,38,230,22,F,NA,variable,heterogeneous,6,absent,1.71237993240356,1,horizontal,horizontal,1,0.647057590484619,green,5,NaN,626.090418184063,413.504806087112,NaN,NaN,725.445215295702,843.857712770574,973.909581815937,786.495193912888,1048.46436652023,542.637481142314,874.554784704298,356.142287229426,626.090418184063,413.504806087112,551.535633479765,657.362518857686,5,6,6,0,4,3,vertical,horizontal,vertical,vertical,horizontal,vertical
1a,8,100141,4,39,231,22,F,NA,variable,heterogeneous,6,present,0.908010959625244,1,vertical,vertical,1,1.07057590484619,red,3,4,1045.12173246427,529.712474266665,861.690083377915,352.574589799621,738.309916622085,847.425410200379,983.431649086356,777.137884467044,1045.12173246427,529.712474266665,861.690083377915,352.574589799621,616.568350913644,422.862115532956,554.878267535729,670.287525733335,3,0,4,6,3,0,vertical,vertical,vertical,vertical,horizontal,horizontal
1a,8,100141,4,40,232,22,F,NA,variable,heterogeneous,4,absent,1.11650490760803,1,horizontal,horizontal,1,0.776465964317322,red,1,NaN,813.345668841951,854.650531362416,NaN,NaN,813.345668841951,854.650531362416,1054.65053136242,586.654331158049,786.654331158049,345.349468637584,545.349468637584,613.345668841951,0,0,0,0,4,3,3,5,NaN,NaN,horizontal,horizontal,vertical,horizontal,none,none
1a,8,100141,4,41,233,22,F,NA,variable,heterogeneous,3,absent,0.728028059005737,1,vertical,vertical,1,0.764701566696167,green,1,NaN,672.5,820.836477965032,NaN,NaN,672.5,820.836477965032,1055,600,672.5,379.163522034968,0,0,0,0,0,0,4,0,3,NaN,NaN,NaN,vertical,vertical,horizontal,none,none,none
1a,8,100141,4,42,234,22,F,NA,variable,heterogeneous,4,absent,0.807452917098999,1,horizontal,horizontal,1,0.635293192863464,red,3,NaN,639.523300282292,401.827779828472,NaN,NaN,960.476699717708,798.172220171528,998.172220171528,439.523300282291,639.523300282292,401.827779828472,601.827779828472,760.476699717708,0,0,0,0,6,0,4,3,NaN,NaN,vertical,horizontal,horizontal,vertical,none,none
1a,8,100141,4,43,235,22,F,NA,variable,heterogeneous,5,present,0.897413969039917,1,vertical,vertical,1,1.08234030246735,green,2,5,963.910840470068,795.341332995339,552.574589799621,538.309916622085,664.870587620533,816.252264519889,963.910840470068,795.341332995339,1036.43188291453,504.475318678942,782.212099195248,345.621167183745,552.574589799621,538.309916622085,0,0,0,4,0,3,3,NaN,horizontal,vertical,vertical,horizontal,horizontal,none
1a,8,100141,4,44,236,22,F,NA,variable,heterogeneous,3,present,0.814872980117798,1,horizontal,horizontal,1,0.647057590484619,red,1,2,967.295052392579,792.450942956807,883.019879386575,358.892763222174,967.295052392579,792.450942956807,883.019879386575,358.892763222174,549.685068220846,648.656293821019,0,0,0,0,0,0,4,3,6,NaN,NaN,NaN,horizontal,vertical,horizontal,none,none,none
1a,8,100141,4,45,237,22,F,NA,variable,heterogeneous,6,absent,1.21799802780151,1,vertical,vertical,1,1.04704710960388,red,5,NaN,574.848363820974,480.284751489598,NaN,NaN,808.899371659138,854.844660889869,1025.15163617903,719.715248510402,1016.25226451989,464.870587620533,791.100628340862,345.155339110131,574.848363820974,480.284751489598,583.747735480111,735.129412379467,0,5,0,5,4,6,vertical,vertical,vertical,horizontal,vertical,vertical
1a,8,100141,4,46,238,22,F,NA,variable,heterogeneous,3,absent,0.564271926879883,1,horizontal,horizontal,1,1.0941047000885,red,2,NaN,1042.51941165526,678.799333565612,NaN,NaN,610.498069503264,770.628304621509,1042.51941165526,678.799333565612,746.982518841471,350.57236181288,0,0,0,0,0,0,0,4,3,NaN,NaN,NaN,horizontal,horizontal,horizontal,none,none,none
1a,8,100141,4,47,239,22,F,NA,variable,heterogeneous,6,present,1.50926780700684,1,horizontal,horizontal,1,1.07057590484619,green,2,5,1054.0296480134,622.224714400653,545.970351986605,577.775285599347,907.767656743878,831.108485694346,1054.0296480134,622.224714400653,946.261991269517,391.116228706307,692.232343256122,368.891514305654,545.970351986605,577.775285599347,653.738008730483,808.883771293693,5,4,0,0,6,3,vertical,horizontal,vertical,horizontal,horizontal,horizontal
1a,8,100141,4,48,240,22,F,NA,variable,heterogeneous,6,present,0.704653978347778,1,vertical,vertical,1,1.04704710960388,green,2,1,1055,600,927.5,820.836477965032,927.5,820.836477965032,1055,600,927.5,379.163522034968,672.5,379.163522034968,545,600,672.5,820.836477965032,6,4,6,5,3,5,horizontal,vertical,horizontal,vertical,horizontal,vertical
1a,8,100141,4,49,241,22,F,NA,variable,heterogeneous,3,present,0.729651927947998,1,horizontal,horizontal,1,0.952931928634644,red,3,1,791.100628340862,345.155339110131,583.747735480111,735.129412379467,583.747735480111,735.129412379467,1025.15163617903,719.715248510402,791.100628340862,345.155339110131,0,0,0,0,0,0,0,6,4,NaN,NaN,NaN,horizontal,vertical,horizontal,none,none,none
1a,8,100141,4,50,242,22,F,NA,variable,heterogeneous,6,absent,0.94516396522522,1,horizontal,horizontal,1,0.611764397621155,red,5,NaN,610.498069503264,429.371695378491,NaN,NaN,746.982518841471,849.42763818712,989.501930496736,770.628304621509,1042.51941165526,521.200666434388,853.017481158529,350.57236181288,610.498069503264,429.371695378491,557.480588344736,678.799333565612,6,0,5,3,4,0,vertical,vertical,vertical,vertical,horizontal,vertical
1a,8,100141,4,51,243,22,F,NA,variable,heterogeneous,4,present,0.626144886016846,1,horizontal,horizontal,1,1.0941047000885,red,4,1,545.621167183745,617.787900804752,817.787900804752,854.378832816255,817.787900804752,854.378832816255,1054.37883281626,582.212099195248,782.212099195248,345.621167183745,545.621167183745,617.787900804752,0,0,0,0,6,0,3,4,NaN,NaN,horizontal,vertical,vertical,horizontal,none,none
1a,8,100141,4,52,244,22,F,NA,variable,heterogeneous,3,absent,0.582818984985352,1,vertical,vertical,1,0.799994759559631,red,1,NaN,953.462830903772,803.65205506206,NaN,NaN,953.462830903772,803.65205506206,899.636437764765,365.271262369628,546.900731331463,631.076682568313,0,0,0,0,0,0,4,6,0,NaN,NaN,NaN,vertical,horizontal,vertical,none,none,none
1a,8,100141,4,53,245,22,F,NA,variable,heterogeneous,6,absent,0.8924880027771,1,horizontal,horizontal,1,0.89410994052887,green,3,NaN,1032.95409169886,496.282156015671,NaN,NaN,773.345241866748,853.60308331891,1006.29933356561,749.885239334581,1032.95409169886,496.282156015671,826.654758133252,346.39691668109,593.700666434388,450.114760665419,567.045908301137,703.717843984329,3,0,4,5,3,5,vertical,vertical,horizontal,horizontal,vertical,vertical
1a,8,100141,4,54,246,22,F,NA,variable,heterogeneous,3,present,0.770745992660522,1,vertical,vertical,1,0.811759157180786,green,3,1,786.654331158049,345.349468637584,586.139005173917,738.882953928832,586.139005173917,738.882953928832,1027.20666366803,715.767577433584,786.654331158049,345.349468637584,0,0,0,0,0,0,6,3,4,NaN,NaN,NaN,horizontal,horizontal,vertical,none,none,none
