experiment,subject,uniqueID,block,trial,trial_cumulative,age,gender,color_cond_blocking,color_history,shape_type,set_size,distractor,rt,acc,target_orient,response_key,response_made,iti,target_color,target_item,distractor_item,target_X,target_Y,distractor_X,distractor_Y,item1_X,item1_Y,item2_X,item2_Y,item3_X,item3_Y,item4_X,item4_Y,item5_X,item5_Y,item6_X,item6_Y,item1_shape,item2_shape,item3_shape,item4_shape,item5_shape,item6_shape,item1_line,item2_line,item3_line,item4_line,item5_line,item6_line
1a,9,100106,1,1,1,19,F,NA,variable,heterogeneous,5,absent,1.81883716583252,0,horizontal,vertical,1,0.870580692111321,green,4,NaN,700.363562235235,365.271262369628,NaN,NaN,742.637481142314,848.464366520235,1018.57766167904,731.334709102064,992.450942956807,432.704947607421,700.363562235235,365.271262369628,545.970351986605,622.224714400653,0,0,5,0,3,4,3,NaN,horizontal,vertical,horizontal,horizontal,vertical,none
1a,9,100106,1,2,2,19,F,NA,variable,heterogeneous,3,present,1.2038938999176,1,horizontal,horizontal,1,0.647057511671534,green,3,1,613.504806087112,426.090418184063,742.637481142314,848.464366520235,742.637481142314,848.464366520235,1043.85771277057,525.445215295702,613.504806087112,426.090418184063,0,0,0,0,0,0,3,5,4,NaN,NaN,NaN,vertical,horizontal,horizontal,none,none,none
1a,9,100106,1,3,3,19,F,NA,variable,heterogeneous,3,absent,1.51611018180847,0,horizontal,vertical,1,0.988224471290156,red,1,NaN,782.212099195248,854.378832816255,NaN,NaN,782.212099195248,854.378832816255,1029.19248180629,488.215357568785,588.595418998464,457.40580961496,0,0,0,0,0,0,4,0,3,NaN,NaN,NaN,horizontal,vertical,horizontal,none,none,none
1a,9,100106,1,4,4,19,F,NA,variable,heterogeneous,6,present,1.32305097579956,0,vertical,horizontal,1,1.02351760504381,red,5,4,650.114760665419,393.700666434388,903.717843984329,367.045908301137,696.282156015671,832.954091698863,949.885239334581,806.299333565612,1053.60308331891,573.345241866748,903.717843984329,367.045908301137,650.114760665419,393.700666434388,546.39691668109,626.654758133252,0,3,5,6,4,0,horizontal,horizontal,horizontal,horizontal,vertical,vertical
1a,9,100106,1,5,5,19,F,NA,variable,heterogeneous,5,present,0.94149112701416,0,horizontal,vertical,1,0.988224471290156,green,5,1,549.685068220846,648.656293821019,768.923317431687,853.099268668537,768.923317431687,853.099268668537,1031.10848569435,707.767656743878,973.909581815937,413.504806087112,676.373546837184,376.971974679454,549.685068220846,648.656293821019,0,0,0,5,3,6,4,NaN,horizontal,horizontal,horizontal,horizontal,horizontal,none
1a,9,100106,1,6,6,19,F,NA,variable,heterogeneous,5,present,1.89823794364929,0,vertical,horizontal,1,1.08233949463322,red,1,5,931.334709102064,818.577661679039,632.704947607421,792.450942956807,931.334709102064,818.577661679039,1048.46436652023,542.637481142314,822.224714400653,345.970351986605,565.271262369628,500.363562235235,632.704947607421,792.450942956807,0,0,4,6,0,0,3,NaN,vertical,vertical,vertical,vertical,vertical,none
1a,9,100106,1,7,7,19,F,NA,variable,heterogeneous,5,absent,NaN,0,vertical,none,0,0.847051936275554,red,3,NaN,844.280285305067,348.874022981887,NaN,NaN,911.784642431215,829.192481806288,1052.5183575291,564.510859255183,844.280285305067,348.874022981887,574.848363820974,480.284751489598,616.568350913644,777.137884467044,0,0,5,3,4,3,6,NaN,vertical,horizontal,vertical,horizontal,horizontal,none
1a,9,100106,1,8,8,19,F,NA,variable,heterogeneous,5,absent,0.824931144714355,1,vertical,vertical,1,0.964695715454389,red,4,NaN,773.345241866748,346.39691668109,NaN,NaN,672.5,820.836477965032,970.628304621509,789.501930496736,1032.95409169886,496.282156015671,773.345241866748,346.39691668109,550.57236181288,546.982518841471,0,0,5,6,5,4,3,NaN,horizontal,vertical,vertical,vertical,horizontal,none
1a,9,100106,1,9,9,19,F,NA,variable,heterogeneous,6,absent,1.48847818374634,0,vertical,horizontal,1,0.941166959618622,red,3,NaN,980.31222920257,419.68777079743,NaN,NaN,865.998856501143,846.311085703712,1046.31108570371,665.998856501143,980.31222920257,419.68777079743,734.001143498857,353.688914296288,553.688914296288,534.001143498857,619.68777079743,780.31222920257,0,5,4,3,0,6,horizontal,vertical,vertical,vertical,horizontal,horizontal
1a,9,100106,1,10,10,19,F,NA,variable,heterogeneous,4,present,0.802891969680786,0,vertical,horizontal,1,0.623528755835767,green,4,2,554.878267535729,529.712474266665,1045.12173246427,670.287525733335,729.712474266665,845.121732464271,1045.12173246427,670.287525733335,870.287525733335,354.878267535729,554.878267535729,529.712474266665,0,0,0,0,5,0,0,4,NaN,NaN,horizontal,horizontal,vertical,vertical,none,none
1a,9,100106,1,11,11,19,F,NA,variable,heterogeneous,6,present,NaN,0,horizontal,none,0,0.79999442460402,red,6,3,579.163522034968,727.5,1020.83647796503,472.5,800,855,1020.83647796503,727.5,1020.83647796503,472.5,800,345,579.163522034968,472.5,579.163522034968,727.5,0,6,0,3,6,4,horizontal,horizontal,vertical,vertical,vertical,horizontal
1a,9,100106,1,12,12,19,F,NA,variable,heterogeneous,3,absent,NaN,0,vertical,none,0,0.835287558357671,green,3,NaN,552.574589799621,661.690083377915,NaN,NaN,977.137884467044,783.431649086356,870.287525733335,354.878267535729,552.574589799621,661.690083377915,0,0,0,0,0,0,5,0,4,NaN,NaN,NaN,vertical,horizontal,vertical,none,none,none
1a,9,100106,1,13,13,19,F,NA,variable,heterogeneous,5,present,1.74519896507263,1,vertical,vertical,1,1.05881073879746,green,1,5,729.712474266665,845.121732464271,545.155339110131,608.899371659138,729.712474266665,845.121732464271,1011.40458100154,742.594190385041,1000.94274216971,443.006323791957,712.784863451954,360.378381699593,545.155339110131,608.899371659138,0,0,4,0,5,6,5,NaN,vertical,vertical,vertical,horizontal,vertical,none
1a,9,100106,1,14,14,19,F,NA,variable,heterogeneous,3,absent,1.176185131073,1,horizontal,horizontal,1,0.976460093372273,green,3,NaN,545.155339110131,591.100628340862,NaN,NaN,919.715248510402,825.151636179026,935.129412379467,383.747735480111,545.155339110131,591.100628340862,0,0,0,0,0,0,6,6,4,NaN,NaN,NaN,vertical,horizontal,horizontal,none,none,none
1a,9,100106,1,15,15,19,F,NA,variable,heterogeneous,5,absent,1.59771704673767,1,vertical,vertical,1,1.09410387255111,green,2,NaN,989.501930496736,770.628304621509,NaN,NaN,696.282156015671,832.954091698863,989.501930496736,770.628304621509,1020.83647796503,472.5,746.982518841471,350.57236181288,546.39691668109,573.345241866748,0,0,0,4,3,0,6,NaN,horizontal,vertical,vertical,vertical,horizontal,none
1a,9,100106,1,16,16,19,F,NA,variable,heterogeneous,4,absent,1.07460403442383,1,horizontal,horizontal,1,1.03528198296169,red,1,NaN,636.089159529932,795.341332995339,NaN,NaN,636.089159529932,795.341332995339,995.341332995339,763.910840470068,963.910840470068,404.658667004661,604.658667004661,436.089159529932,0,0,0,0,4,6,0,5,NaN,NaN,horizontal,vertical,vertical,vertical,none,none
1a,9,100106,1,17,17,19,F,NA,variable,heterogeneous,3,absent,1.75491786003113,0,horizontal,vertical,1,0.741172535014602,green,1,NaN,591.116228706307,746.261991269517,NaN,NaN,591.116228706307,746.261991269517,1031.10848569435,707.767656743878,777.775285599347,345.970351986605,0,0,0,0,0,0,4,5,6,NaN,NaN,NaN,horizontal,vertical,vertical,none,none,none
1a,9,100106,1,18,18,19,F,NA,variable,heterogeneous,6,present,1.53974294662476,0,vertical,horizontal,1,1.05881073879746,red,6,5,607.549057043193,767.295052392579,558.892763222174,516.980120613425,848.656293821019,850.314931779154,1041.10723677783,683.019879386575,992.450942956807,432.704947607421,751.343706178981,349.685068220846,558.892763222174,516.980120613425,607.549057043193,767.295052392579,0,5,5,6,6,4,vertical,horizontal,vertical,vertical,horizontal,vertical
1a,9,100106,1,19,19,19,F,NA,variable,heterogeneous,3,absent,1.86414813995361,1,vertical,vertical,1,0.858816314193438,green,3,NaN,551.535633479765,657.362518857686,NaN,NaN,973.909581815937,786.495193912888,874.554784704298,356.142287229426,551.535633479765,657.362518857686,0,0,0,0,0,0,3,6,4,NaN,NaN,NaN,horizontal,horizontal,vertical,none,none,none
1a,9,100106,1,20,20,19,F,NA,variable,heterogeneous,6,absent,1.89033198356628,1,horizontal,horizontal,1,0.847051936275554,green,3,NaN,1054.0296480134,577.775285599347,NaN,NaN,692.232343256122,831.108485694346,946.261991269517,808.883771293693,1054.0296480134,577.775285599347,907.767656743878,368.891514305654,653.738008730483,391.116228706307,545.970351986605,622.224714400653,5,6,4,0,3,3,horizontal,vertical,horizontal,vertical,vertical,horizontal
1a,9,100106,1,21,21,19,F,NA,variable,heterogeneous,3,absent,1.16775298118591,1,vertical,vertical,1,0.764701290850369,red,1,NaN,672.5,820.836477965032,NaN,NaN,672.5,820.836477965032,1055,600,672.5,379.163522034968,0,0,0,0,0,0,4,5,5,NaN,NaN,NaN,vertical,horizontal,vertical,none,none,none
1a,9,100106,1,22,22,19,F,NA,variable,heterogeneous,5,present,NaN,0,horizontal,none,0,1.01175322712592,green,4,1,586.139005173917,461.117046071168,891.383827134052,838.063008756786,891.383827134052,838.063008756786,1054.65053136242,586.654331158049,865.998856501143,353.688914296288,586.139005173917,461.117046071168,601.827779828472,760.476699717708,0,0,5,6,3,4,6,NaN,horizontal,horizontal,vertical,horizontal,vertical,none
1a,9,100106,1,23,23,19,F,NA,variable,heterogeneous,3,present,0.902139902114868,1,horizontal,horizontal,1,0.929402581700739,green,3,1,572.793336331966,484.232422566416,813.345668841951,854.650531362416,813.345668841951,854.650531362416,1013.86099482608,461.117046071168,572.793336331966,484.232422566416,0,0,0,0,0,0,6,5,4,NaN,NaN,NaN,vertical,vertical,horizontal,none,none,none
1a,9,100106,1,24,24,19,F,NA,variable,heterogeneous,4,present,1.23686003684998,1,vertical,vertical,1,0.623528755835767,red,2,1,1053.60308331891,573.345241866748,826.654758133252,853.60308331891,826.654758133252,853.60308331891,1053.60308331891,573.345241866748,773.345241866748,346.39691668109,546.39691668109,626.654758133252,0,0,0,0,3,4,6,5,NaN,NaN,horizontal,vertical,vertical,horizontal,none,none
1a,9,100106,1,25,25,19,F,NA,variable,heterogeneous,3,present,1.32465815544128,1,vertical,vertical,1,0.929402581700739,red,2,3,1048.46436652023,542.637481142314,626.090418184063,413.504806087112,725.445215295702,843.857712770574,1048.46436652023,542.637481142314,626.090418184063,413.504806087112,0,0,0,0,0,0,6,4,5,NaN,NaN,NaN,vertical,vertical,horizontal,none,none,none
1a,9,100106,1,26,26,19,F,NA,variable,heterogeneous,5,present,1.44494795799255,1,vertical,vertical,1,0.694115023343068,red,3,1,1013.86099482608,461.117046071168,708.616172865948,838.063008756786,708.616172865948,838.063008756786,998.172220171528,760.476699717708,1013.86099482608,461.117046071168,734.001143498857,353.688914296288,545.349468637584,586.654331158049,0,0,5,0,4,0,6,NaN,horizontal,horizontal,vertical,vertical,horizontal,none
1a,9,100106,1,27,27,19,F,NA,variable,heterogeneous,4,present,1.74379396438599,1,vertical,vertical,1,0.694115023343068,green,2,3,1051.86052685176,560.109211414741,760.109211414741,348.13947314824,839.890788585259,851.86052685176,1051.86052685176,560.109211414741,760.109211414741,348.13947314824,548.13947314824,639.890788585259,0,0,0,0,5,4,6,0,NaN,NaN,horizontal,vertical,vertical,horizontal,none,none
1a,9,100106,1,28,28,19,F,NA,variable,heterogeneous,3,absent,0.899605989456177,1,vertical,vertical,1,1.03528198296169,red,3,NaN,601.827779828472,439.523300282291,NaN,NaN,760.109211414741,851.86052685176,1038.06300875679,508.616172865948,601.827779828472,439.523300282291,0,0,0,0,0,0,5,0,4,NaN,NaN,NaN,vertical,horizontal,vertical,none,none,none
1a,9,100106,1,29,29,19,F,NA,variable,heterogeneous,6,absent,1.45764517784119,1,vertical,vertical,1,0.6,red,5,NaN,657.405809614959,388.595418998464,NaN,NaN,688.215357568785,829.192481806288,942.594190385041,811.404581001536,1054.37883281626,582.212099195248,911.784642431215,370.807518193712,657.405809614959,388.595418998464,545.621167183745,617.787900804752,3,5,0,5,4,6,horizontal,vertical,horizontal,horizontal,vertical,horizontal
1a,9,100106,1,30,30,19,F,NA,variable,heterogeneous,3,present,0.720993995666504,1,horizontal,horizontal,1,0.882345070029205,red,2,3,1054.37883281626,582.212099195248,657.405809614959,388.595418998464,688.215357568785,829.192481806288,1054.37883281626,582.212099195248,657.405809614959,388.595418998464,0,0,0,0,0,0,0,4,6,NaN,NaN,NaN,horizontal,horizontal,vertical,none,none,none
1a,9,100106,1,31,31,19,F,NA,variable,heterogeneous,5,absent,NaN,0,horizontal,none,0,1.02351760504381,red,1,NaN,831.076682568313,853.099268668537,NaN,NaN,831.076682568313,853.099268668537,1050.31493177915,648.656293821019,923.626453162816,376.971974679454,626.090418184063,413.504806087112,568.891514305654,707.767656743878,0,0,4,5,6,5,3,NaN,horizontal,horizontal,horizontal,horizontal,horizontal,none
1a,9,100106,1,32,32,19,F,NA,variable,heterogeneous,6,present,1.73699998855591,0,horizontal,vertical,1,1.03528198296169,green,6,4,599.057257830286,756.993676208043,764.510859255183,347.4816424709,835.489140744817,852.518357529101,1036.43188291453,695.524681321058,1000.94274216971,443.006323791957,764.510859255183,347.4816424709,563.568117085469,504.475318678942,599.057257830286,756.993676208043,6,0,3,0,5,4,horizontal,horizontal,horizontal,horizontal,horizontal,horizontal
1a,9,100106,1,33,33,19,F,NA,variable,heterogeneous,6,absent,NaN,0,horizontal,none,0,0.858816314193438,red,2,NaN,1018.57766167904,731.334709102064,NaN,NaN,795.549636358493,854.96116226488,1018.57766167904,731.334709102064,1023.02802532055,476.373546837184,804.450363641507,345.03883773512,581.422338320961,468.665290897936,576.971974679454,723.626453162816,6,4,5,3,6,0,vertical,horizontal,horizontal,vertical,vertical,horizontal
1a,9,100106,1,34,34,19,F,NA,variable,heterogeneous,3,present,NaN,0,vertical,none,0,0.623528755835767,green,2,1,992.450942956807,432.704947607421,848.656293821019,850.314931779154,848.656293821019,850.314931779154,992.450942956807,432.704947607421,558.892763222174,516.980120613425,0,0,0,0,0,0,5,4,6,NaN,NaN,NaN,horizontal,vertical,horizontal,none,none,none
1a,9,100106,1,35,35,19,F,NA,variable,heterogeneous,4,present,1.29060888290405,1,horizontal,horizontal,1,1.04704636087957,green,1,3,661.117046071168,813.860994826083,938.882953928832,386.139005173917,661.117046071168,813.860994826083,1013.86099482608,738.882953928832,938.882953928832,386.139005173917,586.139005173917,461.117046071168,0,0,0,0,4,6,0,6,NaN,NaN,horizontal,vertical,horizontal,vertical,none,none
1a,9,100106,1,36,36,19,F,NA,variable,heterogeneous,6,present,1.30273413658142,1,vertical,vertical,1,0.694115023343068,green,1,5,813.345668841951,854.650531362416,572.793336331966,484.232422566416,813.345668841951,854.650531362416,1027.20666366803,715.767577433584,1013.86099482608,461.117046071168,786.654331158049,345.349468637584,572.793336331966,484.232422566416,586.139005173917,738.882953928832,4,6,0,5,3,0,vertical,vertical,vertical,horizontal,vertical,horizontal
1a,9,100106,1,37,37,19,F,NA,variable,heterogeneous,5,absent,NaN,0,horizontal,none,0,0.752936912932486,red,3,NaN,998.172220171528,439.523300282291,NaN,NaN,734.001143498857,846.311085703712,1013.86099482608,738.882953928832,998.172220171528,439.523300282291,708.616172865948,361.936991243214,545.349468637584,613.345668841951,0,0,3,5,4,0,0,NaN,horizontal,horizontal,horizontal,vertical,vertical,none
1a,9,100106,1,38,38,19,F,NA,variable,heterogeneous,5,absent,0.00101113319396973,1,vertical,vertical,1,0.623528755835767,green,2,NaN,1032.95409169886,703.717843984329,NaN,NaN,773.345241866748,853.60308331891,1032.95409169886,703.717843984329,970.628304621509,410.498069503264,672.5,379.163522034968,550.57236181288,653.017481158529,0,0,6,4,6,3,0,NaN,vertical,vertical,vertical,vertical,horizontal,none
1a,9,100106,1,39,39,19,F,NA,variable,heterogeneous,5,present,1.88547801971436,1,vertical,vertical,1,1.02351760504381,green,2,1,1042.51941165526,521.200666434388,949.885239334581,806.299333565612,949.885239334581,806.299333565612,1042.51941165526,521.200666434388,800,345,557.480588344736,521.200666434388,650.114760665419,806.299333565612,0,0,0,4,5,5,0,NaN,horizontal,vertical,vertical,vertical,horizontal,none
1a,9,100106,1,40,40,19,F,NA,variable,heterogeneous,3,present,0.807849884033203,1,vertical,vertical,1,0.623528755835767,red,3,1,668.665290897936,381.422338320961,676.373546837184,823.028025320546,676.373546837184,823.028025320546,1054.96116226488,595.549636358493,668.665290897936,381.422338320961,0,0,0,0,0,0,6,5,4,NaN,NaN,NaN,vertical,horizontal,vertical,none,none,none
1a,9,100106,1,41,41,19,F,NA,variable,heterogeneous,5,present,0.879849910736084,1,horizontal,horizontal,1,0.988224471290156,red,3,2,983.431649086356,422.862115532956,1025.15163617903,719.715248510402,755.719714694933,851.125977018113,1025.15163617903,719.715248510402,983.431649086356,422.862115532956,688.215357568785,370.807518193712,547.481642470899,635.489140744817,0,0,5,6,4,3,3,NaN,horizontal,horizontal,horizontal,horizontal,vertical,none
1a,9,100106,1,42,42,19,F,NA,variable,heterogeneous,4,absent,1.03849506378174,1,vertical,vertical,1,0.847051936275554,green,1,NaN,973.909581815937,786.495193912888,NaN,NaN,973.909581815937,786.495193912888,986.495193912888,426.090418184063,626.090418184063,413.504806087112,613.504806087112,773.909581815937,0,0,0,0,4,3,3,5,NaN,NaN,vertical,vertical,vertical,vertical,none,none
1a,9,100106,1,43,43,19,F,NA,variable,heterogeneous,6,present,1.66664695739746,1,vertical,vertical,1,0.764701290850369,green,2,5,1045.12173246427,670.287525733335,554.878267535729,529.712474266665,861.690083377915,847.425410200379,1045.12173246427,670.287525733335,983.431649086356,422.862115532956,738.309916622085,352.574589799621,554.878267535729,529.712474266665,616.568350913644,777.137884467044,0,4,5,6,5,6,horizontal,vertical,vertical,vertical,vertical,vertical
1a,9,100106,1,44,44,19,F,NA,variable,heterogeneous,6,absent,NaN,0,vertical,none,0,0.623528755835767,green,3,NaN,1053.09926866854,568.923317431687,NaN,NaN,700.363562235235,834.728737630372,953.462830903772,803.65205506206,1053.09926866854,568.923317431687,899.636437764765,365.271262369628,646.537169096228,396.34794493794,546.900731331463,631.076682568313,3,3,4,0,5,6,vertical,vertical,vertical,vertical,vertical,horizontal
1a,9,100106,1,45,45,19,F,NA,variable,heterogeneous,6,absent,1.65255999565125,1,horizontal,horizontal,1,0.788230046686136,green,5,NaN,567.045908301137,496.282156015671,NaN,NaN,826.654758133252,853.60308331891,1032.95409169886,703.717843984329,1006.29933356561,450.114760665419,773.345241866748,346.39691668109,567.045908301137,496.282156015671,593.700666434388,749.885239334581,5,6,0,6,4,3,horizontal,vertical,horizontal,vertical,horizontal,vertical
1a,9,100106,1,46,46,19,F,NA,variable,heterogeneous,4,absent,1.22077798843384,1,horizontal,horizontal,1,0.941166959618622,red,3,NaN,696.282156015671,367.045908301137,NaN,NaN,903.717843984329,832.954091698863,1032.95409169886,496.282156015671,696.282156015671,367.045908301137,567.045908301137,703.717843984329,0,0,0,0,3,5,4,0,NaN,NaN,horizontal,horizontal,horizontal,horizontal,none,none
1a,9,100106,1,47,47,19,F,NA,variable,heterogeneous,4,absent,NaN,0,horizontal,none,0,0.858816314193438,green,3,NaN,826.654758133252,346.39691668109,NaN,NaN,773.345241866748,853.60308331891,1053.60308331891,626.654758133252,826.654758133252,346.39691668109,546.39691668109,573.345241866748,0,0,0,0,3,5,4,6,NaN,NaN,vertical,horizontal,horizontal,vertical,none,none
1a,9,100106,1,48,48,19,F,NA,variable,heterogeneous,6,present,1.61494493484497,0,horizontal,vertical,1,0.99998884920804,green,6,5,570.807518193712,711.784642431215,588.595418998464,457.40580961496,782.212099195248,854.378832816255,1011.40458100154,742.594190385041,1029.19248180629,488.215357568785,817.787900804752,345.621167183745,588.595418998464,457.40580961496,570.807518193712,711.784642431215,5,6,3,3,0,4,vertical,vertical,vertical,vertical,vertical,horizontal
1a,9,100106,1,49,49,19,F,NA,variable,heterogeneous,6,absent,1.79188108444214,0,horizontal,vertical,1,0.623528755835767,red,2,NaN,1054.96116226488,604.450363641507,NaN,NaN,923.626453162816,823.028025320546,1054.96116226488,604.450363641507,931.334709102064,381.422338320961,676.373546837184,376.971974679454,545.03883773512,595.549636358493,668.665290897936,818.577661679039,6,4,5,3,0,3,vertical,horizontal,horizontal,horizontal,vertical,vertical
1a,9,100106,1,50,50,19,F,NA,variable,heterogeneous,4,absent,1.49255013465881,1,vertical,vertical,1,1.03528198296169,red,1,NaN,826.654758133252,853.60308331891,NaN,NaN,826.654758133252,853.60308331891,1053.60308331891,573.345241866748,773.345241866748,346.39691668109,546.39691668109,626.654758133252,0,0,0,0,4,6,5,5,NaN,NaN,vertical,vertical,horizontal,horizontal,none,none
1a,9,100106,1,51,51,19,F,NA,variable,heterogeneous,5,present,1.04778623580933,1,horizontal,horizontal,1,1.07057511671534,red,5,4,646.537169096228,803.65205506206,558.892763222174,516.980120613425,946.261991269517,808.883771293693,1043.85771277057,525.445215295702,804.450363641507,345.03883773512,558.892763222174,516.980120613425,646.537169096228,803.65205506206,0,0,3,0,6,0,4,NaN,horizontal,vertical,vertical,horizontal,horizontal,none
1a,9,100106,1,52,52,19,F,NA,variable,heterogeneous,4,absent,0.721077919006348,0,horizontal,vertical,1,1.01175322712592,green,4,NaN,545.621167183745,582.212099195248,NaN,NaN,782.212099195248,854.378832816255,1054.37883281626,617.787900804752,817.787900804752,345.621167183745,545.621167183745,582.212099195248,0,0,0,0,5,0,0,4,NaN,NaN,vertical,horizontal,vertical,horizontal,none,none
1a,9,100106,1,53,53,19,F,NA,variable,heterogeneous,4,present,1.92417693138123,1,horizontal,horizontal,1,0.811758802521904,red,2,1,1016.25226451989,735.129412379467,664.870587620533,816.252264519889,664.870587620533,816.252264519889,1016.25226451989,735.129412379467,935.129412379467,383.747735480111,583.747735480111,464.870587620533,0,0,0,0,0,4,5,6,NaN,NaN,vertical,horizontal,vertical,horizontal,none,none
1a,9,100106,1,54,54,19,F,NA,variable,heterogeneous,4,absent,1.62307810783386,1,vertical,vertical,1,0.811758802521904,red,2,NaN,1054.65053136242,613.345668841951,NaN,NaN,786.654331158049,854.650531362416,1054.65053136242,613.345668841951,813.345668841951,345.349468637584,545.349468637584,586.654331158049,0,0,0,0,5,4,0,3,NaN,NaN,vertical,vertical,horizontal,horizontal,none,none
1a,9,100106,1,55,55,19,F,NA,variable,heterogeneous,5,absent,NaN,0,horizontal,none,0,0.823523180439787,green,2,NaN,995.341332995339,763.910840470068,NaN,NaN,704.475318678942,836.431882914531,995.341332995339,763.910840470068,1016.25226451989,464.870587620533,738.309916622085,352.574589799621,545.621167183745,582.212099195248,0,0,5,4,5,3,0,NaN,horizontal,horizontal,horizontal,horizontal,vertical,none
1a,9,100106,1,56,56,19,F,NA,variable,heterogeneous,3,present,1.05417394638062,0,horizontal,vertical,1,1.08233949463322,red,1,3,1013.86099482608,738.882953928832,572.793336331966,715.767577433584,1013.86099482608,738.882953928832,813.345668841951,345.349468637584,572.793336331966,715.767577433584,0,0,0,0,0,0,4,3,5,NaN,NaN,NaN,horizontal,horizontal,vertical,none,none,none
1a,9,100106,1,57,57,19,F,NA,variable,heterogeneous,4,present,1.86469697952271,1,horizontal,horizontal,1,0.658821889589418,green,3,1,676.373546837184,376.971974679454,923.626453162816,823.028025320546,923.626453162816,823.028025320546,1023.02802532055,476.373546837184,676.373546837184,376.971974679454,576.971974679454,723.626453162816,0,0,0,0,6,3,4,5,NaN,NaN,vertical,vertical,horizontal,vertical,none,none
1a,9,100106,1,58,58,19,F,NA,variable,heterogeneous,4,present,1.2943639755249,1,horizontal,horizontal,1,0.811758802521904,red,2,3,1006.29933356561,450.114760665419,650.114760665419,393.700666434388,949.885239334581,806.299333565612,1006.29933356561,450.114760665419,650.114760665419,393.700666434388,593.700666434388,749.885239334581,0,0,0,0,5,4,5,6,NaN,NaN,vertical,horizontal,vertical,horizontal,none,none
1a,9,100106,1,59,59,19,F,NA,variable,heterogeneous,4,absent,0.922532081604004,1,vertical,vertical,1,0.905873825864972,green,4,NaN,552.574589799621,661.690083377915,NaN,NaN,861.690083377915,847.425410200379,1047.42541020038,538.309916622085,738.309916622085,352.574589799621,552.574589799621,661.690083377915,0,0,0,0,0,6,0,4,NaN,NaN,vertical,horizontal,horizontal,vertical,none,none
1a,9,100106,1,60,60,19,F,NA,variable,heterogeneous,6,absent,0.923850059509277,1,vertical,vertical,1,0.941166959618622,green,5,NaN,622.862115532956,416.568350913644,NaN,NaN,729.712474266665,845.121732464271,977.137884467044,783.431649086356,1047.42541020038,538.309916622085,870.287525733335,354.878267535729,622.862115532956,416.568350913644,552.574589799621,661.690083377915,0,0,5,3,4,6,horizontal,horizontal,horizontal,horizontal,vertical,horizontal
1a,9,100106,1,61,61,19,F,NA,variable,heterogeneous,3,absent,1.55240297317505,1,horizontal,horizontal,1,1.08233949463322,red,2,NaN,983.431649086356,422.862115532956,NaN,NaN,861.690083377915,847.425410200379,983.431649086356,422.862115532956,554.878267535729,529.712474266665,0,0,0,0,0,0,0,4,5,NaN,NaN,NaN,horizontal,horizontal,horizontal,none,none,none
1a,9,100106,1,62,62,19,F,NA,variable,heterogeneous,4,present,1.23673105239868,1,vertical,vertical,1,0.847051936275554,red,2,1,1051.86052685176,560.109211414741,839.890788585259,851.86052685176,839.890788585259,851.86052685176,1051.86052685176,560.109211414741,760.109211414741,348.13947314824,548.13947314824,639.890788585259,0,0,0,0,6,4,5,5,NaN,NaN,vertical,vertical,horizontal,vertical,none,none
1a,9,100106,1,63,63,19,F,NA,variable,heterogeneous,3,present,1.4125759601593,1,vertical,vertical,1,0.752936912932486,green,3,2,622.862115532956,416.568350913644,1047.42541020038,538.309916622085,729.712474266665,845.121732464271,1047.42541020038,538.309916622085,622.862115532956,416.568350913644,0,0,0,0,0,0,0,6,4,NaN,NaN,NaN,vertical,vertical,vertical,none,none,none
1a,9,100106,1,64,64,19,F,NA,variable,heterogeneous,6,present,1.46335792541504,0,horizontal,vertical,1,0.717643779178835,red,4,5,742.637481142314,351.535633479765,556.142287229426,525.445215295702,857.362518857686,848.464366520235,1043.85771277057,674.554784704298,986.495193912888,426.090418184063,742.637481142314,351.535633479765,556.142287229426,525.445215295702,613.504806087112,773.909581815937,6,5,3,4,6,0,vertical,vertical,horizontal,horizontal,vertical,vertical
1a,9,100106,2,1,65,19,F,NA,variable,heterogeneous,3,present,0.737959146499634,0,horizontal,vertical,1,0.705879401260952,red,1,3,942.594190385041,811.404581001536,545.621167183745,617.787900804752,942.594190385041,811.404581001536,911.784642431215,370.807518193712,545.621167183745,617.787900804752,0,0,0,0,0,0,4,0,3,NaN,NaN,NaN,horizontal,vertical,vertical,none,none,none
1a,9,100106,2,2,66,19,F,NA,variable,heterogeneous,5,present,1.41702604293823,1,horizontal,horizontal,1,0.611764377917884,green,4,1,791.100628340862,345.155339110131,657.405809614959,811.404581001536,657.405809614959,811.404581001536,956.993676208043,800.942742169714,1039.62161830041,512.784863451954,791.100628340862,345.155339110131,554.878267535729,529.712474266665,0,0,6,5,0,4,3,NaN,vertical,vertical,horizontal,horizontal,vertical,none
1a,9,100106,2,3,67,19,F,NA,variable,heterogeneous,5,present,1.55860996246338,1,horizontal,horizontal,1,0.658821889589418,green,2,4,983.431649086356,777.137884467044,755.719714694933,348.874022981887,688.215357568785,829.192481806288,983.431649086356,777.137884467044,1025.15163617903,480.284751489598,755.719714694933,348.874022981887,547.481642470899,564.510859255183,0,0,5,4,6,3,0,NaN,horizontal,horizontal,vertical,vertical,horizontal,none
1a,9,100106,2,4,68,19,F,NA,variable,heterogeneous,3,absent,1.29858779907227,1,horizontal,horizontal,1,0.823523180439787,red,3,NaN,561.936991243214,691.383827134052,NaN,NaN,998.172220171528,760.476699717708,839.890788585259,348.13947314824,561.936991243214,691.383827134052,0,0,0,0,0,0,6,6,4,NaN,NaN,NaN,horizontal,vertical,horizontal,none,none,none
1a,9,100106,2,5,69,19,F,NA,variable,heterogeneous,5,present,1.27845311164856,1,vertical,vertical,1,0.682350645425185,red,2,4,967.295052392579,792.450942956807,777.775285599347,345.970351986605,668.665290897936,818.577661679039,967.295052392579,792.450942956807,1034.72873763037,500.363562235235,777.775285599347,345.970351986605,551.535633479765,542.637481142314,0,0,5,4,6,0,0,NaN,horizontal,vertical,vertical,horizontal,vertical,none
1a,9,100106,2,6,70,19,F,NA,variable,heterogeneous,4,present,0.971212863922119,1,horizontal,horizontal,1,0.952931337536506,red,1,3,804.450363641507,854.96116226488,795.549636358493,345.03883773512,804.450363641507,854.96116226488,1054.96116226488,595.549636358493,795.549636358493,345.03883773512,545.03883773512,604.450363641507,0,0,0,0,4,5,5,3,NaN,NaN,horizontal,horizontal,horizontal,horizontal,none,none
1a,9,100106,2,7,71,19,F,NA,variable,heterogeneous,6,absent,1.42935991287231,1,horizontal,horizontal,1,0.741172535014602,red,5,NaN,596.34794493794,446.537169096228,NaN,NaN,768.923317431687,853.099268668537,1003.65205506206,753.462830903772,1034.72873763037,500.363562235235,831.076682568313,346.900731331463,596.34794493794,446.537169096228,565.271262369628,699.636437764765,3,0,6,3,4,0,vertical,horizontal,vertical,horizontal,horizontal,horizontal
1a,9,100106,2,8,72,19,F,NA,variable,heterogeneous,3,present,1.17187809944153,0,horizontal,vertical,1,0.894109447947088,green,2,1,1041.10723677783,516.980120613425,751.343706178981,850.314931779154,751.343706178981,850.314931779154,1041.10723677783,516.980120613425,607.549057043193,432.704947607421,0,0,0,0,0,0,0,4,3,NaN,NaN,NaN,horizontal,horizontal,vertical,none,none,none
1a,9,100106,2,9,73,19,F,NA,variable,heterogeneous,6,present,NaN,0,horizontal,none,0,0.694115023343068,green,4,3,764.510859255183,347.4816424709,1000.94274216971,443.006323791957,835.489140744817,852.518357529101,1036.43188291453,695.524681321058,1000.94274216971,443.006323791957,764.510859255183,347.4816424709,563.568117085469,504.475318678942,599.057257830286,756.993676208043,5,6,3,4,0,5,horizontal,horizontal,vertical,horizontal,horizontal,vertical
1a,9,100106,2,10,74,19,F,NA,variable,heterogeneous,4,absent,1.55536818504333,1,vertical,vertical,1,0.670586267507301,green,2,NaN,1054.0296480134,577.775285599347,NaN,NaN,822.224714400653,854.029648013395,1054.0296480134,577.775285599347,777.775285599347,345.970351986605,545.970351986605,622.224714400653,0,0,0,0,6,4,5,3,NaN,NaN,horizontal,vertical,horizontal,vertical,none,none
1a,9,100106,2,11,75,19,F,NA,variable,heterogeneous,6,absent,1.61716294288635,1,horizontal,horizontal,1,0.941166959618622,green,2,NaN,1041.10723677783,683.019879386575,NaN,NaN,848.656293821019,850.314931779154,1041.10723677783,683.019879386575,992.450942956807,432.704947607421,751.343706178981,349.685068220846,558.892763222174,516.980120613425,607.549057043193,767.295052392579,0,4,6,0,6,3,horizontal,horizontal,vertical,horizontal,horizontal,vertical
1a,9,100106,2,12,76,19,F,NA,variable,heterogeneous,6,present,0.803056001663208,1,vertical,vertical,1,0.847051936275554,green,5,4,586.139005173917,461.117046071168,813.345668841951,345.349468637584,786.654331158049,854.650531362416,1013.86099482608,738.882953928832,1027.20666366803,484.232422566416,813.345668841951,345.349468637584,586.139005173917,461.117046071168,572.793336331966,715.767577433584,5,0,6,3,4,5,horizontal,vertical,vertical,vertical,vertical,vertical
1a,9,100106,2,13,77,19,F,NA,variable,heterogeneous,6,present,1.24700212478638,1,horizontal,horizontal,1,0.99998884920804,red,1,5,696.282156015671,832.954091698863,650.114760665419,393.700666434388,696.282156015671,832.954091698863,949.885239334581,806.299333565612,1053.60308331891,573.345241866748,903.717843984329,367.045908301137,650.114760665419,393.700666434388,546.39691668109,626.654758133252,4,3,6,0,0,5,horizontal,vertical,horizontal,horizontal,horizontal,vertical
1a,9,100106,2,14,78,19,F,NA,variable,heterogeneous,5,present,0.835470914840698,1,horizontal,horizontal,1,0.752936912932486,red,4,3,574.848363820974,480.284751489598,844.280285305067,348.874022981887,911.784642431215,829.192481806288,1052.5183575291,564.510859255183,844.280285305067,348.874022981887,574.848363820974,480.284751489598,616.568350913644,777.137884467044,0,0,5,0,6,4,5,NaN,horizontal,vertical,horizontal,horizontal,horizontal,none
1a,9,100106,2,15,79,19,F,NA,variable,heterogeneous,3,absent,0.637679100036621,1,horizontal,horizontal,1,0.870580692111321,green,3,NaN,545.155339110131,608.899371659138,NaN,NaN,935.129412379467,816.252264519889,919.715248510402,374.848363820974,545.155339110131,608.899371659138,0,0,0,0,0,0,0,3,4,NaN,NaN,NaN,horizontal,horizontal,horizontal,none,none,none
1a,9,100106,2,16,80,19,F,NA,variable,heterogeneous,4,absent,1.13646697998047,0,vertical,horizontal,1,0.694115023343068,green,4,NaN,583.747735480111,735.129412379467,NaN,NaN,935.129412379467,816.252264519889,1016.25226451989,464.870587620533,664.870587620533,383.747735480111,583.747735480111,735.129412379467,0,0,0,0,3,0,5,4,NaN,NaN,horizontal,vertical,vertical,vertical,none,none
1a,9,100106,2,17,81,19,F,NA,variable,heterogeneous,5,absent,1.03608894348145,1,horizontal,horizontal,1,0.623528755835767,green,5,NaN,546.900731331463,568.923317431687,NaN,NaN,692.232343256122,831.108485694346,986.495193912888,773.909581815937,1023.02802532055,476.373546837184,751.343706178981,349.685068220846,546.900731331463,568.923317431687,0,0,3,0,0,5,4,NaN,horizontal,horizontal,vertical,vertical,horizontal,none
1a,9,100106,2,18,82,19,F,NA,variable,heterogeneous,5,present,0.746637105941772,1,vertical,vertical,1,0.882345070029205,green,4,2,676.373546837184,376.971974679454,1031.10848569435,707.767656743878,768.923317431687,853.099268668537,1031.10848569435,707.767656743878,973.909581815937,413.504806087112,676.373546837184,376.971974679454,549.685068220846,648.656293821019,0,0,5,0,6,4,6,NaN,vertical,vertical,vertical,vertical,vertical,none
1a,9,100106,2,19,83,19,F,NA,variable,heterogeneous,5,absent,NaN,0,vertical,none,0,0.611764377917884,green,1,NaN,835.489140744817,852.518357529101,NaN,NaN,835.489140744817,852.518357529101,1051.12597701811,644.280285305067,919.715248510402,374.848363820974,622.862115532956,416.568350913644,570.807518193712,711.784642431215,0,0,4,3,0,6,3,NaN,vertical,vertical,vertical,horizontal,vertical,none
1a,9,100106,2,20,84,19,F,NA,variable,heterogeneous,6,present,0.819085836410522,0,vertical,horizontal,1,0.847051936275554,red,2,6,1042.51941165526,678.799333565612,610.498069503264,770.628304621509,853.017481158529,849.42763818712,1042.51941165526,678.799333565612,989.501930496736,429.371695378491,746.982518841471,350.57236181288,557.480588344736,521.200666434388,610.498069503264,770.628304621509,0,4,5,5,6,3,horizontal,vertical,vertical,vertical,vertical,horizontal
1a,9,100106,2,21,85,19,F,NA,variable,heterogeneous,4,absent,NaN,0,vertical,none,0,0.964695715454389,red,1,NaN,764.510859255183,852.518357529101,NaN,NaN,764.510859255183,852.518357529101,1052.5183575291,635.489140744817,835.489140744817,347.4816424709,547.481642470899,564.510859255183,0,0,0,0,4,6,6,3,NaN,NaN,vertical,horizontal,vertical,vertical,none,none
1a,9,100106,2,22,86,19,F,NA,variable,heterogeneous,3,present,1.11174511909485,0,horizontal,vertical,1,0.835287558357671,red,3,2,551.535633479765,657.362518857686,874.554784704298,356.142287229426,973.909581815937,786.495193912888,874.554784704298,356.142287229426,551.535633479765,657.362518857686,0,0,0,0,0,0,5,3,4,NaN,NaN,NaN,horizontal,horizontal,horizontal,none,none,none
1a,9,100106,2,23,87,19,F,NA,variable,heterogeneous,3,absent,1.79107904434204,1,horizontal,horizontal,1,0.835287558357671,green,2,NaN,899.636437764765,365.271262369628,NaN,NaN,953.462830903772,803.65205506206,899.636437764765,365.271262369628,546.900731331463,631.076682568313,0,0,0,0,0,0,5,4,6,NaN,NaN,NaN,horizontal,horizontal,horizontal,none,none,none
1a,9,100106,2,24,88,19,F,NA,variable,heterogeneous,5,present,1.8789279460907,1,vertical,vertical,1,0.99998884920804,green,2,3,1054.0296480134,622.224714400653,899.636437764765,365.271262369628,857.362518857686,848.464366520235,1054.0296480134,622.224714400653,899.636437764765,365.271262369628,607.549057043193,432.704947607421,581.422338320961,731.334709102064,0,0,3,4,3,6,5,NaN,horizontal,vertical,vertical,vertical,horizontal,none
1a,9,100106,2,25,89,19,F,NA,variable,heterogeneous,3,absent,1.27777004241943,0,vertical,horizontal,1,0.847051936275554,green,3,NaN,545.621167183745,582.212099195248,NaN,NaN,911.784642431215,829.192481806288,942.594190385041,388.595418998464,545.621167183745,582.212099195248,0,0,0,0,0,0,0,3,4,NaN,NaN,NaN,vertical,horizontal,vertical,none,none,none
1a,9,100106,2,26,90,19,F,NA,variable,heterogeneous,5,absent,NaN,0,horizontal,none,0,1.01175322712592,red,1,NaN,777.775285599347,854.029648013395,NaN,NaN,777.775285599347,854.029648013395,1034.72873763037,699.636437764765,967.295052392579,407.549057043193,668.665290897936,381.422338320961,551.535633479765,657.362518857686,0,0,4,5,0,6,3,NaN,horizontal,horizontal,vertical,vertical,vertical,none
1a,9,100106,2,27,91,19,F,NA,variable,heterogeneous,4,absent,0.894212961196899,0,horizontal,vertical,1,0.717643779178835,green,1,NaN,878.799333565612,842.519411655264,NaN,NaN,878.799333565612,842.519411655264,1042.51941165526,521.200666434388,721.200666434388,357.480588344736,557.480588344736,678.799333565612,0,0,0,0,4,0,3,6,NaN,NaN,horizontal,horizontal,vertical,horizontal,none,none
1a,9,100106,2,28,92,19,F,NA,variable,heterogeneous,6,absent,NaN,0,horizontal,none,0,0.941166959618622,red,6,NaN,572.793336331966,715.767577433584,NaN,NaN,786.654331158049,854.650531362416,1013.86099482608,738.882953928832,1027.20666366803,484.232422566416,813.345668841951,345.349468637584,586.139005173917,461.117046071168,572.793336331966,715.767577433584,6,5,0,0,3,4,horizontal,horizontal,horizontal,vertical,horizontal,horizontal
1a,9,100106,2,29,93,19,F,NA,variable,heterogeneous,5,absent,1.88901114463806,0,vertical,horizontal,1,0.882345070029205,green,5,NaN,561.936991243214,691.383827134052,NaN,NaN,813.345668841951,854.650531362416,1046.31108570371,665.998856501143,938.882953928832,386.139005173917,639.523300282292,401.827779828472,561.936991243214,691.383827134052,0,0,6,0,0,3,4,NaN,vertical,vertical,vertical,horizontal,vertical,none
1a,9,100106,2,30,94,19,F,NA,variable,heterogeneous,5,absent,1.68692183494568,1,horizontal,horizontal,1,1.01175322712592,red,3,NaN,1011.40458100154,457.40580961496,NaN,NaN,712.784863451954,839.621618300407,1000.94274216971,756.993676208043,1011.40458100154,457.40580961496,729.712474266665,354.878267535729,545.155339110131,591.100628340862,0,0,6,5,4,0,6,NaN,horizontal,vertical,horizontal,horizontal,horizontal,none
1a,9,100106,2,31,95,19,F,NA,variable,heterogeneous,3,present,0.912126064300537,1,horizontal,horizontal,1,0.752936912932486,green,2,1,800,345,1020.83647796503,727.5,1020.83647796503,727.5,800,345,579.163522034968,727.5,0,0,0,0,0,0,6,4,5,NaN,NaN,NaN,horizontal,horizontal,horizontal,none,none,none
1a,9,100106,2,32,96,19,F,NA,variable,heterogeneous,5,absent,0.862408876419067,1,vertical,vertical,1,0.988224471290156,red,2,NaN,980.31222920257,780.31222920257,NaN,NaN,684.232422566416,827.206663668034,980.31222920257,780.31222920257,1027.20666366803,484.232422566416,760.109211414741,348.13947314824,548.13947314824,560.109211414741,0,0,0,4,6,5,3,NaN,horizontal,vertical,horizontal,horizontal,horizontal,none
1a,9,100106,2,33,97,19,F,NA,variable,heterogeneous,3,present,0.628533840179443,0,vertical,horizontal,1,1.03528198296169,green,3,1,554.878267535729,529.712474266665,861.690083377915,847.425410200379,861.690083377915,847.425410200379,983.431649086356,422.862115532956,554.878267535729,529.712474266665,0,0,0,0,0,0,0,0,4,NaN,NaN,NaN,vertical,horizontal,vertical,none,none,none
1a,9,100106,2,34,98,19,F,NA,variable,heterogeneous,4,present,1.453449010849,1,horizontal,horizontal,1,0.611764377917884,green,2,1,1039.62161830041,687.215136548046,712.784863451954,839.621618300407,712.784863451954,839.621618300407,1039.62161830041,687.215136548046,887.215136548046,360.378381699593,560.378381699593,512.784863451954,0,0,0,0,5,4,0,5,NaN,NaN,horizontal,horizontal,horizontal,horizontal,none,none
1a,9,100106,2,35,99,19,F,NA,variable,heterogeneous,4,present,1.04423713684082,1,vertical,vertical,1,0.670586267507301,green,2,1,1041.10723677783,683.019879386575,716.980120613425,841.107236777826,716.980120613425,841.107236777826,1041.10723677783,683.019879386575,883.019879386575,358.892763222174,558.892763222174,516.980120613425,0,0,0,0,0,4,3,3,NaN,NaN,vertical,vertical,vertical,vertical,none,none
1a,9,100106,2,36,100,19,F,NA,variable,heterogeneous,3,present,1.83851504325867,0,vertical,horizontal,1,0.870580692111321,red,3,2,553.688914296288,665.998856501143,865.998856501143,353.688914296288,980.31222920257,780.31222920257,865.998856501143,353.688914296288,553.688914296288,665.998856501143,0,0,0,0,0,0,5,5,4,NaN,NaN,NaN,horizontal,horizontal,vertical,none,none,none
1a,9,100106,2,37,101,19,F,NA,variable,heterogeneous,3,present,1.07346701622009,1,vertical,vertical,1,1.09410387255111,green,1,3,1016.25226451989,735.129412379467,574.848363820974,719.715248510402,1016.25226451989,735.129412379467,808.899371659138,345.155339110131,574.848363820974,719.715248510402,0,0,0,0,0,0,4,0,5,NaN,NaN,NaN,vertical,vertical,vertical,none,none,none
1a,9,100106,2,38,102,19,F,NA,variable,heterogeneous,4,present,1.05796694755554,1,horizontal,horizontal,1,0.941166959618622,green,4,1,546.900731331463,631.076682568313,831.076682568313,853.099268668537,831.076682568313,853.099268668537,1053.09926866854,568.923317431687,768.923317431687,346.900731331463,546.900731331463,631.076682568313,0,0,0,0,5,6,0,4,NaN,NaN,vertical,horizontal,horizontal,horizontal,none,none
1a,9,100106,2,39,103,19,F,NA,variable,heterogeneous,4,absent,1.47338008880615,1,horizontal,horizontal,1,0.905873825864972,green,4,NaN,607.549057043193,432.704947607421,NaN,NaN,632.704947607421,792.450942956807,992.450942956807,767.295052392579,967.295052392579,407.549057043193,607.549057043193,432.704947607421,0,0,0,0,3,6,0,4,NaN,NaN,horizontal,horizontal,horizontal,horizontal,none,none
1a,9,100106,2,40,104,19,F,NA,variable,heterogeneous,6,absent,1.03076195716858,1,vertical,vertical,1,0.776465668768253,green,2,NaN,1003.65205506206,753.462830903772,NaN,NaN,768.923317431687,853.099268668537,1003.65205506206,753.462830903772,1034.72873763037,500.363562235235,831.076682568313,346.900731331463,596.34794493794,446.537169096228,565.271262369628,699.636437764765,5,4,6,3,0,5,vertical,vertical,vertical,vertical,vertical,horizontal
1a,9,100106,2,41,105,19,F,NA,variable,heterogeneous,6,absent,1.15830588340759,1,vertical,vertical,1,0.941166959618622,red,4,NaN,865.998856501143,353.688914296288,NaN,NaN,734.001143498857,846.311085703712,980.31222920257,780.31222920257,1046.31108570371,534.001143498857,865.998856501143,353.688914296288,619.68777079743,419.68777079743,553.688914296288,665.998856501143,0,6,5,4,3,3,horizontal,horizontal,vertical,vertical,vertical,vertical
1a,9,100106,2,42,106,19,F,NA,variable,heterogeneous,4,absent,1.7794828414917,1,horizontal,horizontal,1,0.894109447947088,red,4,NaN,548.874022981887,555.719714694933,NaN,NaN,755.719714694933,851.125977018113,1051.12597701811,644.280285305067,844.280285305067,348.874022981887,548.874022981887,555.719714694933,0,0,0,0,3,6,5,4,NaN,NaN,horizontal,horizontal,vertical,horizontal,none,none
1a,9,100106,2,43,107,19,F,NA,variable,heterogeneous,4,present,NaN,0,horizontal,none,0,1.05881073879746,red,3,4,696.282156015671,367.045908301137,567.045908301137,703.717843984329,903.717843984329,832.954091698863,1032.95409169886,496.282156015671,696.282156015671,367.045908301137,567.045908301137,703.717843984329,0,0,0,0,3,0,4,0,NaN,NaN,horizontal,horizontal,horizontal,horizontal,none,none
1a,9,100106,2,44,108,19,F,NA,variable,heterogeneous,5,present,1.21208095550537,1,vertical,vertical,1,0.964695715454389,red,1,2,848.656293821019,850.314931779154,1053.09926866854,631.076682568313,848.656293821019,850.314931779154,1053.09926866854,631.076682568313,907.767656743878,368.891514305654,613.504806087112,426.090418184063,576.971974679454,723.626453162816,0,0,4,3,5,6,3,NaN,vertical,vertical,horizontal,horizontal,vertical,none
1a,9,100106,2,45,109,19,F,NA,variable,heterogeneous,3,absent,1.54822301864624,1,vertical,vertical,1,0.976460093372273,green,1,NaN,891.383827134052,838.063008756786,NaN,NaN,891.383827134052,838.063008756786,960.476699717708,401.827779828472,548.13947314824,560.109211414741,0,0,0,0,0,0,4,5,0,NaN,NaN,NaN,vertical,vertical,vertical,none,none,none
1a,9,100106,2,46,110,19,F,NA,variable,heterogeneous,6,absent,1.95990490913391,1,horizontal,horizontal,1,0.835287558357671,green,4,NaN,857.362518857686,351.535633479765,NaN,NaN,742.637481142314,848.464366520235,986.495193912888,773.909581815937,1043.85771277057,525.445215295702,857.362518857686,351.535633479765,613.504806087112,426.090418184063,556.142287229426,674.554784704298,5,3,6,4,3,6,horizontal,vertical,vertical,horizontal,horizontal,vertical
1a,9,100106,2,47,111,19,F,NA,variable,heterogeneous,6,absent,1.52667188644409,1,vertical,vertical,1,0.964695715454389,red,5,NaN,650.114760665419,393.700666434388,NaN,NaN,696.282156015671,832.954091698863,949.885239334581,806.299333565612,1053.60308331891,573.345241866748,903.717843984329,367.045908301137,650.114760665419,393.700666434388,546.39691668109,626.654758133252,3,6,3,0,4,5,vertical,horizontal,vertical,horizontal,vertical,vertical
1a,9,100106,2,48,112,19,F,NA,variable,heterogeneous,6,present,1.27535700798035,1,horizontal,horizontal,1,0.905873825864972,red,5,4,548.874022981887,555.719714694933,712.784863451954,360.378381699593,887.215136548046,839.621618300407,1051.12597701811,644.280285305067,963.910840470068,404.658667004661,712.784863451954,360.378381699593,548.874022981887,555.719714694933,636.089159529932,795.341332995339,6,6,5,3,4,5,horizontal,horizontal,vertical,vertical,horizontal,vertical
1a,9,100106,2,49,113,19,F,NA,variable,heterogeneous,3,absent,NaN,0,vertical,none,0,0.882345070029205,red,3,NaN,581.422338320961,468.665290897936,NaN,NaN,795.549636358493,854.96116226488,1023.02802532055,476.373546837184,581.422338320961,468.665290897936,0,0,0,0,0,0,3,0,4,NaN,NaN,NaN,vertical,horizontal,vertical,none,none,none
1a,9,100106,2,50,114,19,F,NA,variable,heterogeneous,4,present,1.29132509231567,1,vertical,vertical,1,0.623528755835767,green,2,1,1052.5183575291,635.489140744817,764.510859255183,852.518357529101,764.510859255183,852.518357529101,1052.5183575291,635.489140744817,835.489140744817,347.4816424709,547.481642470899,564.510859255183,0,0,0,0,0,4,5,3,NaN,NaN,horizontal,vertical,horizontal,horizontal,none,none
1a,9,100106,2,51,115,19,F,NA,variable,heterogeneous,6,absent,1.7092399597168,1,vertical,vertical,1,0.79999442460402,green,1,NaN,835.489140744817,852.518357529101,NaN,NaN,835.489140744817,852.518357529101,1036.43188291453,695.524681321058,1000.94274216971,443.006323791957,764.510859255183,347.4816424709,563.568117085469,504.475318678942,599.057257830286,756.993676208043,4,0,0,6,5,5,vertical,vertical,horizontal,vertical,vertical,vertical
1a,9,100106,2,52,116,19,F,NA,variable,heterogeneous,4,absent,0.818513154983521,1,vertical,vertical,1,0.741172535014602,red,4,NaN,607.549057043193,767.295052392579,NaN,NaN,967.295052392579,792.450942956807,992.450942956807,432.704947607421,632.704947607421,407.549057043193,607.549057043193,767.295052392579,0,0,0,0,0,3,5,4,NaN,NaN,vertical,vertical,horizontal,vertical,none,none
1a,9,100106,2,53,117,19,F,NA,variable,heterogeneous,3,absent,0.651630878448486,1,vertical,vertical,1,0.623528755835767,red,1,NaN,782.212099195248,854.378832816255,NaN,NaN,782.212099195248,854.378832816255,1029.19248180629,488.215357568785,588.595418998464,457.40580961496,0,0,0,0,0,0,4,6,0,NaN,NaN,NaN,vertical,horizontal,horizontal,none,none,none
1a,9,100106,2,54,118,19,F,NA,variable,heterogeneous,4,present,1.11270403862,1,vertical,vertical,1,0.6,red,2,1,1023.02802532055,476.373546837184,923.626453162816,823.028025320546,923.626453162816,823.028025320546,1023.02802532055,476.373546837184,676.373546837184,376.971974679454,576.971974679454,723.626453162816,0,0,0,0,5,4,0,3,NaN,NaN,horizontal,vertical,vertical,vertical,none,none
1a,9,100106,2,55,119,19,F,NA,variable,heterogeneous,4,absent,0.935193061828613,1,horizontal,horizontal,1,1.01175322712592,red,1,NaN,650.114760665419,806.299333565612,NaN,NaN,650.114760665419,806.299333565612,1006.29933356561,749.885239334581,949.885239334581,393.700666434388,593.700666434388,450.114760665419,0,0,0,0,4,5,0,3,NaN,NaN,horizontal,horizontal,horizontal,horizontal,none,none
1a,9,100106,2,56,120,19,F,NA,variable,heterogeneous,3,present,0.773949861526489,1,vertical,vertical,1,0.988224471290156,red,2,1,1003.65205506206,446.537169096228,831.076682568313,853.099268668537,831.076682568313,853.099268668537,1003.65205506206,446.537169096228,565.271262369628,500.363562235235,0,0,0,0,0,0,3,4,6,NaN,NaN,NaN,horizontal,vertical,vertical,none,none,none
1a,9,100106,2,57,121,19,F,NA,variable,heterogeneous,5,absent,1.49726581573486,1,horizontal,horizontal,1,0.988224471290156,green,2,NaN,980.31222920257,780.31222920257,NaN,NaN,684.232422566416,827.206663668034,980.31222920257,780.31222920257,1027.20666366803,484.232422566416,760.109211414741,348.13947314824,548.13947314824,560.109211414741,0,0,3,4,0,5,3,NaN,vertical,horizontal,horizontal,vertical,horizontal,none
1a,9,100106,2,58,122,19,F,NA,variable,heterogeneous,5,absent,1.30433917045593,1,vertical,vertical,1,0.647057511671534,red,4,NaN,557.480588344736,521.200666434388,NaN,NaN,949.885239334581,806.299333565612,1042.51941165526,521.200666434388,800,345,557.480588344736,521.200666434388,650.114760665419,806.299333565612,0,0,0,5,0,4,6,NaN,horizontal,vertical,vertical,vertical,vertical,none
1a,9,100106,2,59,123,19,F,NA,variable,heterogeneous,6,present,1.20690393447876,0,vertical,horizontal,1,0.823523180439787,green,5,3,636.089159529932,404.658667004661,1051.12597701811,555.719714694933,712.784863451954,839.621618300407,963.910840470068,795.341332995339,1051.12597701811,555.719714694933,887.215136548046,360.378381699593,636.089159529932,404.658667004661,548.874022981887,644.280285305067,6,0,3,6,4,5,horizontal,vertical,vertical,horizontal,vertical,horizontal
1a,9,100106,2,60,124,19,F,NA,variable,heterogeneous,3,absent,1.43568801879883,1,horizontal,horizontal,1,0.623528755835767,red,1,NaN,626.090418184063,786.495193912888,NaN,NaN,626.090418184063,786.495193912888,1048.46436652023,657.362518857686,725.445215295702,356.142287229426,0,0,0,0,0,0,4,5,6,NaN,NaN,NaN,horizontal,horizontal,vertical,none,none,none
1a,9,100106,2,61,125,19,F,NA,variable,heterogeneous,5,present,1.16141510009766,1,horizontal,horizontal,1,1.03528198296169,red,5,3,548.13947314824,639.890788585259,980.31222920257,419.68777079743,760.109211414741,851.86052685176,1027.20666366803,715.767577433584,980.31222920257,419.68777079743,684.232422566416,372.793336331966,548.13947314824,639.890788585259,0,0,5,0,6,0,4,NaN,horizontal,vertical,vertical,vertical,horizontal,none
1a,9,100106,2,62,126,19,F,NA,variable,heterogeneous,4,present,1.03317904472351,1,vertical,vertical,1,0.811758802521904,red,1,2,795.549636358493,854.96116226488,1054.96116226488,604.450363641507,795.549636358493,854.96116226488,1054.96116226488,604.450363641507,804.450363641507,345.03883773512,545.03883773512,595.549636358493,0,0,0,0,4,0,0,5,NaN,NaN,vertical,horizontal,horizontal,vertical,none,none
1a,9,100106,2,63,127,19,F,NA,variable,heterogeneous,6,present,1.9784619808197,1,horizontal,horizontal,1,0.835287558357671,green,1,5,865.998856501143,846.311085703712,553.688914296288,534.001143498857,865.998856501143,846.311085703712,1046.31108570371,665.998856501143,980.31222920257,419.68777079743,734.001143498857,353.688914296288,553.688914296288,534.001143498857,619.68777079743,780.31222920257,4,5,5,6,6,3,horizontal,vertical,vertical,horizontal,horizontal,vertical
1a,9,100106,2,64,128,19,F,NA,variable,heterogeneous,6,present,NaN,0,vertical,none,0,0.823523180439787,red,2,4,1018.57766167904,731.334709102064,804.450363641507,345.03883773512,795.549636358493,854.96116226488,1018.57766167904,731.334709102064,1023.02802532055,476.373546837184,804.450363641507,345.03883773512,581.422338320961,468.665290897936,576.971974679454,723.626453162816,6,4,0,6,3,5,horizontal,vertical,vertical,vertical,vertical,vertical
1a,9,100106,3,1,129,19,F,NA,variable,heterogeneous,5,present,1.71604418754578,1,horizontal,horizontal,1,1.02351760504381,green,3,4,911.784642431215,370.807518193712,616.568350913644,422.862115532956,844.280285305067,851.125977018113,1052.5183575291,635.489140744817,911.784642431215,370.807518193712,616.568350913644,422.862115532956,574.848363820974,719.715248510402,0,0,0,0,4,3,6,NaN,horizontal,vertical,horizontal,vertical,vertical,none
1a,9,100106,3,2,130,19,F,NA,variable,heterogeneous,4,present,1.60590410232544,1,vertical,vertical,1,0.976460093372273,red,3,1,907.767656743878,368.891514305654,692.232343256122,831.108485694346,692.232343256122,831.108485694346,1031.10848569435,707.767656743878,907.767656743878,368.891514305654,568.891514305654,492.232343256122,0,0,0,0,5,6,4,0,NaN,NaN,horizontal,horizontal,vertical,vertical,none,none
1a,9,100106,3,3,131,19,F,NA,variable,heterogeneous,6,present,1.74780201911926,1,horizontal,horizontal,1,0.670586267507301,red,5,1,599.057257830286,443.006323791957,764.510859255183,852.518357529101,764.510859255183,852.518357529101,1000.94274216971,756.993676208043,1036.43188291453,504.475318678942,835.489140744817,347.4816424709,599.057257830286,443.006323791957,563.568117085469,695.524681321058,5,0,6,3,4,6,vertical,vertical,horizontal,horizontal,horizontal,horizontal
1a,9,100106,3,4,132,19,F,NA,variable,heterogeneous,6,absent,1.27003598213196,1,vertical,vertical,1,0.764701290850369,green,6,NaN,553.688914296288,665.998856501143,NaN,NaN,734.001143498857,846.311085703712,980.31222920257,780.31222920257,1046.31108570371,534.001143498857,865.998856501143,353.688914296288,619.68777079743,419.68777079743,553.688914296288,665.998856501143,5,0,3,3,5,4,vertical,horizontal,vertical,vertical,vertical,vertical
1a,9,100106,3,5,133,19,F,NA,variable,heterogeneous,5,present,1.81029796600342,1,vertical,vertical,1,0.729408157096719,red,3,2,874.554784704298,356.142287229426,1054.96116226488,595.549636358493,883.019879386575,841.107236777826,1054.96116226488,595.549636358493,874.554784704298,356.142287229426,591.116228706307,453.738008730483,596.34794493794,753.462830903772,0,0,6,3,4,5,0,NaN,vertical,horizontal,vertical,vertical,vertical,none
1a,9,100106,3,6,134,19,F,NA,variable,heterogeneous,3,absent,1.70826101303101,1,horizontal,horizontal,1,0.670586267507301,green,1,NaN,661.117046071168,813.860994826083,NaN,NaN,661.117046071168,813.860994826083,1054.65053136242,613.345668841951,684.232422566416,372.793336331966,0,0,0,0,0,0,4,3,0,NaN,NaN,NaN,horizontal,vertical,horizontal,none,none,none
1a,9,100106,3,7,135,19,F,NA,variable,heterogeneous,6,present,NaN,0,horizontal,none,0,0.682350645425185,green,6,2,661.117046071168,813.860994826083,1054.65053136242,613.345668841951,915.767577433584,827.206663668034,1054.65053136242,613.345668841951,938.882953928832,386.139005173917,684.232422566416,372.793336331966,545.349468637584,586.654331158049,661.117046071168,813.860994826083,6,0,0,6,3,4,vertical,vertical,vertical,horizontal,horizontal,horizontal
1a,9,100106,3,8,136,19,F,NA,variable,heterogeneous,4,absent,1.03720903396606,0,horizontal,vertical,1,0.835287558357671,red,2,NaN,1031.10848569435,707.767656743878,NaN,NaN,692.232343256122,831.108485694346,1031.10848569435,707.767656743878,907.767656743878,368.891514305654,568.891514305654,492.232343256122,0,0,0,0,0,4,6,6,NaN,NaN,vertical,horizontal,horizontal,horizontal,none,none
1a,9,100106,3,9,137,19,F,NA,variable,heterogeneous,3,present,1.20833611488342,1,vertical,vertical,1,0.694115023343068,green,3,1,696.282156015671,367.045908301137,650.114760665419,806.299333565612,650.114760665419,806.299333565612,1053.60308331891,626.654758133252,696.282156015671,367.045908301137,0,0,0,0,0,0,6,0,4,NaN,NaN,NaN,vertical,vertical,vertical,none,none,none
1a,9,100106,3,10,138,19,F,NA,variable,heterogeneous,4,absent,0.802709102630615,1,horizontal,horizontal,1,0.929402581700739,green,4,NaN,545.03883773512,595.549636358493,NaN,NaN,795.549636358493,854.96116226488,1054.96116226488,604.450363641507,804.450363641507,345.03883773512,545.03883773512,595.549636358493,0,0,0,0,3,0,6,4,NaN,NaN,horizontal,vertical,horizontal,horizontal,none,none
1a,9,100106,3,11,139,19,F,NA,variable,heterogeneous,4,present,1.13124799728394,1,vertical,vertical,1,1.01175322712592,green,4,1,591.116228706307,453.738008730483,653.738008730483,808.883771293693,653.738008730483,808.883771293693,1008.88377129369,746.261991269517,946.261991269517,391.116228706307,591.116228706307,453.738008730483,0,0,0,0,3,5,6,4,NaN,NaN,horizontal,vertical,horizontal,vertical,none,none
1a,9,100106,3,12,140,19,F,NA,variable,heterogeneous,5,absent,0.803153038024902,1,horizontal,horizontal,1,1.03528198296169,green,4,NaN,561.936991243214,508.616172865948,NaN,NaN,938.882953928832,813.860994826083,1046.31108570371,534.001143498857,813.345668841951,345.349468637584,561.936991243214,508.616172865948,639.523300282292,798.172220171528,0,0,6,0,3,4,0,NaN,vertical,vertical,vertical,horizontal,horizontal,none
1a,9,100106,3,13,141,19,F,NA,variable,heterogeneous,5,absent,NaN,0,vertical,none,0,0.717643779178835,red,5,NaN,554.878267535729,670.287525733335,NaN,NaN,791.100628340862,854.844660889869,1039.62161830041,687.215136548046,956.993676208043,399.057257830286,657.405809614959,388.595418998464,554.878267535729,670.287525733335,0,0,6,5,3,5,4,NaN,vertical,vertical,vertical,horizontal,vertical,none
1a,9,100106,3,14,142,19,F,NA,variable,heterogeneous,3,absent,0.99423885345459,1,vertical,vertical,1,1.01175322712592,green,2,NaN,891.383827134052,361.936991243214,NaN,NaN,960.476699717708,798.172220171528,891.383827134052,361.936991243214,548.13947314824,639.890788585259,0,0,0,0,0,0,5,4,6,NaN,NaN,NaN,vertical,vertical,vertical,none,none,none
1a,9,100106,3,15,143,19,F,NA,variable,heterogeneous,5,present,1.15845012664795,1,horizontal,horizontal,1,0.611764377917884,red,4,1,700.363562235235,365.271262369628,742.637481142314,848.464366520235,742.637481142314,848.464366520235,1018.57766167904,731.334709102064,992.450942956807,432.704947607421,700.363562235235,365.271262369628,545.970351986605,622.224714400653,0,0,6,0,0,4,5,NaN,horizontal,vertical,horizontal,horizontal,vertical,none
1a,9,100106,3,16,144,19,F,NA,variable,heterogeneous,6,present,NaN,0,horizontal,none,0,0.729408157096719,red,4,6,692.232343256122,368.891514305654,653.738008730483,808.883771293693,907.767656743878,831.108485694346,1054.0296480134,622.224714400653,946.261991269517,391.116228706307,692.232343256122,368.891514305654,545.970351986605,577.775285599347,653.738008730483,808.883771293693,5,5,3,4,3,0,vertical,horizontal,horizontal,horizontal,horizontal,vertical
1a,9,100106,3,17,145,19,F,NA,variable,heterogeneous,6,absent,NaN,0,horizontal,none,0,1.07057511671534,green,5,NaN,546.39691668109,573.345241866748,NaN,NaN,903.717843984329,832.954091698863,1053.60308331891,626.654758133252,949.885239334581,393.700666434388,696.282156015671,367.045908301137,546.39691668109,573.345241866748,650.114760665419,806.299333565612,6,3,5,5,4,3,horizontal,vertical,horizontal,horizontal,horizontal,vertical
1a,9,100106,3,18,146,19,F,NA,variable,heterogeneous,3,present,1.03566098213196,1,horizontal,horizontal,1,1.07057511671534,green,2,1,1049.42763818712,546.982518841471,721.200666434388,842.519411655264,721.200666434388,842.519411655264,1049.42763818712,546.982518841471,629.371695378491,410.498069503264,0,0,0,0,0,0,5,4,6,NaN,NaN,NaN,horizontal,horizontal,vertical,none,none,none
1a,9,100106,3,19,147,19,F,NA,variable,heterogeneous,4,absent,1.23296499252319,1,vertical,vertical,1,0.611764377917884,red,3,NaN,857.362518857686,351.535633479765,NaN,NaN,742.637481142314,848.464366520235,1048.46436652023,657.362518857686,857.362518857686,351.535633479765,551.535633479765,542.637481142314,0,0,0,0,6,3,4,6,NaN,NaN,vertical,vertical,vertical,horizontal,none,none
1a,9,100106,3,20,148,19,F,NA,variable,heterogeneous,5,present,NaN,0,vertical,none,0,0.811758802521904,green,4,3,661.117046071168,386.139005173917,960.476699717708,401.827779828472,786.654331158049,854.650531362416,1038.06300875679,691.383827134052,960.476699717708,401.827779828472,661.117046071168,386.139005173917,553.688914296288,665.998856501143,0,0,3,5,5,4,6,NaN,horizontal,horizontal,vertical,vertical,horizontal,none
1a,9,100106,3,21,149,19,F,NA,variable,heterogeneous,5,absent,1.96432995796204,0,horizontal,vertical,1,0.705879401260952,green,1,NaN,795.549636358493,854.96116226488,NaN,NaN,795.549636358493,854.96116226488,1041.10723677783,683.019879386575,953.462830903772,396.34794493794,653.738008730483,391.116228706307,556.142287229426,674.554784704298,0,0,4,3,0,6,3,NaN,horizontal,vertical,vertical,horizontal,vertical,none
1a,9,100106,3,22,150,19,F,NA,variable,heterogeneous,6,absent,1.04413414001465,1,horizontal,horizontal,1,0.79999442460402,red,6,NaN,545,600,NaN,NaN,672.5,820.836477965032,927.5,820.836477965032,1055,600,927.5,379.163522034968,672.5,379.163522034968,545,600,0,6,3,5,6,4,horizontal,horizontal,vertical,horizontal,horizontal,horizontal
1a,9,100106,3,23,151,19,F,NA,variable,heterogeneous,4,absent,0.908469200134277,1,vertical,vertical,1,0.776465668768253,green,4,NaN,560.378381699593,512.784863451954,NaN,NaN,712.784863451954,839.621618300407,1039.62161830041,687.215136548046,887.215136548046,360.378381699593,560.378381699593,512.784863451954,0,0,0,0,6,6,0,4,NaN,NaN,vertical,horizontal,horizontal,vertical,none,none
1a,9,100106,3,24,152,19,F,NA,variable,heterogeneous,3,present,0.992229223251343,1,vertical,vertical,1,0.870580692111321,red,3,1,657.405809614959,388.595418998464,688.215357568785,829.192481806288,688.215357568785,829.192481806288,1054.37883281626,582.212099195248,657.405809614959,388.595418998464,0,0,0,0,0,0,3,6,4,NaN,NaN,NaN,vertical,horizontal,vertical,none,none,none
1a,9,100106,3,25,153,19,F,NA,variable,heterogeneous,3,absent,0.981027126312256,1,vertical,vertical,1,0.835287558357671,green,2,NaN,899.636437764765,365.271262369628,NaN,NaN,953.462830903772,803.65205506206,899.636437764765,365.271262369628,546.900731331463,631.076682568313,0,0,0,0,0,0,5,4,3,NaN,NaN,NaN,horizontal,vertical,horizontal,none,none,none
1a,9,100106,3,26,154,19,F,NA,variable,heterogeneous,3,present,0.90382194519043,1,horizontal,horizontal,1,0.752936912932486,green,3,2,755.719714694933,348.874022981887,1039.62161830041,687.215136548046,604.658667004661,763.910840470068,1039.62161830041,687.215136548046,755.719714694933,348.874022981887,0,0,0,0,0,0,3,5,4,NaN,NaN,NaN,horizontal,horizontal,horizontal,none,none,none
1a,9,100106,3,27,155,19,F,NA,variable,heterogeneous,4,absent,1.24981021881104,0,vertical,horizontal,1,0.788230046686136,red,4,NaN,576.971974679454,723.626453162816,NaN,NaN,923.626453162816,823.028025320546,1023.02802532055,476.373546837184,676.373546837184,376.971974679454,576.971974679454,723.626453162816,0,0,0,0,0,5,3,4,NaN,NaN,horizontal,vertical,vertical,vertical,none,none
1a,9,100106,3,28,156,19,F,NA,variable,heterogeneous,5,present,1.56119513511658,1,horizontal,horizontal,1,0.717643779178835,red,2,3,1036.43188291453,695.524681321058,963.910840470068,404.658667004661,782.212099195248,854.378832816255,1036.43188291453,695.524681321058,963.910840470068,404.658667004661,664.870587620533,383.747735480111,552.574589799621,661.690083377915,0,0,3,4,5,0,6,NaN,horizontal,horizontal,vertical,horizontal,vertical,none
1a,9,100106,3,29,157,19,F,NA,variable,heterogeneous,4,present,0.814862012863159,1,vertical,vertical,1,0.917638203782855,red,4,1,596.34794493794,446.537169096228,646.537169096228,803.65205506206,646.537169096228,803.65205506206,1003.65205506206,753.462830903772,953.462830903772,396.34794493794,596.34794493794,446.537169096228,0,0,0,0,3,0,3,4,NaN,NaN,horizontal,vertical,horizontal,vertical,none,none
1a,9,100106,3,30,158,19,F,NA,variable,heterogeneous,6,absent,1.48702883720398,1,horizontal,horizontal,1,0.976460093372273,red,6,NaN,646.537169096228,803.65205506206,NaN,NaN,899.636437764765,834.728737630372,1053.09926866854,631.076682568313,953.462830903772,396.34794493794,700.363562235235,365.271262369628,546.900731331463,568.923317431687,646.537169096228,803.65205506206,3,0,3,6,5,4,horizontal,horizontal,vertical,horizontal,vertical,horizontal
1a,9,100106,3,31,159,19,F,NA,variable,heterogeneous,5,present,0.900599002838135,1,vertical,vertical,1,0.988224471290156,red,3,5,915.767577433584,372.793336331966,572.793336331966,715.767577433584,839.890788585259,851.86052685176,1051.86052685176,639.890788585259,915.767577433584,372.793336331966,619.68777079743,419.68777079743,572.793336331966,715.767577433584,0,0,3,3,4,6,0,NaN,vertical,vertical,vertical,horizontal,horizontal,none
1a,9,100106,3,32,160,19,F,NA,variable,heterogeneous,5,present,1.51975607872009,1,horizontal,horizontal,1,0.835287558357671,green,2,3,1000.94274216971,756.993676208043,1011.40458100154,457.40580961496,712.784863451954,839.621618300407,1000.94274216971,756.993676208043,1011.40458100154,457.40580961496,729.712474266665,354.878267535729,545.155339110131,591.100628340862,0,0,6,4,3,5,5,NaN,horizontal,horizontal,horizontal,horizontal,vertical,none
1a,9,100106,3,33,161,19,F,NA,variable,heterogeneous,3,absent,1.77855110168457,1,horizontal,horizontal,1,0.811758802521904,green,1,NaN,1003.65205506206,753.462830903772,NaN,NaN,1003.65205506206,753.462830903772,831.076682568313,346.900731331463,565.271262369628,699.636437764765,0,0,0,0,0,0,4,3,0,NaN,NaN,NaN,horizontal,vertical,horizontal,none,none,none
1a,9,100106,3,34,162,19,F,NA,variable,heterogeneous,3,present,0.80768895149231,1,vertical,vertical,1,1.07057511671534,green,3,1,549.685068220846,551.343706178981,883.019879386575,841.107236777826,883.019879386575,841.107236777826,967.295052392579,407.549057043193,549.685068220846,551.343706178981,0,0,0,0,0,0,3,0,4,NaN,NaN,NaN,vertical,horizontal,vertical,none,none,none
1a,9,100106,3,35,163,19,F,NA,variable,heterogeneous,3,absent,1.13166689872742,0,horizontal,vertical,1,0.776465668768253,red,3,NaN,725.445215295702,356.142287229426,NaN,NaN,626.090418184063,786.495193912888,1048.46436652023,657.362518857686,725.445215295702,356.142287229426,0,0,0,0,0,0,6,0,4,NaN,NaN,NaN,vertical,horizontal,horizontal,none,none,none
1a,9,100106,3,36,164,19,F,NA,variable,heterogeneous,5,absent,1.90888500213623,0,horizontal,vertical,1,0.929402581700739,red,2,NaN,1053.09926866854,568.923317431687,NaN,NaN,907.767656743878,831.108485694346,1053.09926866854,568.923317431687,848.656293821019,349.685068220846,576.971974679454,476.373546837184,613.504806087112,773.909581815937,0,0,6,4,5,3,0,NaN,horizontal,horizontal,horizontal,horizontal,vertical,none
1a,9,100106,3,37,165,19,F,NA,variable,heterogeneous,6,absent,NaN,0,vertical,none,0,0.858816314193438,green,6,NaN,607.549057043193,767.295052392579,NaN,NaN,848.656293821019,850.314931779154,1041.10723677783,683.019879386575,992.450942956807,432.704947607421,751.343706178981,349.685068220846,558.892763222174,516.980120613425,607.549057043193,767.295052392579,6,3,5,5,0,4,vertical,horizontal,vertical,horizontal,horizontal,vertical
1a,9,100106,3,38,166,19,F,NA,variable,heterogeneous,4,present,1.49765682220459,1,horizontal,horizontal,1,1.04704636087957,red,4,2,545.349468637584,586.654331158049,1054.65053136242,613.345668841951,786.654331158049,854.650531362416,1054.65053136242,613.345668841951,813.345668841951,345.349468637584,545.349468637584,586.654331158049,0,0,0,0,5,6,5,4,NaN,NaN,vertical,horizontal,vertical,horizontal,none,none
1a,9,100106,3,39,167,19,F,NA,variable,heterogeneous,3,absent,0.854209184646606,1,vertical,vertical,1,0.905873825864972,red,2,NaN,822.224714400653,345.970351986605,NaN,NaN,1008.88377129369,746.261991269517,822.224714400653,345.970351986605,568.891514305654,707.767656743878,0,0,0,0,0,0,3,4,6,NaN,NaN,NaN,vertical,vertical,vertical,none,none,none
1a,9,100106,3,40,168,19,F,NA,variable,heterogeneous,4,absent,1.03240895271301,1,horizontal,horizontal,1,1.05881073879746,green,1,NaN,764.510859255183,852.518357529101,NaN,NaN,764.510859255183,852.518357529101,1052.5183575291,635.489140744817,835.489140744817,347.4816424709,547.481642470899,564.510859255183,0,0,0,0,4,3,0,5,NaN,NaN,horizontal,horizontal,horizontal,vertical,none,none
1a,9,100106,3,41,169,19,F,NA,variable,heterogeneous,3,present,1.09598994255066,1,horizontal,horizontal,1,0.941166959618622,red,3,2,556.142287229426,525.445215295702,986.495193912888,426.090418184063,857.362518857686,848.464366520235,986.495193912888,426.090418184063,556.142287229426,525.445215295702,0,0,0,0,0,0,3,3,4,NaN,NaN,NaN,vertical,horizontal,horizontal,none,none,none
1a,9,100106,3,42,170,19,F,NA,variable,heterogeneous,3,present,0.799954891204834,1,horizontal,horizontal,1,1.09410387255111,red,3,1,613.504806087112,426.090418184063,742.637481142314,848.464366520235,742.637481142314,848.464366520235,1043.85771277057,525.445215295702,613.504806087112,426.090418184063,0,0,0,0,0,0,6,0,4,NaN,NaN,NaN,horizontal,horizontal,horizontal,none,none,none
1a,9,100106,3,43,171,19,F,NA,variable,heterogeneous,3,absent,1.01847791671753,0,horizontal,vertical,1,0.905873825864972,red,2,NaN,923.626453162816,376.971974679454,NaN,NaN,931.334709102064,818.577661679039,923.626453162816,376.971974679454,545.03883773512,604.450363641507,0,0,0,0,0,0,3,4,0,NaN,NaN,NaN,vertical,horizontal,vertical,none,none,none
1a,9,100106,3,44,172,19,F,NA,variable,heterogeneous,4,present,0.986886978149414,1,horizontal,horizontal,1,0.79999442460402,red,2,1,1023.02802532055,723.626453162816,676.373546837184,823.028025320546,676.373546837184,823.028025320546,1023.02802532055,723.626453162816,923.626453162816,376.971974679454,576.971974679454,476.373546837184,0,0,0,0,3,4,6,3,NaN,NaN,horizontal,horizontal,horizontal,horizontal,none,none
1a,9,100106,3,45,173,19,F,NA,variable,heterogeneous,4,present,0.883482933044434,1,vertical,vertical,1,0.623528755835767,green,4,3,588.595418998464,457.40580961496,942.594190385041,388.595418998464,657.405809614959,811.404581001536,1011.40458100154,742.594190385041,942.594190385041,388.595418998464,588.595418998464,457.40580961496,0,0,0,0,0,6,6,4,NaN,NaN,horizontal,horizontal,vertical,vertical,none,none
1a,9,100106,3,46,174,19,F,NA,variable,heterogeneous,4,present,0.701803922653198,1,horizontal,horizontal,1,0.823523180439787,green,4,3,581.422338320961,468.665290897936,931.334709102064,381.422338320961,668.665290897936,818.577661679039,1018.57766167904,731.334709102064,931.334709102064,381.422338320961,581.422338320961,468.665290897936,0,0,0,0,6,0,6,4,NaN,NaN,vertical,horizontal,vertical,horizontal,none,none
1a,9,100106,3,47,175,19,F,NA,variable,heterogeneous,6,present,1.5200788974762,1,vertical,vertical,1,0.811758802521904,green,6,4,629.371695378491,789.501930496736,721.200666434388,357.480588344736,878.799333565612,842.519411655264,1049.42763818712,653.017481158529,970.628304621509,410.498069503264,721.200666434388,357.480588344736,550.57236181288,546.982518841471,629.371695378491,789.501930496736,6,3,5,0,3,4,horizontal,horizontal,vertical,vertical,horizontal,vertical
1a,9,100106,3,48,176,19,F,NA,variable,heterogeneous,5,absent,0.991343021392822,1,vertical,vertical,1,0.823523180439787,green,4,NaN,650.114760665419,393.700666434388,NaN,NaN,800,855,1042.51941165526,678.799333565612,949.885239334581,393.700666434388,650.114760665419,393.700666434388,557.480588344736,678.799333565612,0,0,6,0,3,4,6,NaN,vertical,horizontal,horizontal,vertical,horizontal,none
1a,9,100106,3,49,177,19,F,NA,variable,heterogeneous,5,absent,1.65012812614441,1,vertical,vertical,1,0.741172535014602,red,1,NaN,764.510859255183,852.518357529101,NaN,NaN,764.510859255183,852.518357529101,1029.19248180629,711.784642431215,977.137884467044,416.568350913644,680.284751489598,374.848363820974,548.874022981887,644.280285305067,0,0,4,3,0,0,5,NaN,vertical,horizontal,vertical,vertical,vertical,none
1a,9,100106,3,50,178,19,F,NA,variable,heterogeneous,4,absent,1.01015400886536,1,vertical,vertical,1,0.941166959618622,green,4,NaN,563.568117085469,695.524681321058,NaN,NaN,895.524681321058,836.431882914531,1036.43188291453,504.475318678942,704.475318678942,363.568117085469,563.568117085469,695.524681321058,0,0,0,0,0,6,3,4,NaN,NaN,vertical,vertical,horizontal,vertical,none,none
1a,9,100106,3,51,179,19,F,NA,variable,heterogeneous,5,present,0.962110996246338,0,vertical,horizontal,1,1.01175322712592,green,4,1,704.475318678942,363.568117085469,738.309916622085,847.425410200379,738.309916622085,847.425410200379,1016.25226451989,735.129412379467,995.341332995339,436.089159529932,704.475318678942,363.568117085469,545.621167183745,617.787900804752,0,0,6,3,5,4,6,NaN,horizontal,horizontal,horizontal,vertical,vertical,none
1a,9,100106,3,52,180,19,F,NA,variable,heterogeneous,3,present,0.941066980361938,1,vertical,vertical,1,0.952931337536506,red,3,1,692.232343256122,368.891514305654,653.738008730483,808.883771293693,653.738008730483,808.883771293693,1054.0296480134,622.224714400653,692.232343256122,368.891514305654,0,0,0,0,0,0,6,6,4,NaN,NaN,NaN,horizontal,vertical,vertical,none,none,none
1a,9,100106,3,53,181,19,F,NA,variable,heterogeneous,5,absent,0.690760850906372,1,vertical,vertical,1,0.929402581700739,green,4,NaN,581.422338320961,468.665290897936,NaN,NaN,899.636437764765,834.728737630372,1054.0296480134,577.775285599347,857.362518857686,351.535633479765,581.422338320961,468.665290897936,607.549057043193,767.295052392579,0,0,0,3,6,4,6,NaN,horizontal,vertical,vertical,vertical,vertical,none
1a,9,100106,3,54,182,19,F,NA,variable,heterogeneous,6,absent,1.67834401130676,1,vertical,vertical,1,1.09410387255111,red,3,NaN,1046.31108570371,534.001143498857,NaN,NaN,734.001143498857,846.311085703712,980.31222920257,780.31222920257,1046.31108570371,534.001143498857,865.998856501143,353.688914296288,619.68777079743,419.68777079743,553.688914296288,665.998856501143,6,6,4,3,5,3,horizontal,horizontal,vertical,vertical,horizontal,vertical
1a,9,100106,3,55,183,19,F,NA,variable,heterogeneous,6,absent,1.25646901130676,1,vertical,vertical,1,0.811758802521904,red,1,NaN,729.712474266665,845.121732464271,NaN,NaN,729.712474266665,845.121732464271,977.137884467044,783.431649086356,1047.42541020038,538.309916622085,870.287525733335,354.878267535729,622.862115532956,416.568350913644,552.574589799621,661.690083377915,4,0,6,5,0,3,vertical,vertical,horizontal,horizontal,vertical,horizontal
1a,9,100106,3,56,184,19,F,NA,variable,heterogeneous,6,present,1.06681799888611,1,vertical,vertical,1,0.658821889589418,red,4,2,782.212099195248,345.621167183745,1029.19248180629,711.784642431215,817.787900804752,854.378832816255,1029.19248180629,711.784642431215,1011.40458100154,457.40580961496,782.212099195248,345.621167183745,570.807518193712,488.215357568785,588.595418998464,742.594190385041,0,6,5,4,6,5,horizontal,horizontal,horizontal,vertical,horizontal,vertical
1a,9,100106,3,57,185,19,F,NA,variable,heterogeneous,5,absent,NaN,0,horizontal,none,0,1.03528198296169,red,1,NaN,919.715248510402,825.151636179026,NaN,NaN,919.715248510402,825.151636179026,1051.12597701811,555.719714694933,835.489140744817,347.4816424709,570.807518193712,488.215357568785,622.862115532956,783.431649086356,0,0,4,3,3,0,5,NaN,horizontal,vertical,vertical,vertical,vertical,none
1a,9,100106,3,58,186,19,F,NA,variable,heterogeneous,6,absent,1.81672692298889,1,horizontal,horizontal,1,0.964695715454389,green,5,NaN,650.114760665419,393.700666434388,NaN,NaN,696.282156015671,832.954091698863,949.885239334581,806.299333565612,1053.60308331891,573.345241866748,903.717843984329,367.045908301137,650.114760665419,393.700666434388,546.39691668109,626.654758133252,5,3,6,6,4,0,horizontal,horizontal,horizontal,vertical,horizontal,vertical
1a,9,100106,3,59,187,19,F,NA,variable,heterogeneous,4,present,1.15520596504211,1,horizontal,horizontal,1,0.694115023343068,green,3,1,927.5,379.163522034968,672.5,820.836477965032,672.5,820.836477965032,1020.83647796503,727.5,927.5,379.163522034968,579.163522034968,472.5,0,0,0,0,3,0,4,6,NaN,NaN,vertical,horizontal,horizontal,vertical,none,none
1a,9,100106,3,60,188,19,F,NA,variable,heterogeneous,6,present,1.2926299571991,0,vertical,horizontal,1,0.705879401260952,red,1,4,857.362518857686,848.464366520235,742.637481142314,351.535633479765,857.362518857686,848.464366520235,1043.85771277057,674.554784704298,986.495193912888,426.090418184063,742.637481142314,351.535633479765,556.142287229426,525.445215295702,613.504806087112,773.909581815937,4,0,6,5,0,5,vertical,vertical,horizontal,horizontal,horizontal,horizontal
1a,9,100106,3,61,189,19,F,NA,variable,heterogeneous,4,absent,1.35779905319214,1,horizontal,horizontal,1,0.764701290850369,red,1,NaN,923.626453162816,823.028025320546,NaN,NaN,923.626453162816,823.028025320546,1023.02802532055,476.373546837184,676.373546837184,376.971974679454,576.971974679454,723.626453162816,0,0,0,0,4,6,0,5,NaN,NaN,horizontal,horizontal,horizontal,vertical,none,none
1a,9,100106,3,62,190,19,F,NA,variable,heterogeneous,3,absent,0.809225797653198,1,vertical,vertical,1,0.79999442460402,red,2,NaN,1018.57766167904,468.665290897936,NaN,NaN,804.450363641507,854.96116226488,1018.57766167904,468.665290897936,576.971974679454,476.373546837184,0,0,0,0,0,0,5,4,5,NaN,NaN,NaN,horizontal,vertical,horizontal,none,none,none
1a,9,100106,3,63,191,19,F,NA,variable,heterogeneous,6,present,NaN,0,vertical,none,0,0.870580692111321,green,4,6,857.362518857686,351.535633479765,556.142287229426,674.554784704298,742.637481142314,848.464366520235,986.495193912888,773.909581815937,1043.85771277057,525.445215295702,857.362518857686,351.535633479765,613.504806087112,426.090418184063,556.142287229426,674.554784704298,3,3,6,4,6,5,horizontal,horizontal,horizontal,vertical,vertical,vertical
1a,9,100106,3,64,192,19,F,NA,variable,heterogeneous,6,present,1.54851198196411,1,horizontal,horizontal,1,1.07057511671534,green,6,5,546.900731331463,631.076682568313,646.537169096228,396.34794493794,700.363562235235,834.728737630372,953.462830903772,803.65205506206,1053.09926866854,568.923317431687,899.636437764765,365.271262369628,646.537169096228,396.34794493794,546.900731331463,631.076682568313,0,3,5,5,6,4,vertical,horizontal,horizontal,vertical,horizontal,horizontal
1a,9,100106,4,1,193,19,F,NA,variable,heterogeneous,4,absent,1.8088641166687,1,horizontal,horizontal,1,0.611764377917884,red,1,NaN,764.510859255183,852.518357529101,NaN,NaN,764.510859255183,852.518357529101,1052.5183575291,635.489140744817,835.489140744817,347.4816424709,547.481642470899,564.510859255183,0,0,0,0,4,6,0,3,NaN,NaN,horizontal,horizontal,horizontal,horizontal,none,none
1a,9,100106,4,2,194,19,F,NA,variable,heterogeneous,6,absent,1.92057609558105,1,vertical,vertical,1,0.988224471290156,red,5,NaN,646.537169096228,396.34794493794,NaN,NaN,700.363562235235,834.728737630372,953.462830903772,803.65205506206,1053.09926866854,568.923317431687,899.636437764765,365.271262369628,646.537169096228,396.34794493794,546.900731331463,631.076682568313,5,0,3,0,4,6,vertical,vertical,horizontal,vertical,vertical,horizontal
1a,9,100106,4,3,195,19,F,NA,variable,heterogeneous,5,present,1.30817103385925,1,vertical,vertical,1,0.635293133753651,green,1,5,725.445215295702,843.857712770574,545.03883773512,604.450363641507,725.445215295702,843.857712770574,1008.88377129369,746.261991269517,1003.65205506206,446.537169096228,716.980120613425,358.892763222174,545.03883773512,604.450363641507,0,0,4,3,0,6,5,NaN,vertical,horizontal,horizontal,horizontal,vertical,none
1a,9,100106,4,4,196,19,F,NA,variable,heterogeneous,6,present,1.57903003692627,1,vertical,vertical,1,0.835287558357671,red,1,4,853.017481158529,849.42763818712,746.982518841471,350.57236181288,853.017481158529,849.42763818712,1042.51941165526,678.799333565612,989.501930496736,429.371695378491,746.982518841471,350.57236181288,557.480588344736,521.200666434388,610.498069503264,770.628304621509,4,5,3,5,6,3,vertical,vertical,vertical,vertical,vertical,vertical
1a,9,100106,4,5,197,19,F,NA,variable,heterogeneous,5,absent,0.805863857269287,1,vertical,vertical,1,0.752936912932486,green,5,NaN,646.537169096228,803.65205506206,NaN,NaN,946.261991269517,808.883771293693,1043.85771277057,525.445215295702,804.450363641507,345.03883773512,558.892763222174,516.980120613425,646.537169096228,803.65205506206,0,0,0,3,6,3,4,NaN,vertical,horizontal,horizontal,vertical,vertical,none
1a,9,100106,4,6,198,19,F,NA,variable,heterogeneous,5,absent,1.06706404685974,1,vertical,vertical,1,0.647057511671534,red,2,NaN,1053.09926866854,568.923317431687,NaN,NaN,907.767656743878,831.108485694346,1053.09926866854,568.923317431687,848.656293821019,349.685068220846,576.971974679454,476.373546837184,613.504806087112,773.909581815937,0,0,6,4,3,6,5,NaN,vertical,vertical,vertical,horizontal,vertical,none
1a,9,100106,4,7,199,19,F,NA,variable,heterogeneous,4,absent,1.06150984764099,1,vertical,vertical,1,0.647057511671534,green,3,NaN,970.628304621509,410.498069503264,NaN,NaN,629.371695378491,789.501930496736,989.501930496736,770.628304621509,970.628304621509,410.498069503264,610.498069503264,429.371695378491,0,0,0,0,0,5,4,6,NaN,NaN,vertical,horizontal,vertical,vertical,none,none
1a,9,100106,4,8,200,19,F,NA,variable,heterogeneous,5,present,1.72092294692993,1,horizontal,horizontal,1,0.894109447947088,red,1,5,808.899371659138,854.844660889869,560.378381699593,687.215136548046,808.899371659138,854.844660889869,1045.12173246427,670.287525733335,942.594190385041,388.595418998464,643.006323791957,399.057257830286,560.378381699593,687.215136548046,0,0,4,6,0,3,5,NaN,horizontal,horizontal,vertical,vertical,horizontal,none
1a,9,100106,4,9,201,19,F,NA,variable,heterogeneous,4,present,NaN,0,horizontal,none,0,0.764701290850369,green,1,2,650.114760665419,806.299333565612,1006.29933356561,749.885239334581,650.114760665419,806.299333565612,1006.29933356561,749.885239334581,949.885239334581,393.700666434388,593.700666434388,450.114760665419,0,0,0,0,4,6,3,5,NaN,NaN,horizontal,vertical,horizontal,horizontal,none,none
1a,9,100106,4,10,202,19,F,NA,variable,heterogeneous,5,absent,1.03574109077454,1,horizontal,horizontal,1,0.835287558357671,green,5,NaN,545.03883773512,604.450363641507,NaN,NaN,725.445215295702,843.857712770574,1008.88377129369,746.261991269517,1003.65205506206,446.537169096228,716.980120613425,358.892763222174,545.03883773512,604.450363641507,0,0,6,5,3,5,4,NaN,horizontal,vertical,vertical,horizontal,horizontal,none
1a,9,100106,4,11,203,19,F,NA,variable,heterogeneous,6,absent,1.21356105804443,0,vertical,horizontal,1,1.04704636087957,green,3,NaN,1003.65205506206,446.537169096228,NaN,NaN,831.076682568313,853.099268668537,1034.72873763037,699.636437764765,1003.65205506206,446.537169096228,768.923317431687,346.900731331463,565.271262369628,500.363562235235,596.34794493794,753.462830903772,3,5,4,6,3,5,horizontal,horizontal,vertical,horizontal,vertical,vertical
1a,9,100106,4,12,204,19,F,NA,variable,heterogeneous,4,present,1.88001489639282,1,horizontal,horizontal,1,0.894109447947088,green,4,2,552.574589799621,538.309916622085,1047.42541020038,661.690083377915,738.309916622085,847.425410200379,1047.42541020038,661.690083377915,861.690083377915,352.574589799621,552.574589799621,538.309916622085,0,0,0,0,3,6,0,4,NaN,NaN,horizontal,horizontal,vertical,horizontal,none,none
1a,9,100106,4,13,205,19,F,NA,variable,heterogeneous,6,absent,1.19537806510925,1,horizontal,horizontal,1,0.682350645425185,green,1,NaN,835.489140744817,852.518357529101,NaN,NaN,835.489140744817,852.518357529101,1036.43188291453,695.524681321058,1000.94274216971,443.006323791957,764.510859255183,347.4816424709,563.568117085469,504.475318678942,599.057257830286,756.993676208043,4,0,6,5,3,3,horizontal,vertical,horizontal,vertical,horizontal,vertical
1a,9,100106,4,14,206,19,F,NA,variable,heterogeneous,4,present,1.58262705802917,0,horizontal,vertical,1,0.764701290850369,red,3,4,861.690083377915,352.574589799621,552.574589799621,538.309916622085,738.309916622085,847.425410200379,1047.42541020038,661.690083377915,861.690083377915,352.574589799621,552.574589799621,538.309916622085,0,0,0,0,6,3,4,0,NaN,NaN,horizontal,vertical,horizontal,horizontal,none,none
1a,9,100106,4,15,207,19,F,NA,variable,heterogeneous,3,present,1.79921698570251,1,horizontal,horizontal,1,0.835287558357671,red,2,3,989.501930496736,429.371695378491,557.480588344736,521.200666434388,853.017481158529,849.42763818712,989.501930496736,429.371695378491,557.480588344736,521.200666434388,0,0,0,0,0,0,6,4,6,NaN,NaN,NaN,horizontal,horizontal,vertical,none,none,none
1a,9,100106,4,16,208,19,F,NA,variable,heterogeneous,4,present,1.4246551990509,1,vertical,vertical,1,0.858816314193438,green,4,1,558.892763222174,683.019879386575,883.019879386575,841.107236777826,883.019879386575,841.107236777826,1041.10723677783,516.980120613425,716.980120613425,358.892763222174,558.892763222174,683.019879386575,0,0,0,0,5,0,3,4,NaN,NaN,horizontal,horizontal,vertical,vertical,none,none
1a,9,100106,4,17,209,19,F,NA,variable,heterogeneous,3,absent,1.24119591712952,1,horizontal,horizontal,1,0.788230046686136,red,1,NaN,760.109211414741,851.86052685176,NaN,NaN,760.109211414741,851.86052685176,1038.06300875679,508.616172865948,601.827779828472,439.523300282291,0,0,0,0,0,0,4,0,6,NaN,NaN,NaN,horizontal,vertical,vertical,none,none,none
1a,9,100106,4,18,210,19,F,NA,variable,heterogeneous,6,present,1.08729100227356,1,vertical,vertical,1,1.05881073879746,green,4,6,773.345241866748,346.39691668109,593.700666434388,749.885239334581,826.654758133252,853.60308331891,1032.95409169886,703.717843984329,1006.29933356561,450.114760665419,773.345241866748,346.39691668109,567.045908301137,496.282156015671,593.700666434388,749.885239334581,0,3,6,4,5,5,vertical,horizontal,vertical,vertical,vertical,vertical
1a,9,100106,4,19,211,19,F,NA,variable,heterogeneous,3,present,1.25025916099548,1,vertical,vertical,1,0.847051936275554,green,2,1,1043.85771277057,674.554784704298,613.504806087112,773.909581815937,613.504806087112,773.909581815937,1043.85771277057,674.554784704298,742.637481142314,351.535633479765,0,0,0,0,0,0,6,4,3,NaN,NaN,NaN,vertical,vertical,horizontal,none,none,none
1a,9,100106,4,20,212,19,F,NA,variable,heterogeneous,3,present,1.1607940196991,1,horizontal,horizontal,1,0.870580692111321,green,2,3,911.784642431215,370.807518193712,545.621167183745,617.787900804752,942.594190385041,811.404581001536,911.784642431215,370.807518193712,545.621167183745,617.787900804752,0,0,0,0,0,0,3,4,0,NaN,NaN,NaN,vertical,horizontal,horizontal,none,none,none
1a,9,100106,4,21,213,19,F,NA,variable,heterogeneous,3,absent,0.671463966369629,0,vertical,horizontal,1,0.764701290850369,red,2,NaN,995.341332995339,436.089159529932,NaN,NaN,844.280285305067,851.125977018113,995.341332995339,436.089159529932,560.378381699593,512.784863451954,0,0,0,0,0,0,0,4,6,NaN,NaN,NaN,horizontal,vertical,horizontal,none,none,none
1a,9,100106,4,22,214,19,F,NA,variable,heterogeneous,6,present,NaN,0,horizontal,none,0,0.964695715454389,green,1,5,853.017481158529,849.42763818712,557.480588344736,521.200666434388,853.017481158529,849.42763818712,1042.51941165526,678.799333565612,989.501930496736,429.371695378491,746.982518841471,350.57236181288,557.480588344736,521.200666434388,610.498069503264,770.628304621509,4,3,6,0,3,0,horizontal,vertical,vertical,horizontal,horizontal,vertical
1a,9,100106,4,23,215,19,F,NA,variable,heterogeneous,6,present,1.80470108985901,1,horizontal,horizontal,1,0.99998884920804,red,2,4,1049.42763818712,653.017481158529,721.200666434388,357.480588344736,878.799333565612,842.519411655264,1049.42763818712,653.017481158529,970.628304621509,410.498069503264,721.200666434388,357.480588344736,550.57236181288,546.982518841471,629.371695378491,789.501930496736,6,4,3,3,0,0,vertical,horizontal,horizontal,horizontal,vertical,horizontal
1a,9,100106,4,24,216,19,F,NA,variable,heterogeneous,3,present,0.585958003997803,0,vertical,horizontal,1,0.847051936275554,green,2,1,938.882953928832,386.139005173917,915.767577433584,827.206663668034,915.767577433584,827.206663668034,938.882953928832,386.139005173917,545.349468637584,586.654331158049,0,0,0,0,0,0,3,4,3,NaN,NaN,NaN,horizontal,vertical,vertical,none,none,none
1a,9,100106,4,25,217,19,F,NA,variable,heterogeneous,4,absent,NaN,0,vertical,none,0,0.694115023343068,green,1,NaN,839.890788585259,851.86052685176,NaN,NaN,839.890788585259,851.86052685176,1051.86052685176,560.109211414741,760.109211414741,348.13947314824,548.13947314824,639.890788585259,0,0,0,0,4,0,6,6,NaN,NaN,vertical,horizontal,horizontal,vertical,none,none
1a,9,100106,4,26,218,19,F,NA,variable,heterogeneous,5,present,1.53613591194153,1,vertical,vertical,1,0.611764377917884,red,3,5,983.431649086356,422.862115532956,547.481642470899,635.489140744817,755.719714694933,851.125977018113,1025.15163617903,719.715248510402,983.431649086356,422.862115532956,688.215357568785,370.807518193712,547.481642470899,635.489140744817,0,0,3,3,4,0,6,NaN,horizontal,vertical,vertical,vertical,horizontal,none
1a,9,100106,4,27,219,19,F,NA,variable,heterogeneous,6,present,1.02089095115662,0,vertical,horizontal,1,1.09410387255111,red,6,4,619.68777079743,780.31222920257,734.001143498857,353.688914296288,865.998856501143,846.311085703712,1046.31108570371,665.998856501143,980.31222920257,419.68777079743,734.001143498857,353.688914296288,553.688914296288,534.001143498857,619.68777079743,780.31222920257,3,3,5,6,6,4,horizontal,vertical,horizontal,horizontal,vertical,vertical
1a,9,100106,4,28,220,19,F,NA,variable,heterogeneous,4,present,1.38981008529663,1,vertical,vertical,1,0.623528755835767,red,2,4,1050.31493177915,551.343706178981,549.685068220846,648.656293821019,848.656293821019,850.314931779154,1050.31493177915,551.343706178981,751.343706178981,349.685068220846,549.685068220846,648.656293821019,0,0,0,0,6,4,6,0,NaN,NaN,vertical,vertical,vertical,horizontal,none,none
1a,9,100106,4,29,221,19,F,NA,variable,heterogeneous,5,absent,1.29013395309448,1,vertical,vertical,1,0.811758802521904,green,1,NaN,672.5,820.836477965032,NaN,NaN,672.5,820.836477965032,970.628304621509,789.501930496736,1032.95409169886,496.282156015671,773.345241866748,346.39691668109,550.57236181288,546.982518841471,0,0,4,3,0,5,5,NaN,vertical,vertical,horizontal,vertical,vertical,none
1a,9,100106,4,30,222,19,F,NA,variable,heterogeneous,5,absent,1.091059923172,0,horizontal,vertical,1,0.752936912932486,red,3,NaN,1025.15163617903,480.284751489598,NaN,NaN,688.215357568785,829.192481806288,983.431649086356,777.137884467044,1025.15163617903,480.284751489598,755.719714694933,348.874022981887,547.481642470899,564.510859255183,0,0,0,5,4,0,3,NaN,vertical,horizontal,horizontal,vertical,vertical,none
1a,9,100106,4,31,223,19,F,NA,variable,heterogeneous,6,absent,1.6054790019989,1,vertical,vertical,1,1.02351760504381,red,6,NaN,629.371695378491,789.501930496736,NaN,NaN,878.799333565612,842.519411655264,1049.42763818712,653.017481158529,970.628304621509,410.498069503264,721.200666434388,357.480588344736,550.57236181288,546.982518841471,629.371695378491,789.501930496736,0,5,3,6,3,4,horizontal,vertical,horizontal,horizontal,vertical,vertical
1a,9,100106,4,32,224,19,F,NA,variable,heterogeneous,4,absent,NaN,0,vertical,none,0,1.01175322712592,red,3,NaN,960.476699717708,401.827779828472,NaN,NaN,639.523300282292,798.172220171528,998.172220171528,760.476699717708,960.476699717708,401.827779828472,601.827779828472,439.523300282291,0,0,0,0,3,5,4,3,NaN,NaN,horizontal,vertical,vertical,vertical,none,none
1a,9,100106,4,33,225,19,F,NA,variable,heterogeneous,4,present,0.959172010421753,1,horizontal,horizontal,1,1.03528198296169,red,4,3,548.13947314824,639.890788585259,760.109211414741,348.13947314824,839.890788585259,851.86052685176,1051.86052685176,560.109211414741,760.109211414741,348.13947314824,548.13947314824,639.890788585259,0,0,0,0,5,6,0,4,NaN,NaN,horizontal,vertical,vertical,horizontal,none,none
1a,9,100106,4,34,226,19,F,NA,variable,heterogeneous,3,absent,0.967042922973633,1,vertical,vertical,1,1.03528198296169,green,3,NaN,716.980120613425,358.892763222174,NaN,NaN,632.704947607421,792.450942956807,1050.31493177915,648.656293821019,716.980120613425,358.892763222174,0,0,0,0,0,0,0,5,4,NaN,NaN,NaN,horizontal,vertical,vertical,none,none,none
1a,9,100106,4,35,227,19,F,NA,variable,heterogeneous,6,present,1.26072382926941,1,horizontal,horizontal,1,0.705879401260952,red,1,5,919.715248510402,825.151636179026,545.155339110131,591.100628340862,919.715248510402,825.151636179026,1054.84466088987,608.899371659138,935.129412379467,383.747735480111,680.284751489598,374.848363820974,545.155339110131,591.100628340862,664.870587620533,816.252264519889,4,5,6,0,5,3,horizontal,horizontal,horizontal,vertical,vertical,vertical
1a,9,100106,4,36,228,19,F,NA,variable,heterogeneous,5,present,1.32186794281006,1,horizontal,horizontal,1,0.788230046686136,green,2,3,1027.20666366803,715.767577433584,980.31222920257,419.68777079743,760.109211414741,851.86052685176,1027.20666366803,715.767577433584,980.31222920257,419.68777079743,684.232422566416,372.793336331966,548.13947314824,639.890788585259,0,0,3,4,6,6,3,NaN,vertical,horizontal,vertical,horizontal,vertical,none
1a,9,100106,4,37,229,19,F,NA,variable,heterogeneous,5,absent,1.98915910720825,1,horizontal,horizontal,1,0.835287558357671,green,5,NaN,553.688914296288,665.998856501143,NaN,NaN,786.654331158049,854.650531362416,1038.06300875679,691.383827134052,960.476699717708,401.827779828472,661.117046071168,386.139005173917,553.688914296288,665.998856501143,0,0,6,0,5,0,4,NaN,horizontal,vertical,vertical,vertical,horizontal,none
1a,9,100106,4,38,230,19,F,NA,variable,heterogeneous,3,absent,1.6706600189209,1,vertical,vertical,1,0.670586267507301,red,3,NaN,650.114760665419,393.700666434388,NaN,NaN,696.282156015671,832.954091698863,1053.60308331891,573.345241866748,650.114760665419,393.700666434388,0,0,0,0,0,0,3,5,4,NaN,NaN,NaN,horizontal,horizontal,vertical,none,none,none
1a,9,100106,4,39,231,19,F,NA,variable,heterogeneous,4,absent,1.69569396972656,1,horizontal,horizontal,1,0.964695715454389,green,4,NaN,546.39691668109,626.654758133252,NaN,NaN,826.654758133252,853.60308331891,1053.60308331891,573.345241866748,773.345241866748,346.39691668109,546.39691668109,626.654758133252,0,0,0,0,6,5,3,4,NaN,NaN,vertical,vertical,horizontal,horizontal,none,none
1a,9,100106,4,40,232,19,F,NA,variable,heterogeneous,5,absent,1.75913977622986,1,horizontal,horizontal,1,0.670586267507301,red,4,NaN,579.163522034968,472.5,NaN,NaN,903.717843984329,832.954091698863,1053.60308331891,573.345241866748,853.017481158529,350.57236181288,579.163522034968,472.5,610.498069503264,770.628304621509,0,0,6,0,5,4,3,NaN,vertical,vertical,horizontal,horizontal,horizontal,none
1a,9,100106,4,41,233,19,F,NA,variable,heterogeneous,3,absent,1.23319387435913,1,horizontal,horizontal,1,0.729408157096719,green,1,NaN,738.309916622085,847.425410200379,NaN,NaN,738.309916622085,847.425410200379,1045.12173246427,529.712474266665,616.568350913644,422.862115532956,0,0,0,0,0,0,4,3,5,NaN,NaN,NaN,horizontal,vertical,vertical,none,none,none
1a,9,100106,4,42,234,19,F,NA,variable,heterogeneous,6,absent,1.77443385124207,1,horizontal,horizontal,1,1.02351760504381,red,2,NaN,927.5,820.836477965032,NaN,NaN,672.5,820.836477965032,927.5,820.836477965032,1055,600,927.5,379.163522034968,672.5,379.163522034968,545,600,3,4,0,6,5,0,horizontal,horizontal,horizontal,horizontal,vertical,horizontal
1a,9,100106,4,43,235,19,F,NA,variable,heterogeneous,3,absent,0.602570056915283,1,horizontal,horizontal,1,0.835287558357671,red,3,NaN,546.900731331463,568.923317431687,NaN,NaN,899.636437764765,834.728737630372,953.462830903772,396.34794493794,546.900731331463,568.923317431687,0,0,0,0,0,0,3,0,4,NaN,NaN,NaN,horizontal,horizontal,horizontal,none,none,none
1a,9,100106,4,44,236,19,F,NA,variable,heterogeneous,6,present,1.81593298912048,1,horizontal,horizontal,1,0.647057511671534,green,3,5,1027.20666366803,484.232422566416,586.139005173917,461.117046071168,786.654331158049,854.650531362416,1013.86099482608,738.882953928832,1027.20666366803,484.232422566416,813.345668841951,345.349468637584,586.139005173917,461.117046071168,572.793336331966,715.767577433584,0,3,4,5,5,6,horizontal,vertical,horizontal,horizontal,horizontal,horizontal
1a,9,100106,4,45,237,19,F,NA,variable,heterogeneous,3,absent,0.967798948287964,1,horizontal,horizontal,1,0.776465668768253,green,3,NaN,708.616172865948,361.936991243214,NaN,NaN,639.523300282292,798.172220171528,1051.86052685176,639.890788585259,708.616172865948,361.936991243214,0,0,0,0,0,0,6,3,4,NaN,NaN,NaN,horizontal,horizontal,horizontal,none,none,none
1a,9,100106,4,46,238,19,F,NA,variable,heterogeneous,5,absent,1.51621294021606,1,vertical,vertical,1,0.635293133753651,red,1,NaN,768.923317431687,853.099268668537,NaN,NaN,768.923317431687,853.099268668537,1031.10848569435,707.767656743878,973.909581815937,413.504806087112,676.373546837184,376.971974679454,549.685068220846,648.656293821019,0,0,4,5,6,6,0,NaN,vertical,horizontal,horizontal,vertical,horizontal,none
1a,9,100106,4,47,239,19,F,NA,variable,heterogeneous,4,absent,1.67958307266235,1,horizontal,horizontal,1,1.03528198296169,green,1,NaN,980.31222920257,780.31222920257,NaN,NaN,980.31222920257,780.31222920257,980.31222920257,419.68777079743,619.68777079743,419.68777079743,619.68777079743,780.31222920257,0,0,0,0,4,3,6,5,NaN,NaN,horizontal,horizontal,vertical,vertical,none,none
1a,9,100106,4,48,240,19,F,NA,variable,heterogeneous,3,present,1.63363194465637,1,vertical,vertical,1,0.811758802521904,red,2,3,800,345,579.163522034968,727.5,1020.83647796503,727.5,800,345,579.163522034968,727.5,0,0,0,0,0,0,6,4,3,NaN,NaN,NaN,horizontal,vertical,horizontal,none,none,none
1a,9,100106,4,49,241,19,F,NA,variable,heterogeneous,3,present,1.10793089866638,1,horizontal,horizontal,1,0.882345070029205,red,2,3,1025.15163617903,719.715248510402,791.100628340862,345.155339110131,583.747735480111,735.129412379467,1025.15163617903,719.715248510402,791.100628340862,345.155339110131,0,0,0,0,0,0,5,4,3,NaN,NaN,NaN,vertical,horizontal,horizontal,none,none,none
1a,9,100106,4,50,242,19,F,NA,variable,heterogeneous,3,present,1.37052488327026,1,horizontal,horizontal,1,0.611764377917884,green,2,3,1039.62161830041,512.784863451954,604.658667004661,436.089159529932,755.719714694933,851.125977018113,1039.62161830041,512.784863451954,604.658667004661,436.089159529932,0,0,0,0,0,0,6,4,0,NaN,NaN,NaN,vertical,horizontal,horizontal,none,none,none
1a,9,100106,4,51,243,19,F,NA,variable,heterogeneous,4,absent,0.964456081390381,1,horizontal,horizontal,1,0.917638203782855,red,3,NaN,622.862115532956,416.568350913644,NaN,NaN,977.137884467044,783.431649086356,983.431649086356,422.862115532956,622.862115532956,416.568350913644,616.568350913644,777.137884467044,0,0,0,0,5,3,4,0,NaN,NaN,horizontal,horizontal,horizontal,horizontal,none,none
1a,9,100106,4,52,244,19,F,NA,variable,heterogeneous,3,present,1.16654896736145,0,vertical,horizontal,1,0.917638203782855,red,1,2,808.899371659138,854.844660889869,1016.25226451989,464.870587620533,808.899371659138,854.844660889869,1016.25226451989,464.870587620533,574.848363820974,480.284751489598,0,0,0,0,0,0,4,3,0,NaN,NaN,NaN,vertical,horizontal,horizontal,none,none,none
1a,9,100106,4,53,245,19,F,NA,variable,heterogeneous,5,present,1.71781301498413,1,horizontal,horizontal,1,0.6,green,5,3,586.139005173917,738.882953928832,891.383827134052,361.936991243214,865.998856501143,846.311085703712,1054.65053136242,613.345668841951,891.383827134052,361.936991243214,601.827779828472,439.523300282291,586.139005173917,738.882953928832,0,0,5,0,3,5,4,NaN,vertical,vertical,vertical,horizontal,horizontal,none
1a,9,100106,4,54,246,19,F,NA,variable,heterogeneous,6,present,1.46997904777527,0,vertical,horizontal,1,0.870580692111321,green,1,6,883.019879386575,841.107236777826,632.704947607421,792.450942956807,883.019879386575,841.107236777826,1050.31493177915,648.656293821019,967.295052392579,407.549057043193,716.980120613425,358.892763222174,549.685068220846,551.343706178981,632.704947607421,792.450942956807,4,3,0,3,5,5,vertical,vertical,horizontal,horizontal,vertical,vertical
