sub trial_no group_type block_type prime target mask1 mask2 congruency key_press key_error time_error RT
201 1 LeftSmaller PercIAPrac Prime_6N Target_9A JgGlBdh kHKABJc Congruent right correct Normal 1371.197
201 2 LeftSmaller PercIAPrac Prime_4N Target_9A ELIkbCj LbjalFM Incongruent left correct Normal 727.8568
201 3 LeftSmaller PercIAPrac Prime_1N Target_4A egaHDfh HfBihlG Congruent left correct Normal 1165.966
201 4 LeftSmaller PercIAPrac Prime_9A Target_1N cBGAfEh cdGkaeF Incongruent right correct Normal 630.5209
201 5 LeftSmaller PercIAPrac Prime_6A Target_4N GliaEjh fIEmHLb Incongruent left error Normal 1001.317
201 6 LeftSmaller PercIAPrac Prime_4N Target_6A HKlcIGm CaAEkIi Incongruent right error Normal 1189.521
201 7 LeftSmaller PercIAPrac Prime_9A Target_1A jbDdfCG eiJMBbk Incongruent right correct Normal 997.1799
201 8 LeftSmaller PercIAPrac Prime_6A Target_6A adkjiDI eGBCIia Congruent left error Normal 746.2296
201 9 LeftSmaller PercIAPrac Prime_1A Target_1N lKJHMLA JfgdFjm Congruent left correct Normal 716.8532
201 10 LeftSmaller PercIAPrac Prime_4A Target_4N CaBcEmH MAaFICJ Congruent right error Normal 677.317
201 11 LeftSmaller PercIAPrac Prime_4N Target_4A lmJfGgk JcMAGLl Congruent left correct Normal 1188.852
201 12 LeftSmaller PercIAPrac Prime_4A Target_1N kBDAMmj BEjHDMi Congruent right error Normal 674.2465
201 13 LeftSmaller PercIAPrac Prime_6N Target_4A iLEleDK jcgfIlm Incongruent left error Normal 972.3172
201 14 LeftSmaller PercIAPrac Prime_6N Target_1N iMcjHkf DBeIcKC Incongruent right correct Normal 826.7144
201 15 LeftSmaller PercIAPrac Prime_4A Target_1A CFLDJIe KALkBgi Congruent left correct Normal 753.6909
201 16 LeftSmaller PercIAPrac Prime_1A Target_4N EKBCJmd JEMdkbA Congruent right error Normal 783.8363
201 17 LeftSmaller PercIAExp1 Prime_9A Target_1N KGIblML mFLMekA Incongruent left error Normal 1147.734
201 18 LeftSmaller PercIAExp1 Prime_4A Target_1A EigdJlC eaIMLjG Congruent right error Normal 552.639
201 19 LeftSmaller PercIAExp1 Prime_1A Target_1N mlMBHcJ LMGdIeD Congruent right error Normal 976.4595
201 20 LeftSmaller PercIAExp1 Prime_9N Target_9N kDcFabg dikHjIM Congruent left error Late 6151.328
201 21 LeftSmaller PercIAExp1 Prime_6N Target_9N kfhHELA FABKehd Congruent right correct Normal 661.7694
201 22 LeftSmaller PercIAExp1 Prime_1N Target_6A BahfHEF fdgKAlI Incongruent left correct Normal 781.3157
201 23 LeftSmaller PercIAExp1 Prime_4N Target_6N jEKGMiB CcGDlbm Incongruent left correct Normal 954.577
201 24 LeftSmaller PercIAExp1 Prime_6A Target_4A MfIDEHA ECfdgIm Incongruent right correct Normal 694.1228
201 25 LeftSmaller PercIAExp1 Prime_9A Target_6A bdEMDjg efMhadH Congruent right correct Normal 807.9327
201 26 LeftSmaller PercIAExp1 Prime_6N Target_4A fhHmbdG KFlhbeg Incongruent left error Normal 570.9857
201 27 LeftSmaller PercIAExp1 Prime_1N Target_4N LjFIMem ebKdhfl Congruent right error Normal 696.4896
201 28 LeftSmaller PercIAExp1 Prime_4A Target_6A ldDFhHI chfDgeG Incongruent right error Normal 1146.924
201 29 LeftSmaller PercIAExp1 Prime_4N Target_4N HcaJlej gelHEkd Congruent right error Normal 1103.385
201 30 LeftSmaller PercIAExp1 Prime_4A Target_6N dBGFiJI aFclbEA Incongruent left correct Normal 1003.923
201 31 LeftSmaller PercIAExp1 Prime_9N Target_1N JMKdIDF laMHJFD Incongruent right correct Normal 698.7493
201 32 LeftSmaller PercIAExp1 Prime_1N Target_1N bFCjALI BhijlFe Congruent right error Normal 911.0304
201 33 LeftSmaller PercIAExp1 Prime_4A Target_4A kFhlMLc cADLjIC Congruent right error Normal 902.1948
201 34 LeftSmaller PercIAExp1 Prime_9A Target_4N leGAgDL DfkCJad Incongruent left error Normal 725.4983
201 35 LeftSmaller PercIAExp1 Prime_4N Target_9A fEcALlB geMFkAG Incongruent right error Normal 383.5502
201 36 LeftSmaller PercIAExp1 Prime_1N Target_1A LHgeajm gfHcjmD Congruent left correct Normal 927.7096
201 37 LeftSmaller PercIAExp1 Prime_1A Target_9A BHFADcE jiLBAcf Incongruent left correct Normal 715.8658
201 38 LeftSmaller PercIAExp1 Prime_6A Target_4N LlDKbMh BagIkKd Incongruent right correct Normal 693.2947
201 39 LeftSmaller PercIAExp1 Prime_9A Target_9A GhDmEcl MegCIFG Congruent right correct Normal 759.6203
201 40 LeftSmaller PercIAExp1 Prime_6N Target_6N MDjdabe eGajCBM Congruent left error Normal 469.1013
201 41 LeftSmaller PercIAExp1 Prime_1A Target_4N LJkMcKI aiDmHce Congruent right error Normal 688.2962
201 42 LeftSmaller PercIAExp1 Prime_4A Target_1N AhDicag aAiICFE Congruent right error Normal 749.9677
201 43 LeftSmaller PercIAExp1 Prime_1A Target_1A dHgJmca hHcEbFl Congruent right error Normal 755.9057
201 44 LeftSmaller PercIAExp1 Prime_6N Target_9A GkiDIhC ekmjbHh Congruent left error Normal 616.3044
201 45 LeftSmaller PercIAExp1 Prime_1N Target_9N aIhMHBl BFamjgD Incongruent left correct Normal 3281.583
201 46 LeftSmaller PercIAExp1 Prime_9N Target_1A CljFbGc HiaJheM Incongruent right correct Normal 677.7191
201 47 LeftSmaller PercIAExp1 Prime_1A Target_6N EMbligI GecIdjF Incongruent right error Normal 1022.105
201 48 LeftSmaller PercIAExp1 Prime_9N Target_4N lLiGACI LikgdBc Incongruent right correct Normal 933.2698
201 49 LeftSmaller PercIAExp1 Prime_4A Target_9A cmhAdFJ aAJghjL Incongruent left correct Late 5144.67
201 50 LeftSmaller PercIAExp1 Prime_6N Target_1N gBlIjGi lkMJHGm Incongruent right correct Normal 2598.309
201 51 LeftSmaller PercIAExp1 Prime_6A Target_6N kmAHCiG KhMcFdL Congruent left error Normal 775.7332
201 52 LeftSmaller PercIAExp1 Prime_4N Target_4A MjIKCgd KHEbfaI Congruent right error Normal 705.2179
201 53 LeftSmaller PercIAExp1 Prime_4N Target_1A KeMiFAg GbmKCgB Congruent right error Normal 596.2148
201 54 LeftSmaller PercIAExp1 Prime_1N Target_4A BfDaECj BKfagld Congruent right error Normal 892.9233
201 55 LeftSmaller PercIAExp1 Prime_1A Target_9N DkhHjJi JGMmEBk Incongruent right error Normal 940.8388
201 56 LeftSmaller PercIAExp1 Prime_6N Target_4N EcFBkCa iLFMdID Incongruent left error Normal 3725.817
201 57 LeftSmaller PercIAExp1 Prime_9A Target_9N iCIlgfF DMiJHcC Congruent left error Normal 1135.737
201 58 LeftSmaller PercIAExp1 Prime_9A Target_1A BmGfijh eKIfbJE Incongruent right correct Normal 397.0325
201 59 LeftSmaller PercIAExp1 Prime_1N Target_6N JaFMBme IdfjkED Incongruent left correct Normal 744.9782
201 60 LeftSmaller PercIAExp1 Prime_6N Target_6A GkfaegD HBjGAIe Congruent left error Normal 3308.954
201 61 LeftSmaller PercIAExp1 Prime_4N Target_6A dGCBcmg FdeHaig Incongruent right error Normal 997.3471
201 62 LeftSmaller PercIAExp1 Prime_9N Target_6A cFBdbie IaiLbhJ Congruent left error Normal 693.0235
201 63 LeftSmaller PercIAExp1 Prime_1N Target_9A dKkiglC gIcdKhB Incongruent left correct Normal 824.688
201 64 LeftSmaller PercIAExp1 Prime_6A Target_9A hlHLBMJ cDdBeKA Congruent left error Normal 518.7196
201 65 LeftSmaller PercIAExp1 Prime_9A Target_4A egKJfMA HjCKEBm Incongruent right correct Normal 761.4074
201 66 LeftSmaller PercIAExp1 Prime_1A Target_6A hkfBLmD jmBMlAa Incongruent right error Normal 1123.815
201 67 LeftSmaller PercIAExp1 Prime_1A Target_4A hemgiIB iBKMaAJ Congruent right error Normal 1152.197
201 68 LeftSmaller PercIAExp1 Prime_9A Target_6N mKBaJlH lcIfMDh Congruent left error Normal 767.9166
201 69 LeftSmaller PercIAExp1 Prime_6N Target_1A albdeKL lbEeGMB Incongruent right correct Normal 841.0992
201 70 LeftSmaller PercIAExp1 Prime_4N Target_9N fGJbdKe cLiKElb Incongruent left correct Normal 1064.775
201 71 LeftSmaller PercIAExp1 Prime_4A Target_9N JeCBgLi DibHjCd Incongruent right error Normal 658.8181
201 72 LeftSmaller PercIAExp1 Prime_6A Target_9N CcgbJdI bgeFHim Congruent left error Normal 749.1636
201 73 LeftSmaller PercIAExp1 Prime_9N Target_4A AbKJcGL HicIChm Incongruent right correct Normal 819.7764
201 74 LeftSmaller PercIAExp1 Prime_9N Target_6N cMlJhem BhaIJCA Congruent left error Normal 1148.729
201 75 LeftSmaller PercIAExp1 Prime_6A Target_6A BeCDAHE fHMDcAl Congruent left error Normal 1167.613
201 76 LeftSmaller PercIAExp1 Prime_9N Target_9A amFMjEL fJMKbeh Congruent right correct Normal 1072.097
201 77 LeftSmaller PercIAExp1 Prime_4N Target_1N IEklHeJ jehibdD Congruent right error Normal 729.2106
201 78 LeftSmaller PercIAExp1 Prime_4A Target_4N LAaBgIJ kMlaDfI Congruent left correct Normal 809.5774
201 79 LeftSmaller PercIAExp1 Prime_6A Target_1A CbKAEje cefmIiA Incongruent right correct Normal 699.4168
201 80 LeftSmaller PercIAExp1 Prime_6A Target_1N ECLbikA DIjLbak Incongruent left error Normal 1074.846
201 81 LeftLarger PercIBPrac Prime_9A Target_1A BAiGgFe BbJAGDm Incongruent left correct Normal 999.7572
201 82 LeftLarger PercIBPrac Prime_4A Target_1N ADdFHmL eBCEJdf Congruent right correct Normal 661.0523
201 83 LeftLarger PercIBPrac Prime_4N Target_6N LgjGhBc JeKAiEk Incongruent left error Normal 514.9577
201 84 LeftLarger PercIBPrac Prime_4A Target_9N mhBfaec djBGbfl Incongruent right correct Normal 981.0931
201 85 LeftLarger PercIBPrac Prime_9N Target_9N hdeCbHK BbaGdLi Congruent right error Normal 557.5825
201 86 LeftLarger PercIBPrac Prime_6N Target_4A AkLFBKh AGHeLah Incongruent left correct Normal 599.7333
201 87 LeftLarger PercIBPrac Prime_9N Target_6N bgBidea gGkLjba Congruent right error Normal 410.1583
201 88 LeftLarger PercIBPrac Prime_1A Target_1N GLdiemI ADLMiHC Congruent left error Normal 740.9313
201 89 LeftLarger PercIBPrac Prime_6N Target_1A HKmjIdB IDlJhEm Incongruent left correct Normal 686.8248
201 90 LeftLarger PercIBPrac Prime_9A Target_4A maKbfHG EdgDbij Incongruent right error Normal 658.2789
201 91 LeftLarger PercIBPrac Prime_9A Target_9A CHfcmJK FfgjDlL Congruent left correct Normal 181.1533
201 92 LeftLarger PercIBPrac Prime_4A Target_4N bkEJHCM AgfGKCI Congruent right correct Normal 518.4659
201 93 LeftLarger PercIBPrac Prime_6N Target_6N dChgIkD jhcAfLK Congruent left correct Normal 2723.858
201 94 LeftLarger PercIBPrac Prime_9A Target_6N FKgmjDf fIJFkme Congruent right error Normal 594.7277
201 95 LeftLarger PercIBPrac Prime_1A Target_1A dJaeHKh fcAKMJF Congruent left error Normal 508.7787
201 96 LeftLarger PercIBPrac Prime_6A Target_6N CjJMgED cKLDhAm Congruent right error Normal 574.6834
201 97 LeftLarger PercIBExp1 Prime_9A Target_1A KEJjHCd gldDAKk Incongruent left correct Normal 866.3674
201 98 LeftLarger PercIBExp1 Prime_9N Target_1A KhAHeka MlhDICb Incongruent left correct Normal 659.5608
201 99 LeftLarger PercIBExp1 Prime_6N Target_4N bcKeFDA DKAcIJF Incongruent left correct Normal 1207.219
201 100 LeftLarger PercIBExp1 Prime_1A Target_6N AEbjkli fCdiBmD Incongruent right correct Normal 736.386
201 101 LeftLarger PercIBExp1 Prime_4A Target_9N fgbBhGI eDMmfgl Incongruent right correct Normal 746.199
201 102 LeftLarger PercIBExp1 Prime_1N Target_1A GfDECBM cHKdGLh Congruent left error Normal 652.0963
201 103 LeftLarger PercIBExp1 Prime_1A Target_4N IkHFAaC MJCgEdk Congruent right correct Normal 1081.262
201 104 LeftLarger PercIBExp1 Prime_1A Target_6A MekHAJI jfDHehc Incongruent left error Normal 598.335
201 105 LeftLarger PercIBExp1 Prime_1A Target_1A aLiABDc LhbMKdH Congruent left error Normal 621.2385
201 106 LeftLarger PercIBExp1 Prime_4A Target_6N gflLAmJ hKMIgFa Incongruent left error Normal 966.2325
201 107 LeftLarger PercIBExp1 Prime_4N Target_4N chejHbF lMLBehg Congruent right correct Normal 621.4008
201 108 LeftLarger PercIBExp1 Prime_9A Target_6A HCIMbmF FamBfge Congruent left correct Normal 762.385
201 109 LeftLarger PercIBExp1 Prime_9N Target_9N flBhgIE hEjCkJi Congruent right error Normal 811.192
201 110 LeftLarger PercIBExp1 Prime_1N Target_9A MeBLHAc dlCefci Incongruent right correct Normal 556.0352
201 111 LeftLarger PercIBExp1 Prime_4A Target_1A BFJbKkj KhmgEJi Congruent left error Normal 588.9091
201 112 LeftLarger PercIBExp1 Prime_4N Target_1N LdDHfIE dmHJKeG Congruent left error Normal 566.5362
201 113 LeftLarger PercIBExp1 Prime_4N Target_1A kcheaCg HmkfBiE Congruent left error Normal 881.2105
201 114 LeftLarger PercIBExp1 Prime_6N Target_9A BdmLcAH aGmkEBh Congruent right error Normal 654.7482
201 115 LeftLarger PercIBExp1 Prime_9N Target_9A cKlIHLD fLcCDkM Congruent left correct Normal 910.016
201 116 LeftLarger PercIBExp1 Prime_9N Target_4N ClcDEdA fJKCdal Incongruent right error Normal 997.2064
201 117 LeftLarger PercIBExp1 Prime_1A Target_9A JaEGmKi DChickH Incongruent right correct Normal 727.9049
201 118 LeftLarger PercIBExp1 Prime_6N Target_1A JCIKAba MhiaAml Incongruent left correct Normal 766.0793
201 119 LeftLarger PercIBExp1 Prime_9N Target_1N HhaLdDf DLlGKgd Incongruent left correct Normal 571.2132
201 120 LeftLarger PercIBExp1 Prime_1N Target_1N BJIhdmA lIhFJEC Congruent right correct Normal 885.4185
201 121 LeftLarger PercIBExp1 Prime_1N Target_4A gDlGfAK gMGKkFb Congruent left error Normal 537.2217
201 122 LeftLarger PercIBExp1 Prime_9N Target_6A MmELihb IHliChd Congruent left correct Normal 329.3563
201 123 LeftLarger PercIBExp1 Prime_4A Target_1N iLAgckd LeIAkFa Congruent right correct Early 85.1793
201 124 LeftLarger PercIBExp1 Prime_4A Target_6A mijHcCB cljJDFM Incongruent left error Normal 961.9541
201 125 LeftLarger PercIBExp1 Prime_1A Target_4A iEABmIC IcMBmEA Congruent left error Normal 658.2453
201 126 LeftLarger PercIBExp1 Prime_4A Target_4A JehEMjf KEFAdjC Congruent left error Normal 765.2895
201 127 LeftLarger PercIBExp1 Prime_1A Target_1N KLMkCbD gEMCiBc Congruent right correct Normal 904.8593
201 128 LeftLarger PercIBExp1 Prime_9A Target_4N aMDlifB EcAfbJB Incongruent right error Normal 811.2699
201 129 LeftLarger PercIBExp1 Prime_1N Target_4N mCMhAbd CAJbfKh Congruent left error Normal 696.3226
201 130 LeftLarger PercIBExp1 Prime_6N Target_4A jMGihKC HJAeDLj Incongruent right error Normal 944.0976
201 131 LeftLarger PercIBExp1 Prime_6A Target_1A dBKDHiA GeDBIlL Incongruent left correct Normal 650.4042
201 132 LeftLarger PercIBExp1 Prime_9A Target_9N baAELgI kBKDaAh Congruent left correct Normal 760.6903
201 133 LeftLarger PercIBExp1 Prime_6N Target_1N MDkelIb IcfMdHj Incongruent right error Normal 867.3456
201 134 LeftLarger PercIBExp1 Prime_4N Target_9A DdMebhF hGgceMd Incongruent right correct Normal 792.7977
201 135 LeftLarger PercIBExp1 Prime_6A Target_1N imGAbhC BgajEfF Incongruent right error Normal 646.6611
201 136 LeftLarger PercIBExp1 Prime_6A Target_9A dkaeiLB cEDahjI Congruent left correct Normal 518.9488
201 137 LeftLarger PercIBExp1 Prime_1N Target_9N hlLmbEK KmHICbJ Incongruent left error Normal 616.0153
201 138 LeftLarger PercIBExp1 Prime_4N Target_6N HAlLidc KMBlGfk Incongruent right correct Normal 486.7026
201 139 LeftLarger PercIBExp1 Prime_4A Target_4N IlMBCgf mDHgMbB Congruent left error Normal 796.6261
201 140 LeftLarger PercIBExp1 Prime_4N Target_9N EbkcGjC LkKFfAH Incongruent right correct Normal 604.6441
201 141 LeftLarger PercIBExp1 Prime_6A Target_6N LBjDhGI hlfjGeF Congruent left correct Normal 609.5039
201 142 LeftLarger PercIBExp1 Prime_6N Target_9N fkCFJME igGAkMd Congruent right error Normal 894.2471
201 143 LeftLarger PercIBExp1 Prime_9A Target_1N FgDIBGh jJKFEMf Incongruent right error Normal 657.5605
201 144 LeftLarger PercIBExp1 Prime_9N Target_4A lgLEeIG bfcHKBd Incongruent left correct Normal 2746.3
201 145 LeftLarger PercIBExp1 Prime_9A Target_6N FCGgikm CjMefhm Congruent left correct Normal 606.6584
201 146 LeftLarger PercIBExp1 Prime_1N Target_6A KaDEJhI FmDBbGL Incongruent left error Normal 1178.465
201 147 LeftLarger PercIBExp1 Prime_4A Target_9A EciFGIg aMfhcme Incongruent right correct Normal 1662.772
201 148 LeftLarger PercIBExp1 Prime_4N Target_4A KkCceBJ ILFjlaH Congruent left error Normal 730.5656
201 149 LeftLarger PercIBExp1 Prime_9N Target_6N DaIJKfG BGFJACl Congruent right error Normal 671.2539
201 150 LeftLarger PercIBExp1 Prime_6A Target_6A GmgkiFf kcJjHDb Congruent left correct Normal 742.2957
201 151 LeftLarger PercIBExp1 Prime_6N Target_6N DijcBmH FijClHe Congruent right error Normal 593.5789
201 152 LeftLarger PercIBExp1 Prime_1N Target_6N jhbaIDL eDgLlMh Incongruent right correct Normal 703.3874
201 153 LeftLarger PercIBExp1 Prime_4N Target_6A JGlBhdM Hdjlfeb Incongruent right correct Normal 651.7883
201 154 LeftLarger PercIBExp1 Prime_6A Target_4A dDcAmJB IcFBMLi Incongruent left correct Normal 1162.723
201 155 LeftLarger PercIBExp1 Prime_6A Target_4N FhGmCJi FfbBkjl Incongruent left correct Normal 547.1523
201 156 LeftLarger PercIBExp1 Prime_9A Target_9A JfbmKGM LBIadjb Congruent right error Normal 910.9459
201 157 LeftLarger PercIBExp1 Prime_9A Target_4A AgfJLma HbFlBeg Incongruent left correct Normal 656.3732
201 158 LeftLarger PercIBExp1 Prime_6N Target_6A LHgkJGC cIaALEj Congruent left correct Normal 501.3994
201 159 LeftLarger PercIBExp1 Prime_6A Target_9N gGkdIec mlAHdID Congruent right error Normal 519.352
201 160 LeftLarger PercIBExp1 Prime_1A Target_9N GBeDdML FAfeEcI Incongruent right correct Normal 687.8659
202 1 LeftSmaller PercIAPrac Prime_4A Target_9N hdmceMj BideMKI Incongruent right error Normal 1090.196
202 2 LeftSmaller PercIAPrac Prime_9A Target_9N lcekICd jIcAEme Congruent left error Normal 539.7309
202 3 LeftSmaller PercIAPrac Prime_4N Target_1N bfildeA JBIDKba Congruent left correct Normal 952.7818
202 4 LeftSmaller PercIAPrac Prime_4A Target_9A dblhEIf JLldGMA Incongruent left correct Normal 728.5999
202 5 LeftSmaller PercIAPrac Prime_9N Target_9A fglHkKJ AIgEFKk Congruent right correct Normal 629.7378
202 6 LeftSmaller PercIAPrac Prime_6N Target_1A bkCFdmh MiafkAE Incongruent left error Normal 510.1927
202 7 LeftSmaller PercIAPrac Prime_1N Target_9N GChcjLA LcHBAej Incongruent left correct Normal 1099.613
202 8 LeftSmaller PercIAPrac Prime_6A Target_4A dCgMiIF jCgKMka Incongruent right correct Normal 701.2067
202 9 LeftSmaller PercIAPrac Prime_1A Target_1N EjiIFme dHkAmGF Congruent left correct Normal 884.4048
202 10 LeftSmaller PercIAPrac Prime_1A Target_6N iLKGhHg jhGFBKb Incongruent right error Normal 720.753
202 11 LeftSmaller PercIAPrac Prime_6A Target_6N bDMlcfB ilhamkB Congruent right correct Normal 760.534
202 12 LeftSmaller PercIAPrac Prime_9A Target_6A iAcIJkL LblMgmK Congruent right correct Normal 1294.577
202 13 LeftSmaller PercIAPrac Prime_9N Target_6A igDmELM EKJAbdD Congruent left error Normal 1527.872
202 14 LeftSmaller PercIAPrac Prime_4N Target_9N aJMLglE imaCgAM Incongruent left correct Normal 965.1811
202 15 LeftSmaller PercIAPrac Prime_1A Target_9N IHDAiCb AFlcieJ Incongruent right error Normal 878.3708
202 16 LeftSmaller PercIAPrac Prime_6N Target_6N fdBeLHj EdjMFgl Congruent right correct Normal 2316.757
202 17 LeftSmaller PercIAExp1 Prime_1N Target_9N HKgMEJL caBjfDd Incongruent left correct Normal 556.6433
202 18 LeftSmaller PercIAExp1 Prime_1A Target_6N EeKGkdg bfdGcBl Incongruent left correct Normal 334.3272
202 19 LeftSmaller PercIAExp1 Prime_9N Target_9A EjbMfhA MmgahDK Congruent right correct Normal 571.3426
202 20 LeftSmaller PercIAExp1 Prime_9N Target_4N fkBFhge jLIEfCh Incongruent right correct Normal 330.1392
202 21 LeftSmaller PercIAExp1 Prime_6A Target_6A FhDlkAc EglJLdk Congruent right correct Normal 423.3077
202 22 LeftSmaller PercIAExp1 Prime_6A Target_9A KbEagkG ilIfEdJ Congruent left error Normal 187.1573
202 23 LeftSmaller PercIAExp1 Prime_9A Target_1A maMlIHG JAhfDKH Incongruent right correct Normal 263.1381
202 24 LeftSmaller PercIAExp1 Prime_1A Target_9A ekIJbmL JABeLEd Incongruent right error Normal 370.0253
202 25 LeftSmaller PercIAExp1 Prime_4A Target_6A ECKemkj FMgIcbf Incongruent left correct Normal 241.6842
202 26 LeftSmaller PercIAExp1 Prime_4N Target_6A FkdaCcK FJijaBE Incongruent right error Normal 364.5025
202 27 LeftSmaller PercIAExp1 Prime_9A Target_6A hdEMCbD BMIaCHA Congruent left error Normal 319.9136
202 28 LeftSmaller PercIAExp1 Prime_6A Target_1A kElFDAe DCeBaJG Incongruent left error Normal 251.1326
202 29 LeftSmaller PercIAExp1 Prime_1A Target_1A iJmBAlh mIahijM Congruent left correct Normal 388.0958
202 30 LeftSmaller PercIAExp1 Prime_1N Target_9A LdIMGml MIkAmbH Incongruent left correct Normal 509.7612
202 31 LeftSmaller PercIAExp1 Prime_9A Target_9N gacEmBk FMChmcj Congruent right correct Normal 363.7834
202 32 LeftSmaller PercIAExp1 Prime_6N Target_6N lCLcBkG lKgheaf Congruent right correct Normal 520.9024
202 33 LeftSmaller PercIAExp1 Prime_9N Target_9N HAEGbic GHlFEJL Congruent left error Normal 513.9994
202 34 LeftSmaller PercIAExp1 Prime_6N Target_1A BemHfFg JFkKGlj Incongruent right correct Normal 566.5402
202 35 LeftSmaller PercIAExp1 Prime_9N Target_1N MkIbFgJ DielMJa Incongruent right correct Normal 732.4178
202 36 LeftSmaller PercIAExp1 Prime_4A Target_4N adeFGKC KbkcHfL Congruent left correct Normal 518.0128
202 37 LeftSmaller PercIAExp1 Prime_6A Target_9N iHAKabM HldhbLC Congruent right correct Normal 254.7385
202 38 LeftSmaller PercIAExp1 Prime_6N Target_4A GMdcCeF BHdjlie Incongruent left error Normal 509.0697
202 39 LeftSmaller PercIAExp1 Prime_9A Target_1N dlfieJk fcFJBlK Incongruent left error Normal 673.6219
202 40 LeftSmaller PercIAExp1 Prime_1N Target_6N MBlkeHg DAhKkgb Incongruent left correct Normal 572.4166
202 41 LeftSmaller PercIAExp1 Prime_1N Target_4N IkDJjGH LbkGFlB Congruent right error Normal 514.7166
202 42 LeftSmaller PercIAExp1 Prime_4A Target_4A EKdHCLe HEKFjgA Congruent right error Normal 384.5917
202 43 LeftSmaller PercIAExp1 Prime_4A Target_9N AEbfLBl JFmjLae Incongruent left correct Normal 368.7642
202 44 LeftSmaller PercIAExp1 Prime_4N Target_9N jifGKmH hjKEIHk Incongruent right error Normal 396.5772
202 45 LeftSmaller PercIAExp1 Prime_6N Target_9N hIkdFGH lmICaFL Congruent right correct Normal 432.9523
202 46 LeftSmaller PercIAExp1 Prime_9N Target_1A HlGLFbd eKfFlJB Incongruent right correct Normal 889.766
202 47 LeftSmaller PercIAExp1 Prime_6N Target_4N alLfHkI GikgbDf Incongruent left error Normal 585.2647
202 48 LeftSmaller PercIAExp1 Prime_6N Target_9A aLjkhBA hLKBAdl Congruent right correct Normal 502.5799
202 49 LeftSmaller PercIAExp1 Prime_4A Target_6N chkFiDM CckgAEl Incongruent left correct Normal 424.9093
202 50 LeftSmaller PercIAExp1 Prime_6N Target_1N lmhkHcI gCdcDMA Incongruent left error Normal 561.3306
202 51 LeftSmaller PercIAExp1 Prime_9N Target_6N kclgGLD hkDBlme Congruent right correct Normal 346.3661
202 52 LeftSmaller PercIAExp1 Prime_4A Target_1N kEageLd cEHJlhm Congruent left correct Normal 276.7685
202 53 LeftSmaller PercIAExp1 Prime_4A Target_1A HFemKDd jfhBbJk Congruent left correct Normal 901.6876
202 54 LeftSmaller PercIAExp1 Prime_4N Target_4A lBJFLfj dMKFeaG Congruent left correct Normal 593.2229
202 55 LeftSmaller PercIAExp1 Prime_9A Target_4A BJaFLfg JmcGfKa Incongruent right correct Normal 519.8451
202 56 LeftSmaller PercIAExp1 Prime_1A Target_6A CKeAHMd GjEJMCF Incongruent left correct Normal 313.0558
202 57 LeftSmaller PercIAExp1 Prime_6A Target_4N HlKhjGC gEHJadM Incongruent right correct Normal 338.2264
202 58 LeftSmaller PercIAExp1 Prime_4A Target_9A hBecJgE MAfiDkg Incongruent left correct Normal 414.1817
202 59 LeftSmaller PercIAExp1 Prime_1A Target_4A haILDAG mKBMHIC Congruent left correct Normal 379.0476
202 60 LeftSmaller PercIAExp1 Prime_6A Target_6N mFAeLdi EKLIDBa Congruent left error Normal 540.0946
202 61 LeftSmaller PercIAExp1 Prime_9N Target_6A FgEGlDC iBdkGeF Congruent right correct Normal 390.908
202 62 LeftSmaller PercIAExp1 Prime_6A Target_1N mKCJebB efiMmEa Incongruent left error Normal 431.4366
202 63 LeftSmaller PercIAExp1 Prime_4N Target_1N DkgcLGM dJfhjCB Congruent right error Normal 299.6053
202 64 LeftSmaller PercIAExp1 Prime_9A Target_4N CeMLIka FIDHkMl Incongruent right correct Normal 578.3646
202 65 LeftSmaller PercIAExp1 Prime_1A Target_1N ABCkJhH hiKIHLC Congruent left correct Normal 461.4164
202 66 LeftSmaller PercIAExp1 Prime_1N Target_4A MakLFJf LKgFmMi Congruent right error Normal 384.3904
202 67 LeftSmaller PercIAExp1 Prime_4N Target_6N flKCbkH MBGgclE Incongruent left correct Normal 319.1206
202 68 LeftSmaller PercIAExp1 Prime_1A Target_9N djJEclf gBGeAjD Incongruent left correct Normal 422.8926
202 69 LeftSmaller PercIAExp1 Prime_6N Target_6A aFIdgHC BAcfCiM Congruent left error Normal 350.2038
202 70 LeftSmaller PercIAExp1 Prime_1N Target_6A EhiJfCj aFBMfDb Incongruent right error Normal 387.4694
202 71 LeftSmaller PercIAExp1 Prime_9N Target_4A HLgdGfC dCFcGlA Incongruent right correct Normal 248.0199
202 72 LeftSmaller PercIAExp1 Prime_4N Target_4N fcCdgEh kMJmfiI Congruent right error Normal 463.5332
202 73 LeftSmaller PercIAExp1 Prime_9A Target_6N dLmhKlk EbIjiCB Congruent right correct Normal 444.2228
202 74 LeftSmaller PercIAExp1 Prime_9A Target_9A ECLdgaI LdbiIlk Congruent left error Normal 268.7107
202 75 LeftSmaller PercIAExp1 Prime_1N Target_1N IhjmFHc JIKLkhC Congruent right error Normal 597.9096
202 76 LeftSmaller PercIAExp1 Prime_4N Target_1A gIbeCJA ghCAlDa Congruent left correct Normal 220.0656
202 77 LeftSmaller PercIAExp1 Prime_1A Target_4N ekFdaDI MmhJeBI Congruent left correct Normal 449.8674
202 78 LeftSmaller PercIAExp1 Prime_4N Target_9A GaMhgDe CMefdGK Incongruent left correct Normal 424.0374
202 79 LeftSmaller PercIAExp1 Prime_6A Target_4A HGmDLal GCiELBe Incongruent right correct Normal 452.1998
202 80 LeftSmaller PercIAExp1 Prime_1N Target_1A jBckbDE CMihcgA Congruent left correct Normal 164.252
202 81 LeftLarger PercIBPrac Prime_4N Target_6N hDKkaJH ACIEDiB Incongruent right correct Normal 510.2085
202 82 LeftLarger PercIBPrac Prime_1N Target_1N DajIAKm AimFJCc Congruent right correct Normal 712.0166
202 83 LeftLarger PercIBPrac Prime_4N Target_4N GHLMliA cjGCkIh Congruent left error Normal 756.7771
202 84 LeftLarger PercIBPrac Prime_6A Target_6A DbedihF JmDbkhf Congruent right error Normal 195.6202
202 85 LeftLarger PercIBPrac Prime_1N Target_4N dDbEkJl KaCeMDl Congruent left error Normal 1162.647
202 86 LeftLarger PercIBPrac Prime_4A Target_6N HJDgEeB KGcHMiB Incongruent left error Normal 1100.148
202 87 LeftLarger PercIBPrac Prime_4N Target_9N fFlGhDE iLHdCDg Incongruent right correct Normal 662.7557
202 88 LeftLarger PercIBPrac Prime_9A Target_4A alAJGFD IEbLlhK Incongruent left correct Normal 330.0491
202 89 LeftLarger PercIBPrac Prime_9N Target_9A DCahJfK EHKDjgf Congruent left correct Normal 590.6714
202 90 LeftLarger PercIBPrac Prime_1A Target_4A FIhaJkd LJFhHeG Congruent right correct Normal 573.52
202 91 LeftLarger PercIBPrac Prime_1A Target_6A ImdEKLB FAlHCLa Incongruent left error Normal 102.5573
202 92 LeftLarger PercIBPrac Prime_6N Target_1A MgKLcGj iIhGHAL Incongruent left correct Normal 317.1406
202 93 LeftLarger PercIBPrac Prime_6A Target_4A aMIAkDF BhJHjAL Incongruent right error Normal 386.4601
202 94 LeftLarger PercIBPrac Prime_6A Target_1A ldJgkca MelaGEJ Incongruent right error Normal 367.294
202 95 LeftLarger PercIBPrac Prime_9A Target_9A HbmIJAL cdMCaml Congruent left correct Normal 136.7979
202 96 LeftLarger PercIBPrac Prime_9A Target_6A IjDaibA KEdabiL Congruent right error Normal 282.6148
202 97 LeftLarger PercIBExp1 Prime_9N Target_9N EbfakdD LjKIBFJ Congruent left correct Normal 445.4374
202 98 LeftLarger PercIBExp1 Prime_4N Target_6N kHceJAf bIkEfja Incongruent right correct Normal 193.7465
202 99 LeftLarger PercIBExp1 Prime_6A Target_9A ADcglHJ HkMLjKb Congruent right error Normal 477.3325
202 100 LeftLarger PercIBExp1 Prime_6N Target_6A fEFIaBi cEbDHgj Congruent left correct Normal 765.8276
202 101 LeftLarger PercIBExp1 Prime_9N Target_1A LkbAEhB mMabflL Incongruent right error Normal 596.2648
202 102 LeftLarger PercIBExp1 Prime_1A Target_6N fJBbdCG emDdjFE Incongruent left error Normal 2901.394
202 103 LeftLarger PercIBExp1 Prime_6N Target_9A FAIhcjB eJAHLKE Congruent right error Normal 548.9059
202 104 LeftLarger PercIBExp1 Prime_4N Target_4A JbfdchC JALigej Congruent left error Normal 241.094
202 105 LeftLarger PercIBExp1 Prime_1A Target_4A mjBAHae MLcgheC Congruent left error Normal 231.3672
202 106 LeftLarger PercIBExp1 Prime_9A Target_9N MdmcaGi dLIJemg Congruent left correct Normal 439.4027
202 107 LeftLarger PercIBExp1 Prime_4N Target_9N fMaELij DhakCHj Incongruent right correct Normal 277.9997
202 108 LeftLarger PercIBExp1 Prime_6N Target_9N aDBCFiE CeELglG Congruent left correct Normal 196.3218
202 109 LeftLarger PercIBExp1 Prime_6N Target_1A EhflLca cbLfMKh Incongruent right error Normal 202.4656
202 110 LeftLarger PercIBExp1 Prime_9A Target_4N eFdDagh bjLkGac Incongruent left correct Normal 592.669
202 111 LeftLarger PercIBExp1 Prime_9N Target_9A iMhKLHb HMbkIdi Congruent left correct Normal 146.8168
202 112 LeftLarger PercIBExp1 Prime_4A Target_1N abCdcme jLeIklg Congruent right correct Normal 606.6379
202 113 LeftLarger PercIBExp1 Prime_1A Target_9N jBkKbDe IMLJADj Incongruent left error Normal 268.1672
202 114 LeftLarger PercIBExp1 Prime_1A Target_1A AiCeElh AEMcedJ Congruent right correct Normal 493.0742
202 115 LeftLarger PercIBExp1 Prime_6A Target_6N DlHcmfi ALHDiCB Congruent right error Normal 392.2957
202 116 LeftLarger PercIBExp1 Prime_6A Target_6A MmAcFHk GCLHEFl Congruent right error Normal 131.9053
202 117 LeftLarger PercIBExp1 Prime_9A Target_6N dbjhDiK AcFMkJC Congruent left correct Normal 157.3297
202 118 LeftLarger PercIBExp1 Prime_1N Target_4A bfciLhd JBlKjam Congruent left error Normal 460.4806
202 119 LeftLarger PercIBExp1 Prime_4A Target_4N mDigHfe FDkdcCi Congruent left error Normal 472.5309
202 120 LeftLarger PercIBExp1 Prime_4N Target_6A HeJGCEM kKAFIiB Incongruent right correct Normal 356.4155
202 121 LeftLarger PercIBExp1 Prime_6N Target_4N kaEFbGi KLHFihf Incongruent left correct Normal 427.9762
202 122 LeftLarger PercIBExp1 Prime_9A Target_9A jFbDEil egHkcdI Congruent right error Normal 459.3706
202 123 LeftLarger PercIBExp1 Prime_4A Target_9N aFcHmgi fJCEGjg Incongruent right correct Normal 409.2991
202 124 LeftLarger PercIBExp1 Prime_9A Target_1N mdlHbKL aIJiAjk Incongruent left correct Normal 627.0446
202 125 LeftLarger PercIBExp1 Prime_9N Target_1N DCLcgaG ajHebkC Incongruent right error Normal 510.9027
202 126 LeftLarger PercIBExp1 Prime_4A Target_4A ghKebAG kebGdKi Congruent right correct Normal 475.9066
202 127 LeftLarger PercIBExp1 Prime_1N Target_9A AdCecKh kDmfjaF Incongruent right correct Normal 387.0788
202 128 LeftLarger PercIBExp1 Prime_6A Target_1N DehJKFk mbihfIH Incongruent left correct Early 97.38369
202 129 LeftLarger PercIBExp1 Prime_1N Target_6N difeaCG JjgDcia Incongruent left error Normal 321.3046
202 130 LeftLarger PercIBExp1 Prime_9N Target_6N JbBjFlA GaHcbfd Congruent right error Normal 223.2069
202 131 LeftLarger PercIBExp1 Prime_1A Target_9A mHbKfeJ MAECjif Incongruent left error Normal 262.6097
202 132 LeftLarger PercIBExp1 Prime_6A Target_1A geELaCj IcMkLjE Incongruent left correct Normal 224.3534
202 133 LeftLarger PercIBExp1 Prime_1N Target_6A KEdacgI jcHMfhb Incongruent right correct Normal 258.9266
202 134 LeftLarger PercIBExp1 Prime_6N Target_4A GHMaFJe dEGaJlf Incongruent left correct Normal 298.8389
202 135 LeftLarger PercIBExp1 Prime_9N Target_4N HeGlmjc AdMlLjK Incongruent right error Normal 629.6278
202 136 LeftLarger PercIBExp1 Prime_4A Target_6N LMmegGl bBGjafJ Incongruent left error Normal 949.0288
202 137 LeftLarger PercIBExp1 Prime_6N Target_1N DFEdgMA DCIMidA Incongruent left correct Normal 736.5893
202 138 LeftLarger PercIBExp1 Prime_1A Target_1N CibLchd KgdAbjm Congruent right correct Normal 393.0231
202 139 LeftLarger PercIBExp1 Prime_6N Target_6N ACEkLhI MGlLaJF Congruent right error Normal 614.1458
202 140 LeftLarger PercIBExp1 Prime_4A Target_9A JHkifGd LcEDMhB Incongruent left error Normal 447.9675
202 141 LeftLarger PercIBExp1 Prime_4A Target_6A AjBdGLE EbHdCaJ Incongruent right correct Normal 294.8758
202 142 LeftLarger PercIBExp1 Prime_9A Target_6A dbKlGjA DAgbcaL Congruent left correct Normal 618.6733
202 143 LeftLarger PercIBExp1 Prime_1N Target_1A EaeCDfk KagDFCd Congruent left error Normal 875.0415
202 144 LeftLarger PercIBExp1 Prime_9A Target_1A KLalACI fidmCDb Incongruent right error Normal 328.7742
202 145 LeftLarger PercIBExp1 Prime_9A Target_4A CLhAFKD ajBKLAc Incongruent right error Normal 139.7528
202 146 LeftLarger PercIBExp1 Prime_6A Target_4A cFLMahK ieHmaID Incongruent right error Normal 293.2221
202 147 LeftLarger PercIBExp1 Prime_4N Target_9A BhMCJDL kADGjcK Incongruent right correct Normal 585.992
202 148 LeftLarger PercIBExp1 Prime_9N Target_6A hGKgDHl ecbFAdJ Congruent left correct Normal 379.2935
202 149 LeftLarger PercIBExp1 Prime_1N Target_9N iGKBMdj lAGKCId Incongruent right correct Normal 249.1847
202 150 LeftLarger PercIBExp1 Prime_1N Target_4N gBkJhMe kJFIcbG Congruent left error Normal 348.6137
202 151 LeftLarger PercIBExp1 Prime_9N Target_4A IgEHhFL AMHhBbd Incongruent left correct Normal 514.7736
202 152 LeftLarger PercIBExp1 Prime_1A Target_6A AGDeMIa CefgHcJ Incongruent left error Normal 647.2928
202 153 LeftLarger PercIBExp1 Prime_6A Target_9N CMeFmKJ cFEijeB Congruent right error Normal 397.2428
202 154 LeftLarger PercIBExp1 Prime_1A Target_4N FjgMbca GDJLeam Congruent left error Normal 348.1594
202 155 LeftLarger PercIBExp1 Prime_4A Target_1A DFECelA HcAeGfg Congruent right correct Normal 209.4527
202 156 LeftLarger PercIBExp1 Prime_6A Target_4N DkJLbHI IfMHmeh Incongruent right error Normal 285.9663
202 157 LeftLarger PercIBExp1 Prime_4N Target_4N IGlhcBE DbmBKgj Congruent left error Normal 619.8825
202 158 LeftLarger PercIBExp1 Prime_4N Target_1A egFJBMj keKiDCA Congruent left error Normal 447.1618
202 159 LeftLarger PercIBExp1 Prime_1N Target_1N ebLIkCD djEhkKA Congruent right correct Normal 313.9629
202 160 LeftLarger PercIBExp1 Prime_4N Target_1N hkGbCBl GLDJaFi Congruent left error Normal 2994.466
203 1 LeftLarger PercIAPrac Prime_1N Target_4A EdBKjGH gJaHGle Congruent right correct Normal 843.1401
203 2 LeftLarger PercIAPrac Prime_6N Target_4A EJecBfd aCflDFk Incongruent left correct Normal 569.0311
203 3 LeftLarger PercIAPrac Prime_9A Target_1N bHaFjhD MlhfEGI Incongruent right error Normal 359.6207
203 4 LeftLarger PercIAPrac Prime_1N Target_9N EhdjHFg ADGMkBK Incongruent right correct Normal 628.7592
203 5 LeftLarger PercIAPrac Prime_1A Target_1A HFDmfMe mfkKglh Congruent left error Normal 1032.348
203 6 LeftLarger PercIAPrac Prime_4A Target_4N AehbLCB jIAHaGB Congruent left error Normal 491.2357
203 7 LeftLarger PercIAPrac Prime_1A Target_4N HJlAMeF aFjLJdf Congruent right correct Normal 455.2673
203 8 LeftLarger PercIAPrac Prime_6N Target_6A ajHhKeg GAbeDiL Congruent right error Normal 669.5598
203 9 LeftLarger PercIAPrac Prime_4A Target_1A bdMaLCf ehJcFaB Congruent left error Normal 553.7166
203 10 LeftLarger PercIAPrac Prime_9N Target_9N cBakhlj FhljcmM Congruent right error Normal 560.0103
203 11 LeftLarger PercIAPrac Prime_1N Target_6A mGKeDBj gLaihGC Incongruent left error Normal 634.3071
203 12 LeftLarger PercIAPrac Prime_9N Target_4A mhEfedA JkCIAjm Incongruent right error Normal 321.2178
203 13 LeftLarger PercIAPrac Prime_4N Target_9A ilGkKjL KLcbFCd Incongruent left error Normal 1165.115
203 14 LeftLarger PercIAPrac Prime_1N Target_1N CiFdhak iGgkdlL Congruent left error Normal 692.7899
203 15 LeftLarger PercIAPrac Prime_9N Target_1N DdechJi kJMiLmB Incongruent right error Normal 527.1971
203 16 LeftLarger PercIAPrac Prime_4N Target_1A jblKeLi jmkleAg Congruent left error Normal 1167.02
203 17 LeftLarger PercIAExp1 Prime_9A Target_1N jdhEglb eKlmbEd Incongruent left correct Normal 327.2789
203 18 LeftLarger PercIAExp1 Prime_9N Target_9A EgJFjKh MAeibda Congruent right error Normal 368.4296
203 19 LeftLarger PercIAExp1 Prime_6A Target_9N aAHjKCD bGfLgKd Congruent right error Normal 480.9004
203 20 LeftLarger PercIAExp1 Prime_9N Target_4A fdbHFLC EFikKLj Incongruent right error Normal 829.7213
203 21 LeftLarger PercIAExp1 Prime_6N Target_9N LbBMchd KHAcbGF Congruent left correct Normal 452.8096
203 22 LeftLarger PercIAExp1 Prime_6A Target_6A JedaCFc fDCmEbG Congruent left correct Normal 672.2941
203 23 LeftLarger PercIAExp1 Prime_9A Target_9N dLlAfMb BGIjbJk Congruent right error Normal 698.2732
203 24 LeftLarger PercIAExp1 Prime_1N Target_4A DlCafkM fIEdeGa Congruent left error Normal 440.1789
203 25 LeftLarger PercIAExp1 Prime_9N Target_4N cdFCiaG ehakCmM Incongruent right error Normal 975.3335
203 26 LeftLarger PercIAExp1 Prime_6N Target_4A eJkCmKj kDBcghd Incongruent right error Normal 374.516
203 27 LeftLarger PercIAExp1 Prime_9A Target_6A fCeFkLM GAaKDCk Congruent left correct Normal 366.7987
203 28 LeftLarger PercIAExp1 Prime_1N Target_4N jlmcEiB lkAFIgd Congruent right correct Normal 271.4541
203 29 LeftLarger PercIAExp1 Prime_4A Target_9N JgBHIAf chkCKfG Incongruent right correct Normal 525.011
203 30 LeftLarger PercIAExp1 Prime_9A Target_9A EDlHGCk hedEjFb Congruent left correct Normal 357.9115
203 31 LeftLarger PercIAExp1 Prime_1A Target_6A achfelA mHELFgk Incongruent right correct Normal 243.4621
203 32 LeftLarger PercIAExp1 Prime_6N Target_6N deAbGFM ahFIHDK Congruent right error Normal 685.495
203 33 LeftLarger PercIAExp1 Prime_1N Target_6A BFMemAh aEFfGAD Incongruent left error Normal 128.901
203 34 LeftLarger PercIAExp1 Prime_1N Target_1N bJjmfcL aChegjl Congruent right correct Normal 269.8116
203 35 LeftLarger PercIAExp1 Prime_1A Target_9N lMKLdgc FKlaHdm Incongruent left error Normal 540.1054
203 36 LeftLarger PercIAExp1 Prime_4A Target_6N cdjbhaB FhMABdI Incongruent left error Normal 407.3865
203 37 LeftLarger PercIAExp1 Prime_9N Target_1N jDKBdJf hFMKEHA Incongruent left correct Normal 553.3069
203 38 LeftLarger PercIAExp1 Prime_4N Target_4N KCdJDHI hAlkdDm Congruent right correct Normal 472.9232
203 39 LeftLarger PercIAExp1 Prime_9A Target_4N LmKjhME gCifMkl Incongruent right error Normal 1070.639
203 40 LeftLarger PercIAExp1 Prime_4A Target_6A mChAcFI IglCEiL Incongruent left error Normal 450.6823
203 41 LeftLarger PercIAExp1 Prime_4A Target_4A iEKGjhM AfHlaKi Congruent left error Normal 707.9906
203 42 LeftLarger PercIAExp1 Prime_9N Target_6A eJkCKbf KkmMFaL Congruent right error Normal 433.4189
203 43 LeftLarger PercIAExp1 Prime_4A Target_1A mcCGLMg fMCKJid Congruent left error Normal 437.4308
203 44 LeftLarger PercIAExp1 Prime_1A Target_1A HjGLbcf MamdCGB Congruent right correct Normal 345.0447
203 45 LeftLarger PercIAExp1 Prime_1A Target_1N gLCDcIb LhgdCie Congruent left error Normal 162.4009
203 46 LeftLarger PercIAExp1 Prime_4A Target_1N JFfDicG EMLjgJd Congruent right correct Normal 364.6695
203 47 LeftLarger PercIAExp1 Prime_1N Target_9N cIAhglH adBAlKc Incongruent left error Normal 222.9622
203 48 LeftLarger PercIAExp1 Prime_6A Target_6N lFjeGEc blBGjJK Congruent left correct Normal 225.7083
203 49 LeftLarger PercIAExp1 Prime_9A Target_4A EedIBGf kKjhLgM Incongruent right error Normal 407.5221
203 50 LeftLarger PercIAExp1 Prime_4N Target_1N eaEFKlJ JeEiMgj Congruent right correct Normal 214.0708
203 51 LeftLarger PercIAExp1 Prime_4N Target_1A mfjbhKd dfaLceK Congruent right correct Normal 516.7207
203 52 LeftLarger PercIAExp1 Prime_4N Target_6A CbiGgEJ adMAfmh Incongruent right correct Normal 780.3759
203 53 LeftLarger PercIAExp1 Prime_6N Target_1N kAGjfLE MehBkHC Incongruent right error Normal 1002.071
203 54 LeftLarger PercIAExp1 Prime_1N Target_9A cGjKlAH jMDGfcd Incongruent left error Normal 1304.247
203 55 LeftLarger PercIAExp1 Prime_9A Target_6N AfHDKjE KHgkbdm Congruent left correct Normal 1122.669
203 56 LeftLarger PercIAExp1 Prime_6A Target_9A FfiImdC fjHGFAm Congruent left correct Normal 1057.837
203 57 LeftLarger PercIAExp1 Prime_9N Target_6N LihHdeB CclkmFJ Congruent right error Normal 1204.368
203 58 LeftLarger PercIAExp1 Prime_6N Target_4N kFmfLBb jefgLAF Incongruent right error Normal 920.5268
203 59 LeftLarger PercIAExp1 Prime_6N Target_9A JfELhDI fFGMIHg Congruent right error Normal 718.5006
203 60 LeftLarger PercIAExp1 Prime_4N Target_9N AJCljdD bIEcfHM Incongruent left error Normal 116.3103
203 61 LeftLarger PercIAExp1 Prime_9N Target_1A aCDIkMg GBfdIMl Incongruent right error Normal 295.463
203 62 LeftLarger PercIAExp1 Prime_4N Target_6N EeBbfdj DidgJAG Incongruent left error Normal 578.3129
203 63 LeftLarger PercIAExp1 Prime_1A Target_4N chAjDkH eJbMFKk Congruent right correct Normal 890.4702
203 64 LeftLarger PercIAExp1 Prime_4A Target_4N HBmhCGA BKdIlFL Congruent right correct Normal 1071.091
203 65 LeftLarger PercIAExp1 Prime_4A Target_9A hKkLefm mBdajbG Incongruent right correct Normal 1145.359
203 66 LeftLarger PercIAExp1 Prime_1N Target_1A fmcbGEg jgeEMhF Congruent right correct Normal 728.8108
203 67 LeftLarger PercIAExp1 Prime_6A Target_4N IKLgjBi dlbajfJ Incongruent left correct Normal 732.6067
203 68 LeftLarger PercIAExp1 Prime_6A Target_4A mgKdMLA ilCDKId Incongruent left correct Normal 862.1677
203 69 LeftLarger PercIAExp1 Prime_9N Target_9N gJhKaib DGedHif Congruent left correct Normal 320.61
203 70 LeftLarger PercIAExp1 Prime_1A Target_9A EaBKMhe LGBfdkD Incongruent left error Normal 934.0957
203 71 LeftLarger PercIAExp1 Prime_6N Target_6A KjdhglH BiakFhl Congruent right error Normal 383.4344
203 72 LeftLarger PercIAExp1 Prime_1A Target_4A HFCaLhD bejhBaG Congruent right correct Normal 681.1464
203 73 LeftLarger PercIAExp1 Prime_1A Target_6N lMdJkcB IDgKfLA Incongruent right correct Normal 1109.974
203 74 LeftLarger PercIAExp1 Prime_4N Target_9A hgeFDIG KAFGbed Incongruent left error Normal 770.1559
203 75 LeftLarger PercIAExp1 Prime_6A Target_1A DAMJCcI fAMmIbg Incongruent left correct Normal 434.6894
203 76 LeftLarger PercIAExp1 Prime_4N Target_4A CJgmfAG FkmfBHI Congruent right correct Normal 151.9666
203 77 LeftLarger PercIAExp1 Prime_6A Target_1N dcKmLlf CiGEDBI Incongruent left correct Normal 865.9879
203 78 LeftLarger PercIAExp1 Prime_9A Target_1A aCeBJHl MJEGFhm Incongruent left correct Normal 1034.819
203 79 LeftLarger PercIAExp1 Prime_1N Target_6N ehkAMdG LHlJkFG Incongruent left error Normal 718.2653
203 80 LeftLarger PercIAExp1 Prime_6N Target_1A FLBdjGI iFeBHCc Incongruent left correct Normal 1071.932
203 81 LeftSmaller PercIBPrac Prime_4A Target_4A ibjBMlG jfhkIGB Congruent right error Normal 388.943
203 82 LeftSmaller PercIBPrac Prime_9N Target_6N eJDbgkG jMJdBkb Congruent left error Late 7128.801
203 83 LeftSmaller PercIBPrac Prime_4N Target_6N jHdFMEJ iBdHgKe Incongruent right error Normal 653.4181
203 84 LeftSmaller PercIBPrac Prime_9N Target_1A MEgabfi mGgEMDj Incongruent right correct Normal 620.1922
203 85 LeftSmaller PercIBPrac Prime_4N Target_6A jcKefdG mBaIfMd Incongruent right error Normal 590.6112
203 86 LeftSmaller PercIBPrac Prime_4A Target_1N mdgIBJj hjKAIed Congruent left correct Normal 630.9007
203 87 LeftSmaller PercIBPrac Prime_4N Target_9A DFJEgmd LIfHmBE Incongruent left correct Normal 669.8212
203 88 LeftSmaller PercIBPrac Prime_6N Target_9A jIeAhDL iecaDHJ Congruent left error Normal 658.006
203 89 LeftSmaller PercIBPrac Prime_1A Target_9N hfGJCLd fcICMbh Incongruent left correct Normal 222.7445
203 90 LeftSmaller PercIBPrac Prime_1N Target_9N gMhJcKI hajgkle Incongruent right error Early 65.92152
203 91 LeftSmaller PercIBPrac Prime_6A Target_9N CilhkHE jDJmKLh Congruent right correct Normal 177.7466
203 92 LeftSmaller PercIBPrac Prime_9A Target_4N kgAfEGL chGEIAd Incongruent right correct Normal 690.062
203 93 LeftSmaller PercIBPrac Prime_4N Target_4N mdfckJE mBFfbGj Congruent right error Normal 181.2469
203 94 LeftSmaller PercIBPrac Prime_9A Target_9A CIKiBhM EbFIKCj Congruent right correct Normal 2675.339
203 95 LeftSmaller PercIBPrac Prime_1A Target_1N bjgELdC bkGFCIe Congruent left correct Normal 3960.51
203 96 LeftSmaller PercIBPrac Prime_1N Target_4N gBhlkjc IGChJfi Congruent right error Normal 3123.028
203 97 LeftSmaller PercIBExp1 Prime_6A Target_9N MAeGbDm AGIHdaj Congruent left error Normal 512.949
203 98 LeftSmaller PercIBExp1 Prime_9N Target_9N DmHgclI GeIJFkm Congruent right correct Normal 218.8905
203 99 LeftSmaller PercIBExp1 Prime_4A Target_6N eCKEcgJ MjlKdhg Incongruent right error Normal 428.8524
203 100 LeftSmaller PercIBExp1 Prime_4N Target_9N IGBFemh CfKLjHe Incongruent right error Normal 334.5452
203 101 LeftSmaller PercIBExp1 Prime_4A Target_1A McbeECg hGBejKl Congruent right error Late 5111.666
203 102 LeftSmaller PercIBExp1 Prime_1A Target_4N ibCaDAG GaMKFcB Congruent right error Normal 498.6512
203 103 LeftSmaller PercIBExp1 Prime_1A Target_9N iMKCFBA BkeCiEA Incongruent right error Normal 250.7906
203 104 LeftSmaller PercIBExp1 Prime_6A Target_6A BEcFLbm gifMLAh Congruent left error Normal 273.3017
203 105 LeftSmaller PercIBExp1 Prime_9A Target_4A cgLmeFa kjIaDmb Incongruent left error Normal 293.0303
203 106 LeftSmaller PercIBExp1 Prime_4A Target_9N BmeKbdc hcMmaJF Incongruent right error Normal 241.6085
203 107 LeftSmaller PercIBExp1 Prime_6A Target_6N GIFKlDE EBMAhHK Congruent left error Normal 117.5623
203 108 LeftSmaller PercIBExp1 Prime_6A Target_4A iEDhaJl EFmlKed Incongruent right correct Normal 251.9243
203 109 LeftSmaller PercIBExp1 Prime_1N Target_1A laJDABd JAbhmHL Congruent right error Normal 251.1574
203 110 LeftSmaller PercIBExp1 Prime_1A Target_6N JjHbmMl bMEGHDi Incongruent right error Normal 532.3686
203 111 LeftSmaller PercIBExp1 Prime_6N Target_9N dbiDcMl hIjGlBH Congruent left error Normal 311.1728
203 112 LeftSmaller PercIBExp1 Prime_1A Target_9A bMmChDF lbcmDka Incongruent left correct Normal 295.7009
203 113 LeftSmaller PercIBExp1 Prime_9A Target_4N IDJjGEL HmbaGFA Incongruent right correct Normal 202.339
203 114 LeftSmaller PercIBExp1 Prime_9N Target_6N dKAicfl iHfCdML Congruent left error Normal 3142.469
203 115 LeftSmaller PercIBExp1 Prime_1N Target_6A fMlBEFC kFldcDi Incongruent left correct Normal 183.8052
203 116 LeftSmaller PercIBExp1 Prime_6N Target_4A GhKLEHd cLdAJDi Incongruent right correct Normal 156.4809
203 117 LeftSmaller PercIBExp1 Prime_6N Target_6N fHMmgCe LmaIglC Congruent left error Early 75.21355
203 118 LeftSmaller PercIBExp1 Prime_9A Target_1A GdHeJaM BjDlHLM Incongruent left error Normal 729.5345
203 119 LeftSmaller PercIBExp1 Prime_1A Target_4A hDIElJa ekbjfFa Congruent left correct Normal 264.1384
203 120 LeftSmaller PercIBExp1 Prime_1A Target_1A DBbMiEa ambiAIg Congruent left correct Normal 644.0562
203 121 LeftSmaller PercIBExp1 Prime_9A Target_9N DemchBK CbBHDhc Congruent right correct Early 80.22206
203 122 LeftSmaller PercIBExp1 Prime_6A Target_1A EMHFjGd DbKldcA Incongruent left error Normal 583.25
203 123 LeftSmaller PercIBExp1 Prime_6N Target_6A Mjbmkcf BbAmagC Congruent right correct Normal 394.5456
203 124 LeftSmaller PercIBExp1 Prime_4A Target_9A AfBCFIJ HdilgFM Incongruent left correct Normal 564.281
203 125 LeftSmaller PercIBExp1 Prime_9N Target_1A mGMdCFf lIcBGdC Incongruent left error Normal 566.6395
203 126 LeftSmaller PercIBExp1 Prime_6A Target_9A EGBmaFD ckEHail Congruent right correct Normal 432.4781
203 127 LeftSmaller PercIBExp1 Prime_4N Target_1N jHGCMbe IlMGKLi Congruent left correct Normal 3444.863
203 128 LeftSmaller PercIBExp1 Prime_1A Target_6A hjJbEiD IHCaLdJ Incongruent right error Normal 458.7189
203 129 LeftSmaller PercIBExp1 Prime_4A Target_4N AjGIHLD MdeFDEK Congruent right error Normal 572.4172
203 130 LeftSmaller PercIBExp1 Prime_6N Target_9A jemdABg eKEmHkG Congruent left error Normal 169.1494
203 131 LeftSmaller PercIBExp1 Prime_1N Target_4N AgCBJhH MkHchEB Congruent right error Normal 127.2896
203 132 LeftSmaller PercIBExp1 Prime_4N Target_6N ceEjfFD CJIEBGh Incongruent right error Normal 603.0622
203 133 LeftSmaller PercIBExp1 Prime_6N Target_1A HlDGEFm CeBFgfL Incongruent right correct Normal 590.4938
203 134 LeftSmaller PercIBExp1 Prime_9N Target_6A McKlAge HDCacLB Congruent left error Normal 3155.622
203 135 LeftSmaller PercIBExp1 Prime_9A Target_6N cdGbAhC IhaJedC Congruent left error Normal 438.8752
203 136 LeftSmaller PercIBExp1 Prime_9A Target_1N dEAJkib IHKlfah Incongruent right correct Normal 581.0435
203 137 LeftSmaller PercIBExp1 Prime_9A Target_9A JiCLaIE JDgeBGc Congruent left error Normal 2659.541
203 138 LeftSmaller PercIBExp1 Prime_4N Target_4N HdhDgba KmMLaHD Congruent left correct Normal 258.5556
203 139 LeftSmaller PercIBExp1 Prime_9N Target_4N bkLCjMa MLHFKlf Incongruent left error Normal 518.2708
203 140 LeftSmaller PercIBExp1 Prime_4A Target_1N MbfiEFg LjAkIEB Congruent left correct Normal 306.9921
203 141 LeftSmaller PercIBExp1 Prime_4A Target_4A HicFAaE emhkbcM Congruent right error Normal 337.7222
203 142 LeftSmaller PercIBExp1 Prime_9N Target_1N iFmbgMJ fAEedKC Incongruent right correct Normal 631.1736
203 143 LeftSmaller PercIBExp1 Prime_4N Target_4A CElBDdb egaAfjC Congruent right error Normal 578.3595
203 144 LeftSmaller PercIBExp1 Prime_1N Target_6N gJGDhkI jMdCLDK Incongruent left correct Normal 2909.595
203 145 LeftSmaller PercIBExp1 Prime_4N Target_6A IihklMH IkFKCfG Incongruent right error Normal 338.8709
203 146 LeftSmaller PercIBExp1 Prime_4A Target_6A FijfIMd hIHEKeC Incongruent left correct Normal 1503.254
203 147 LeftSmaller PercIBExp1 Prime_4N Target_9A KiHGeCD iEaKmDF Incongruent left correct Normal 3013.689
203 148 LeftSmaller PercIBExp1 Prime_6N Target_1N JlkdgaE HbDfACh Incongruent left error Normal 331.1131
203 149 LeftSmaller PercIBExp1 Prime_6N Target_4N HbkdCiJ dfaCglc Incongruent right correct Normal 594.3962
203 150 LeftSmaller PercIBExp1 Prime_1N Target_1N AIMfDai fHjGMeJ Congruent left correct Normal 455.2442
203 151 LeftSmaller PercIBExp1 Prime_9N Target_4A dFHeAbk hbCJIkH Incongruent left error Normal 594.2749
203 152 LeftSmaller PercIBExp1 Prime_9A Target_6A LaIEADF BdGFHfe Congruent right correct Normal 345.7174
203 153 LeftSmaller PercIBExp1 Prime_1N Target_4A mFIMkaf KmACDIF Congruent left correct Normal 700.6193
203 154 LeftSmaller PercIBExp1 Prime_4N Target_1A kKagiGb JkKfeIm Congruent left correct Normal 561.0298
203 155 LeftSmaller PercIBExp1 Prime_1N Target_9A hHbjDli EFAlGiD Incongruent left correct Normal 276.5274
203 156 LeftSmaller PercIBExp1 Prime_1A Target_1N CILMbDe fhjmkEK Congruent left correct Normal 957.5649
203 157 LeftSmaller PercIBExp1 Prime_6A Target_1N DIAdGCj McKCfHI Incongruent right correct Normal 511.6936
203 158 LeftSmaller PercIBExp1 Prime_9N Target_9A ciGbJfh CAFEBbL Congruent left error Normal 280.4623
203 159 LeftSmaller PercIBExp1 Prime_6A Target_4N jCALIiH dmGjkhC Incongruent left error Normal 970.4712
203 160 LeftSmaller PercIBExp1 Prime_1N Target_9N IijFaBg fMhAcId Incongruent left correct Normal 503.0506
204 1 LeftLarger PercIAPrac Prime_1N Target_4N kFHceEK BgAdmcD Congruent left error Normal 2578.023
204 2 LeftLarger PercIAPrac Prime_6A Target_9N hLFiDAg kmlJBif Congruent left correct Normal 4974.972
204 3 LeftLarger PercIAPrac Prime_4N Target_1N mijEbfG mkhjFIa Congruent right correct Normal 1219.873
204 4 LeftLarger PercIAPrac Prime_9A Target_9A aDghmdG CAHBjiE Congruent right error Late 5451.503
204 5 LeftLarger PercIAPrac Prime_6N Target_4A dekMacL FBbkJHd Incongruent right error Normal 365.8192
204 6 LeftLarger PercIAPrac Prime_4N Target_9A HdMJhIj hbJkAfK Incongruent right correct Late 14437.11
204 7 LeftLarger PercIAPrac Prime_4N Target_4N DBkfLeg ahdHMLF Congruent left error Normal 942.2599
204 8 LeftLarger PercIAPrac Prime_6A Target_6A BgjIlfe aDCFbMh Congruent right error Normal 462.9104
204 9 LeftLarger PercIAPrac Prime_1N Target_9A GLcFEBb MAKiLGC Incongruent left error Normal 292.3514
204 10 LeftLarger PercIAPrac Prime_1N Target_1N HfcLMBd bglKMji Congruent left error Late 5161.724
204 11 LeftLarger PercIAPrac Prime_9A Target_6A EfbHBKA hKlGLdJ Congruent right error Normal 1468.245
204 12 LeftLarger PercIAPrac Prime_9N Target_6A BLeIAcm IGaFMBc Congruent left correct Normal 1569.424
204 13 LeftLarger PercIAPrac Prime_1N Target_1A CkIKeLc fLFIkaH Congruent left error Late 10989.29
204 14 LeftLarger PercIAPrac Prime_1A Target_6N gmHfBhC cigKHBG Incongruent right correct Late 5724.817
204 15 LeftLarger PercIAPrac Prime_4A Target_1A ICfiHjd LBckHil Congruent left error Normal 2201.97
204 16 LeftLarger PercIAPrac Prime_6N Target_1N jIBcbmD heFjCLG Incongruent left correct Normal 4981.407
204 17 LeftLarger PercIAExp1 Prime_1N Target_6A kCHjmIa mceClda Incongruent right correct Normal 2607.098
204 18 LeftLarger PercIAExp1 Prime_4N Target_1A biBAgLj mHAGhBC Congruent left error Normal 2092.423
204 19 LeftLarger PercIAExp1 Prime_1A Target_4N FkBmEbD kKaGfgB Congruent right correct Normal 2846.763
204 20 LeftLarger PercIAExp1 Prime_1A Target_6N CjEFaDf EaJbLBH Incongruent left error Normal 821.3324
204 21 LeftLarger PercIAExp1 Prime_9A Target_1A lEMDjeH aJdIKlA Incongruent right error Normal 1256.02
204 22 LeftLarger PercIAExp1 Prime_1N Target_6N cLCDAhB IMAhEma Incongruent right correct Normal 2054.18
204 23 LeftLarger PercIAExp1 Prime_6N Target_1A MgjkLid Mjmlafg Incongruent left correct Normal 1107.967
204 24 LeftLarger PercIAExp1 Prime_9N Target_9A jcifhDF KeEAagh Congruent left correct Normal 4691.91
204 25 LeftLarger PercIAExp1 Prime_4A Target_9A ICfMLeD LIBDmgE Incongruent left error Normal 2015.311
204 26 LeftLarger PercIAExp1 Prime_6A Target_6A aJciBDI imeGIaB Congruent left correct Normal 1645
204 27 LeftLarger PercIAExp1 Prime_4N Target_4A GakbJmc GhCfEBD Congruent right correct Normal 896.3287
204 28 LeftLarger PercIAExp1 Prime_6N Target_4A BCfGAHm LgaHkmd Incongruent left correct Normal 4705.786
204 29 LeftLarger PercIAExp1 Prime_9N Target_4A DMlhFGK ckLIaFC Incongruent left correct Normal 3330.194
204 30 LeftLarger PercIAExp1 Prime_9N Target_1A FkcdDje ajlMiHL Incongruent right error Normal 1226.327
204 31 LeftLarger PercIAExp1 Prime_4N Target_1N eKCHLEm akKClgG Congruent left error Normal 644.7035
204 32 LeftLarger PercIAExp1 Prime_1N Target_4N cLJHKCM Maemblf Congruent right correct Normal 444.6603
204 33 LeftLarger PercIAExp1 Prime_4A Target_1N McmeaIh mLBEgcK Congruent left error Normal 1643.018
204 34 LeftLarger PercIAExp1 Prime_4A Target_9N fBAJMcD hmdgHBe Incongruent left error Normal 2131.024
204 35 LeftLarger PercIAExp1 Prime_9A Target_1N hAJIiDL lMgDfGi Incongruent left correct Normal 2302.203
204 36 LeftLarger PercIAExp1 Prime_6N Target_6N FGjIbCH eJLGBmI Congruent right error Normal 1635.756
204 37 LeftLarger PercIAExp1 Prime_6N Target_4N MjdAhGF ajGiJhF Incongruent left correct Normal 873.5973
204 38 LeftLarger PercIAExp1 Prime_6N Target_6A kfIclAd JMFLEAk Congruent right error Normal 636.2201
204 39 LeftLarger PercIAExp1 Prime_6A Target_6N GlmHich lJBCdMc Congruent left correct Normal 964.5398
204 40 LeftLarger PercIAExp1 Prime_4N Target_6A BmLjciD BGJljfm Incongruent left error Normal 1735.972
204 41 LeftLarger PercIAExp1 Prime_6A Target_9N GmLefBk jbAflCc Congruent right error Normal 421.8607
204 42 LeftLarger PercIAExp1 Prime_1A Target_1N jJIAmkB mBLeiFE Congruent left error Normal 568.472
204 43 LeftLarger PercIAExp1 Prime_6A Target_1N KdjCbDG GkebfBC Incongruent right error Normal 1083.863
204 44 LeftLarger PercIAExp1 Prime_1N Target_9N MJGAkmI LfecgEm Incongruent right correct Normal 920.1816
204 45 LeftLarger PercIAExp1 Prime_9A Target_6A CHaLJFi meGlEbh Congruent right error Normal 4550.449
204 46 LeftLarger PercIAExp1 Prime_9N Target_6A jkGhLED CjmDcAh Congruent right error Normal 1901.185
204 47 LeftLarger PercIAExp1 Prime_9N Target_1N lKajfiC jkEefDa Incongruent left correct Normal 1615.288
204 48 LeftLarger PercIAExp1 Prime_1A Target_9N IcglAbG lFCeIhL Incongruent right correct Normal 1641.551
204 49 LeftLarger PercIAExp1 Prime_4N Target_9A IgGBlFE JiAFGHc Incongruent left error Normal 3857.982
204 50 LeftLarger PercIAExp1 Prime_6N Target_9N dHLDGka EkFajcl Congruent right error Normal 545.1603
204 51 LeftLarger PercIAExp1 Prime_1N Target_4A heKJaci mdLkJhG Congruent right correct Normal 4218.067
204 52 LeftLarger PercIAExp1 Prime_4N Target_9N aICFKMH BGflCJD Incongruent right correct Normal 2112.872
204 53 LeftLarger PercIAExp1 Prime_9A Target_9N mJIiLMG KLlfmCM Congruent left correct Normal 2854.176
204 54 LeftLarger PercIAExp1 Prime_4N Target_6N cFagGAC eMaIfAL Incongruent right correct Normal 2525.487
204 55 LeftLarger PercIAExp1 Prime_1A Target_4A dJibCec LBIDKgl Congruent left error Normal 2759.234
204 56 LeftLarger PercIAExp1 Prime_6A Target_9A AiDIFKb hEFIlBa Congruent right error Normal 371.9687
204 57 LeftLarger PercIAExp1 Prime_6A Target_1A eFdjKfC aLeBIHb Incongruent right error Normal 1818.857
204 58 LeftLarger PercIAExp1 Prime_1N Target_1N dfFhGlJ HImLEMC Congruent right correct Normal 1493.924
204 59 LeftLarger PercIAExp1 Prime_1A Target_9A GlIkJea hLDaemj Incongruent left error Normal 2087.23
204 60 LeftLarger PercIAExp1 Prime_1N Target_1A lGJMHLj AhkfECD Congruent left error Normal 2337.277
204 61 LeftLarger PercIAExp1 Prime_9A Target_4N gBGIefH LcHdEBI Incongruent left correct Normal 1221.879
204 62 LeftLarger PercIAExp1 Prime_6N Target_9A JgaDBGI JFCHKeL Congruent left correct Normal 1515.202
204 63 LeftLarger PercIAExp1 Prime_4A Target_1A difAJHM KhGfAbL Congruent right correct Normal 1165.639
204 64 LeftLarger PercIAExp1 Prime_9A Target_9A ijMBCfE eigkCjh Congruent left correct Normal 621.2849
204 65 LeftLarger PercIAExp1 Prime_6A Target_4A mJHFCIi MiJcDKL Incongruent right error Normal 288.1864
204 66 LeftLarger PercIAExp1 Prime_9N Target_9N hCBgbAE lDJEmdI Congruent right error Normal 984.1458
204 67 LeftLarger PercIAExp1 Prime_6A Target_4N AbHldiM GMiFEBa Incongruent left correct Normal 304.1943
204 68 LeftLarger PercIAExp1 Prime_9N Target_4N glLIEdc DgbdiKH Incongruent right error Normal 1911.786
204 69 LeftLarger PercIAExp1 Prime_4A Target_6N AfJbLhH CdJFmhf Incongruent left error Normal 2175.265
204 70 LeftLarger PercIAExp1 Prime_4A Target_4A AFiDMhI ehCAHad Congruent right correct Normal 594.8699
204 71 LeftLarger PercIAExp1 Prime_4A Target_4N IafgeHL jKdgDML Congruent left error Normal 1604.416
204 72 LeftLarger PercIAExp1 Prime_6N Target_1N laAGfdJ dkDEblB Incongruent right error Normal 626.0741
204 73 LeftLarger PercIAExp1 Prime_4N Target_4N IBamhCM AlkDMJI Congruent right correct Normal 933.9649
204 74 LeftLarger PercIAExp1 Prime_9A Target_6N jCEBIJM jfhBLAH Congruent left correct Normal 2888.675
204 75 LeftLarger PercIAExp1 Prime_9N Target_6N EMbICKd IdJmgif Congruent right error Normal 1005.442
204 76 LeftLarger PercIAExp1 Prime_9A Target_4A CbjJgmI CKLhacE Incongruent right error Normal 3200.284
204 77 LeftLarger PercIAExp1 Prime_1A Target_6A jglHdbK DFAdfhl Incongruent right correct Normal 920.1778
204 78 LeftLarger PercIAExp1 Prime_1N Target_9A dBcMCGJ HCfKmhk Incongruent left error Normal 843.943
204 79 LeftLarger PercIAExp1 Prime_1A Target_1A MchFGja KIHjgmE Congruent right correct Normal 193.7623
204 80 LeftLarger PercIAExp1 Prime_4A Target_6A JHbAehB AhaHkbJ Incongruent left error Normal 2911.281
204 81 LeftSmaller PercIBPrac Prime_1A Target_1N KLfgCcD eMGBhFl Congruent left correct Normal 4344.819
204 82 LeftSmaller PercIBPrac Prime_6A Target_6A AlebdKi HLcJFMG Congruent right correct Normal 1361.581
204 83 LeftSmaller PercIBPrac Prime_9N Target_1A MGaEcgA FjHLbcA Incongruent left error Late 5945.868
204 84 LeftSmaller PercIBPrac Prime_4A Target_1A DIKMkjJ DAaJleB Congruent left correct Normal 1463.739
204 85 LeftSmaller PercIBPrac Prime_4A Target_1N hAaCiHM ChFelfL Congruent left correct Normal 688.4695
204 86 LeftSmaller PercIBPrac Prime_1N Target_6N mKGjMgi mLiCGgJ Incongruent right error Normal 783.767
204 87 LeftSmaller PercIBPrac Prime_6N Target_6N ldfbBhJ IifeCBg Congruent right correct Normal 1831.233
204 88 LeftSmaller PercIBPrac Prime_4A Target_4A eCkAlHG ekHiamM Congruent left correct Normal 1533.495
204 89 LeftSmaller PercIBPrac Prime_9A Target_9N jbHKAIi FJGdbjc Congruent left error Normal 389.927
204 90 LeftSmaller PercIBPrac Prime_4A Target_6N emEKBDI lCEhHFI Incongruent right error Normal 1630.839
204 91 LeftSmaller PercIBPrac Prime_4N Target_1N jiAFHfm mJDMbkL Congruent left correct Normal 812.2647
204 92 LeftSmaller PercIBPrac Prime_1N Target_6A BfbekDJ GgACJmM Incongruent left correct Normal 1259.083
204 93 LeftSmaller PercIBPrac Prime_1A Target_4N FhjEeaI aMDKJle Congruent left correct Normal 865.5086
204 94 LeftSmaller PercIBPrac Prime_9N Target_4A ifHcGIE CIfaHiM Incongruent left error Late 5969.897
204 95 LeftSmaller PercIBPrac Prime_1N Target_1A HkgGMJB jHdfKeC Congruent left correct Normal 4243.776
204 96 LeftSmaller PercIBPrac Prime_9A Target_9A GmecJhf ihHIeLD Congruent left error Normal 3682.025
204 97 LeftSmaller PercIBExp1 Prime_9A Target_1A fIDJCKd HLJlack Incongruent left error Normal 1209.563
204 98 LeftSmaller PercIBExp1 Prime_4A Target_1N cBDjagm hlaLjgH Congruent left correct Normal 4137.814
204 99 LeftSmaller PercIBExp1 Prime_6N Target_9N IGbhKlB HkfdFEL Congruent left error Normal 1566.189
204 100 LeftSmaller PercIBExp1 Prime_6A Target_9A JGEikCI gMEaJLl Congruent right correct Normal 516.8695
204 101 LeftSmaller PercIBExp1 Prime_4N Target_4A ecklgDH jIHELJg Congruent left correct Normal 484.8124
204 102 LeftSmaller PercIBExp1 Prime_6A Target_6N KFLBEke jgLBcEh Congruent right correct Normal 471.3271
204 103 LeftSmaller PercIBExp1 Prime_9A Target_9A ElaKhCG LfjhgAc Congruent left error Normal 541.3561
204 104 LeftSmaller PercIBExp1 Prime_9A Target_6N dCIahfG MDLkgHE Congruent right correct Normal 154.9032
204 105 LeftSmaller PercIBExp1 Prime_1N Target_1A LAIkldM DAgGHJh Congruent left correct Normal 159.335
204 106 LeftSmaller PercIBExp1 Prime_1N Target_9N IkiLJKg eIAHfFC Incongruent right error Normal 322.8404
204 107 LeftSmaller PercIBExp1 Prime_4N Target_9A eLhBFmH fJmGiHe Incongruent right error Normal 465.0976
204 108 LeftSmaller PercIBExp1 Prime_9N Target_6A JkIaAfi dAjDmMk Congruent left error Normal 694.2912
204 109 LeftSmaller PercIBExp1 Prime_6N Target_4A kdAgLhb CMifHhj Incongruent right correct Normal 352.8503
204 110 LeftSmaller PercIBExp1 Prime_4N Target_6N cKHJkgj DBJEhmL Incongruent right error Normal 1078.469
204 111 LeftSmaller PercIBExp1 Prime_9A Target_9N FglBemC DbfLMIK Congruent left error Normal 3035.559
204 112 LeftSmaller PercIBExp1 Prime_4N Target_6A kmfKAiC aCklJLD Incongruent left correct Normal 2774.763
204 113 LeftSmaller PercIBExp1 Prime_9N Target_9N KAjBHgF IHfjBgK Congruent right correct Normal 1724.96
204 114 LeftSmaller PercIBExp1 Prime_4A Target_6A BhmAfck FGBAkEm Incongruent left correct Normal 2369.29
204 115 LeftSmaller PercIBExp1 Prime_4N Target_4N JAidhEj CMDlLak Congruent right error Normal 179.9512
204 116 LeftSmaller PercIBExp1 Prime_1A Target_4N EKACFgj bEcFikL Congruent left correct Normal 3147.766
204 117 LeftSmaller PercIBExp1 Prime_4N Target_1N eflaFmM cKhjMiF Congruent left correct Normal 937.8677
204 118 LeftSmaller PercIBExp1 Prime_6N Target_1N HEbjeAB fgBGChb Incongruent left error Normal 1175.419
204 119 LeftSmaller PercIBExp1 Prime_1A Target_9N mMbJdFK CcbAeJI Incongruent right error Normal 882.8814
204 120 LeftSmaller PercIBExp1 Prime_1A Target_1N AKdEDhC IKmhaiB Congruent left correct Normal 1681.643
204 121 LeftSmaller PercIBExp1 Prime_9N Target_4N HGbFIDc CiHaklj Incongruent left error Normal 1182.273
204 122 LeftSmaller PercIBExp1 Prime_4A Target_9N BIecbMF EJgeHIk Incongruent right error Normal 745.7322
204 123 LeftSmaller PercIBExp1 Prime_1N Target_9A mFKIEJa ajGicdK Incongruent left correct Normal 724.7624
204 124 LeftSmaller PercIBExp1 Prime_1A Target_4A hefKLjd djeIalH Congruent left correct Normal 1443.71
204 125 LeftSmaller PercIBExp1 Prime_6N Target_1A LEgeAKk LKakGdJ Incongruent right correct Normal 2361.258
204 126 LeftSmaller PercIBExp1 Prime_6A Target_4A agDGAiF gIjkaHD Incongruent left error Normal 992.5424
204 127 LeftSmaller PercIBExp1 Prime_6A Target_1A kmcaiMH LFaEMCJ Incongruent right correct Normal 4427.5
204 128 LeftSmaller PercIBExp1 Prime_4A Target_4A lHbdfKe FBlEIcj Congruent left correct Normal 2253.006
204 129 LeftSmaller PercIBExp1 Prime_6N Target_9A DHMKeiI lIJGgHE Congruent left error Normal 1448.067
204 130 LeftSmaller PercIBExp1 Prime_6N Target_6N mGCdlBH MgBaGcb Congruent right correct Normal 3404.937
204 131 LeftSmaller PercIBExp1 Prime_4A Target_6N HJGElFk BflAHck Incongruent right error Normal 639.5489
204 132 LeftSmaller PercIBExp1 Prime_1A Target_6A dkJFgAi jAdEkbB Incongruent right error Normal 2516.777
204 133 LeftSmaller PercIBExp1 Prime_4A Target_4N jfLkhJD HFGliAM Congruent right error Normal 2732.789
204 134 LeftSmaller PercIBExp1 Prime_1N Target_4A ImcjdkA bJhAKkE Congruent left correct Normal 3638.546
204 135 LeftSmaller PercIBExp1 Prime_1N Target_6N BdMCicb LifabMj Incongruent left correct Normal 1976.908
204 136 LeftSmaller PercIBExp1 Prime_1N Target_4N gJHGclC mGhkbcd Congruent right error Normal 3154.088
204 137 LeftSmaller PercIBExp1 Prime_4N Target_9N dgBchbI mbflgaI Incongruent left correct Normal 3414.436
204 138 LeftSmaller PercIBExp1 Prime_6A Target_6A EGKjJdH kdeDgal Congruent left error Normal 3546.152
204 139 LeftSmaller PercIBExp1 Prime_1N Target_6A kijmHMl mCjhbgI Incongruent right error Normal 920.6489
204 140 LeftSmaller PercIBExp1 Prime_9A Target_4A bIeAEmB cgLmJBj Incongruent right correct Normal 3604.448
204 141 LeftSmaller PercIBExp1 Prime_1A Target_9A HaKjhiC iHAaCfd Incongruent left correct Normal 622.9135
204 142 LeftSmaller PercIBExp1 Prime_9N Target_4A mkfLcJb KheHDla Incongruent right correct Normal 2293.064
204 143 LeftSmaller PercIBExp1 Prime_6A Target_9N HkKhGMf eEIABdM Congruent left error Normal 3082.134
204 144 LeftSmaller PercIBExp1 Prime_1N Target_1N AHldeFB djbAeIa Congruent left correct Normal 1747.589
204 145 LeftSmaller PercIBExp1 Prime_9N Target_1N ijcgBHA GgikfKL Incongruent right correct Normal 4542.154
204 146 LeftSmaller PercIBExp1 Prime_1A Target_6N aECgBKF LmbkEMC Incongruent right error Normal 3453.386
204 147 LeftSmaller PercIBExp1 Prime_4A Target_1A FfkmcMb IfdcMmk Congruent right error Normal 3937.093
204 148 LeftSmaller PercIBExp1 Prime_4N Target_1A MdLjhIm ECjiJmg Congruent left correct Normal 1516.688
204 149 LeftSmaller PercIBExp1 Prime_1A Target_1A CLfGDgl JFBkdDI Congruent right error Normal 2021.157
204 150 LeftSmaller PercIBExp1 Prime_6A Target_4N KfbGMci jMmHlgA Incongruent left error Normal 3155.724
204 151 LeftSmaller PercIBExp1 Prime_6N Target_4N JblIEmj dIAHmMG Incongruent right correct Normal 815.6432
204 152 LeftSmaller PercIBExp1 Prime_9N Target_6N hjEeabI ABajGKM Congruent right correct Normal 988.4871
204 153 LeftSmaller PercIBExp1 Prime_6A Target_1N JHKlaeC aAeJjkd Incongruent right correct Normal 1597.929
204 154 LeftSmaller PercIBExp1 Prime_9N Target_9A fMFclEg fFmjCgM Congruent left error Normal 3768.703
204 155 LeftSmaller PercIBExp1 Prime_9A Target_6A cagIlef BlIMFek Congruent right correct Normal 1494.21
204 156 LeftSmaller PercIBExp1 Prime_6N Target_6A bgJeBfm dCFcMbI Congruent right correct Normal 340.5175
204 157 LeftSmaller PercIBExp1 Prime_9A Target_4N HGMhdec LkhcbiA Incongruent left error Normal 394.5463
204 158 LeftSmaller PercIBExp1 Prime_9A Target_1N hDIFfJm fKaGlbe Incongruent right correct Normal 513.5905
204 159 LeftSmaller PercIBExp1 Prime_4A Target_9A MgfeLEH LIKHhdj Incongruent right error Normal 236.7595
204 160 LeftSmaller PercIBExp1 Prime_9N Target_1A CGmBMhc BKdIkHf Incongruent right correct Normal 287.0311
205 1 LeftLarger PercIAPrac Prime_4N Target_1N HglMDaI iHbhBde Congruent left error Normal 508.0011
205 2 LeftLarger PercIAPrac Prime_9N Target_1A CjeGDli McKBEGl Incongruent right error Normal 405.1992
205 3 LeftLarger PercIAPrac Prime_1N Target_4N hkIlFAD kDigMej Congruent left error Normal 511.2108
205 4 LeftLarger PercIAPrac Prime_1A Target_4A BCKgEIf aGlEekd Congruent left error Normal 717.1946
205 5 LeftLarger PercIAPrac Prime_6N Target_9N IAbihFf aLgmeMf Congruent right error Normal 614.3506
205 6 LeftLarger PercIAPrac Prime_9A Target_9A aBjIMJc gfJFjGB Congruent left correct Normal 388.0171
205 7 LeftLarger PercIAPrac Prime_1A Target_9A mJBhfMC ehDHMEk Incongruent right correct Normal 1021.865
205 8 LeftLarger PercIAPrac Prime_6A Target_6A cJCEaMD AjefKdL Congruent left correct Normal 656.4904
205 9 LeftLarger PercIAPrac Prime_9N Target_9A GmAbFID lAEbiGB Congruent right error Normal 496.3395
205 10 LeftLarger PercIAPrac Prime_4A Target_9N KdkeaHJ fcIliHm Incongruent left error Normal 425.399
205 11 LeftLarger PercIAPrac Prime_4N Target_9N ejHfBJk ChKiEBb Incongruent right correct Normal 322.7107
205 12 LeftLarger PercIAPrac Prime_1A Target_6A LKhldJi bjcBJAF Incongruent left error Normal 260.5212
205 13 LeftLarger PercIAPrac Prime_6A Target_1A KIDlcAC mCMEhca Incongruent right error Normal 480.442
205 14 LeftLarger PercIAPrac Prime_6N Target_1A cHJalbK IlDAFka Incongruent left correct Normal 390.7267
205 15 LeftLarger PercIAPrac Prime_1A Target_4N cKDalEG DhElcIb Congruent right correct Normal 227.637
205 16 LeftLarger PercIAPrac Prime_6A Target_6N EmJcMjI fjkdKBi Congruent left correct Normal 511.0496
205 17 LeftLarger PercIAExp1 Prime_6N Target_9A MLGIDHf iIAhkdc Congruent right error Normal 390.7421
205 18 LeftLarger PercIAExp1 Prime_6N Target_9N blcBMGA gIfhHJA Congruent left correct Early 98.22836
205 19 LeftLarger PercIAExp1 Prime_1N Target_6N IjJhkHe fKeghLE Incongruent left error Normal 424.0525
205 20 LeftLarger PercIAExp1 Prime_6A Target_1N JjfImhC AjadLeB Incongruent right error Normal 3745.787
205 21 LeftLarger PercIAExp1 Prime_4A Target_4N fHhDCMa dADkagB Congruent right correct Normal 478.8143
205 22 LeftLarger PercIAExp1 Prime_6N Target_6A amGCHIe MLKBCId Congruent left correct Normal 371.7233
205 23 LeftLarger PercIAExp1 Prime_1A Target_4N LEfkBDb FChgDjm Congruent right correct Normal 610.278
205 24 LeftLarger PercIAExp1 Prime_6N Target_6N LIahmHF hLkaIHC Congruent right error Normal 644.3063
205 25 LeftLarger PercIAExp1 Prime_4N Target_6N CFaIbme BjfmAiM Incongruent left error Normal 138.9802
205 26 LeftLarger PercIAExp1 Prime_1N Target_1A hEcGmLM KDbJHga Congruent right correct Normal 597.2662
205 27 LeftLarger PercIAExp1 Prime_9A Target_1A DCJcmIg ifFchKA Incongruent left correct Normal 408.1976
205 28 LeftLarger PercIAExp1 Prime_1N Target_9A LACEaGB EcDkibd Incongruent right correct Normal 533.6021
205 29 LeftLarger PercIAExp1 Prime_6A Target_6A aKElfCA KkLbAeJ Congruent left correct Normal 152.1609
205 30 LeftLarger PercIAExp1 Prime_6A Target_9N faKIlgj hGFkIBA Congruent right error Normal 150.6412
205 31 LeftLarger PercIAExp1 Prime_1A Target_6A AcIbKmM LDalChK Incongruent left error Normal 478.7723
205 32 LeftLarger PercIAExp1 Prime_9N Target_1A iEcelKk cIgfLBj Incongruent left correct Normal 442.6293
205 33 LeftLarger PercIAExp1 Prime_4N Target_1A GgjCiKe emEbdfi Congruent right correct Normal 261.918
205 34 LeftLarger PercIAExp1 Prime_9A Target_9N KjGLHeD CFhebkj Congruent right error Normal 171.1006
205 35 LeftLarger PercIAExp1 Prime_1N Target_4A JbBKdiA ikMLeBD Congruent left error Normal 111.9955
205 36 LeftLarger PercIAExp1 Prime_9N Target_1N jkAfeiJ hkfljJD Incongruent right error Normal 212.1453
205 37 LeftLarger PercIAExp1 Prime_6A Target_4N AjKCdHm bmGdClj Incongruent left correct Normal 229.7877
205 38 LeftLarger PercIAExp1 Prime_1A Target_1N CLdJDic JEfDKMd Congruent right correct Normal 209.2241
205 39 LeftLarger PercIAExp1 Prime_9A Target_6A JhkmKjl lFCgeiJ Congruent left correct Normal 281.2642
205 40 LeftLarger PercIAExp1 Prime_1A Target_4A BgkCjdH mckiHLB Congruent right correct Normal 333.4215
205 41 LeftLarger PercIAExp1 Prime_6N Target_4A lbIdcfB BaDkJfm Incongruent left correct Normal 281.4597
205 42 LeftLarger PercIAExp1 Prime_6N Target_1N BfkdCJA fdDlBJk Incongruent left correct Normal 1008.949
205 43 LeftLarger PercIAExp1 Prime_6A Target_1A akEbAKG LFeibKD Incongruent left correct Normal 437.0391
205 44 LeftLarger PercIAExp1 Prime_9N Target_6A DeGgALi cJkMGBC Congruent right error Normal 190.5955
205 45 LeftLarger PercIAExp1 Prime_4A Target_1N EebBJfM mdCkcFD Congruent left error Normal 164.3652
205 46 LeftLarger PercIAExp1 Prime_9N Target_4N kGmBEIJ MDJHkjl Incongruent right error Normal 1975.513
205 47 LeftLarger PercIAExp1 Prime_1A Target_9N eacCFgL gcbidmG Incongruent left error Normal 474.8443
205 48 LeftLarger PercIAExp1 Prime_6A Target_4A gJGMCid IbJeCDl Incongruent right error Normal 177.131
205 49 LeftLarger PercIAExp1 Prime_4A Target_9N bGEckMI GblEdgi Incongruent left error Normal 116.0438
205 50 LeftLarger PercIAExp1 Prime_1N Target_9N KBHfgjF LECHDMf Incongruent right correct Early 14.99088
205 51 LeftLarger PercIAExp1 Prime_6N Target_1A lGkAgmd ElbACfd Incongruent left correct Normal 186.6226
205 52 LeftLarger PercIAExp1 Prime_9A Target_4A lAaKMdD dkjAIeH Incongruent left correct Normal 1360.966
205 53 LeftLarger PercIAExp1 Prime_4N Target_9N cfbHdMD jFHcfCJ Incongruent right correct Normal 254.0862
205 54 LeftLarger PercIAExp1 Prime_4N Target_6A ACedKLc GBEeDFg Incongruent right correct Early 11.18493
205 55 LeftLarger PercIAExp1 Prime_1N Target_6A EDecLIA ckmdblE Incongruent left error Normal 2343.372
205 56 LeftLarger PercIAExp1 Prime_1N Target_1N gmKEief egMmGJB Congruent right correct Normal 155.3625
205 57 LeftLarger PercIAExp1 Prime_1A Target_9A ehKfjDG aFJMbjB Incongruent left error Normal 164.9954
205 58 LeftLarger PercIAExp1 Prime_4A Target_6A GfJCBIh hIcfDKd Incongruent right correct Normal 174.8063
205 59 LeftLarger PercIAExp1 Prime_6A Target_6N GHBIEFb CELbaKc Congruent left correct Normal 167.9617
205 60 LeftLarger PercIAExp1 Prime_1N Target_4N maMlJdA CiBMIgD Congruent left error Normal 236.2314
205 61 LeftLarger PercIAExp1 Prime_9N Target_9N cJlbAeh aJjidBM Congruent right error Normal 181.8968
205 62 LeftLarger PercIAExp1 Prime_4A Target_1A dGFgLbA ELbifDl Congruent left error Early 84.66031
205 63 LeftLarger PercIAExp1 Prime_6A Target_9A kcKegCG DgEJBAb Congruent right error Normal 205.5984
205 64 LeftLarger PercIAExp1 Prime_9N Target_4A jDEhcdA hcKEMlB Incongruent left correct Normal 100.5338
205 65 LeftLarger PercIAExp1 Prime_6N Target_4N cGkiLMj IGildHf Incongruent right error Normal 165.9125
205 66 LeftLarger PercIAExp1 Prime_4A Target_6N hlGFeIK ELdhfIC Incongruent left error Normal 131.6925
205 67 LeftLarger PercIAExp1 Prime_1A Target_6N lFAmEfd MeLhIkJ Incongruent left error Normal 919.8593
205 68 LeftLarger PercIAExp1 Prime_4N Target_9A CdGMiaK hBGCdIe Incongruent right correct Normal 337.4007
205 69 LeftLarger PercIAExp1 Prime_9A Target_9A LIcfEdh mCJdicK Congruent left correct Normal 358.5714
205 70 LeftLarger PercIAExp1 Prime_4A Target_4A KAJIgjM hEekmaJ Congruent left error Normal 202.3237
205 71 LeftLarger PercIAExp1 Prime_4N Target_4A lLbEgeK BEAhibC Congruent right correct Normal 216.2718
205 72 LeftLarger PercIAExp1 Prime_4N Target_4N iehGgfd DdcbBjE Congruent left error Normal 455.4065
205 73 LeftLarger PercIAExp1 Prime_9A Target_4N GlMALCI KFHCdfe Incongruent left correct Normal 467.8515
205 74 LeftLarger PercIAExp1 Prime_1A Target_1A jHgMBEA jJMikHh Congruent right correct Normal 324.2452
205 75 LeftLarger PercIAExp1 Prime_4N Target_1N hLBHilf bilGFjg Congruent right correct Normal 238.8776
205 76 LeftLarger PercIAExp1 Prime_9N Target_9A eEhlDgK ibEhfed Congruent left correct Normal 219.4558
205 77 LeftLarger PercIAExp1 Prime_4A Target_9A EMCjDmF cjeaAlD Incongruent left error Normal 567.4734
205 78 LeftLarger PercIAExp1 Prime_9A Target_6N GaMELmf dCDkHbG Congruent left correct Normal 329.7858
205 79 LeftLarger PercIAExp1 Prime_9N Target_6N cMCLFAh emblHgL Congruent right error Normal 148.8249
205 80 LeftLarger PercIAExp1 Prime_9A Target_1N fAdCBFk kFKhDdb Incongruent left correct Normal 249.5935
205 81 LeftSmaller PercIBPrac Prime_1A Target_6N eALJFlC KcmDEAi Incongruent left correct Normal 202.3742
205 82 LeftSmaller PercIBPrac Prime_6A Target_9A hkEAfLG GBjKbAJ Congruent right correct Early 60.48732
205 83 LeftSmaller PercIBPrac Prime_4N Target_9N GLedJfl bACHlkh Incongruent left correct Early 15.08412
205 84 LeftSmaller PercIBPrac Prime_6A Target_1N fKbBkag cDgAKiB Incongruent right correct Early 79.88769
205 85 LeftSmaller PercIBPrac Prime_1N Target_4A aLJfEjg AhIaCMK Congruent left correct Early 30.58444
205 86 LeftSmaller PercIBPrac Prime_1N Target_4N DhFBlEf KgAfLdD Congruent right error Normal 117.845
205 87 LeftSmaller PercIBPrac Prime_6N Target_6A iDgGEMh gIJjLhC Congruent left error Normal 150.0039
205 88 LeftSmaller PercIBPrac Prime_9A Target_4N DdMHGFm KCIjJfM Incongruent right correct Normal 239.5534
205 89 LeftSmaller PercIBPrac Prime_6N Target_1A cjMIEKb jKEDIfG Incongruent right correct Normal 187.6883
205 90 LeftSmaller PercIBPrac Prime_9N Target_4A eCEcLJF LMmbcFE Incongruent right correct Normal 101.2188
205 91 LeftSmaller PercIBPrac Prime_6A Target_9N JkdBbEC fhLBJFA Congruent left error Early 73.54552
205 92 LeftSmaller PercIBPrac Prime_9A Target_1N EdBGJMD DIAFjlC Incongruent right correct Normal 102.5559
205 93 LeftSmaller PercIBPrac Prime_9A Target_6N eKCBbif CmDbkFH Congruent left error Early 50.53103
205 94 LeftSmaller PercIBPrac Prime_4N Target_9A FCIiKlf GakLiCh Incongruent right error Early 18.91787
205 95 LeftSmaller PercIBPrac Prime_4A Target_1N mligKjE FIMGELb Congruent left correct Normal 103.2844
205 96 LeftSmaller PercIBPrac Prime_1N Target_6A BlmbhaH KBJjHDb Incongruent right error Early 64.69084
205 97 LeftSmaller PercIBExp1 Prime_4N Target_6N EjikIda BIJMKcH Incongruent right error Normal 278.1178
205 98 LeftSmaller PercIBExp1 Prime_4N Target_1N EdJkKmF ckmGglh Congruent left correct Normal 113.5619
205 99 LeftSmaller PercIBExp1 Prime_1N Target_9A dEfIicD KgiClmc Incongruent right error Early 39.86855
205 100 LeftSmaller PercIBExp1 Prime_1A Target_9A FDCheMc hFgHiIC Incongruent left correct Early 2.819793
205 101 LeftSmaller PercIBExp1 Prime_1A Target_1A MiLAhIj GaiLHEh Congruent right error Early 16.5506
205 102 LeftSmaller PercIBExp1 Prime_6A Target_4A GMDlAJC IbGchFB Incongruent left error Normal 109.7549
205 103 LeftSmaller PercIBExp1 Prime_6A Target_6A jAbLFfh jfabgBi Congruent right correct Normal 166.5928
205 104 LeftSmaller PercIBExp1 Prime_9A Target_6N iDekjKg madlhEC Congruent left error Early 63.85292
205 105 LeftSmaller PercIBExp1 Prime_1A Target_6A HGKlDkI DfdiCcA Incongruent right error Early 49.20421
205 106 LeftSmaller PercIBExp1 Prime_1A Target_9N jmAFGEl eGCbdLE Incongruent right error Early 85.00528
205 107 LeftSmaller PercIBExp1 Prime_9N Target_4N cFLgCDj jeKhBEa Incongruent left error Normal 127.4785
205 108 LeftSmaller PercIBExp1 Prime_4N Target_1A daMkmgc ahDeALC Congruent left correct Normal 172.7594
205 109 LeftSmaller PercIBExp1 Prime_1N Target_4N FkgAKMf lLmFKjc Congruent right error Normal 260.1737
205 110 LeftSmaller PercIBExp1 Prime_9A Target_1N faEiAhm EcLHibg Incongruent left error Normal 323.3341
205 111 LeftSmaller PercIBExp1 Prime_6N Target_4N gCfBGmk lajKiGh Incongruent left error Normal 181.6384
205 112 LeftSmaller PercIBExp1 Prime_9N Target_1A GAkJbgB dHDKcBg Incongruent left error Normal 285.549
205 113 LeftSmaller PercIBExp1 Prime_1N Target_6A MfgbBiC dIEJikh Incongruent right error Normal 306.8286
205 114 LeftSmaller PercIBExp1 Prime_6A Target_4N MdbFiEH DjBAFeh Incongruent left error Normal 595.7385
205 115 LeftSmaller PercIBExp1 Prime_9A Target_9N fIAcigD fgLcilI Congruent left error Normal 470.7607
205 116 LeftSmaller PercIBExp1 Prime_6A Target_1A ceDdJMA fiFKEDC Incongruent right correct Normal 343.1941
205 117 LeftSmaller PercIBExp1 Prime_9N Target_6A BHaCkdc eKALaBf Congruent left error Normal 314.6435
205 118 LeftSmaller PercIBExp1 Prime_1N Target_1A fFlEHAK iFejbHJ Congruent left correct Normal 510.8609
205 119 LeftSmaller PercIBExp1 Prime_4A Target_1A ILAGbjK FCAIEJL Congruent left correct Normal 521.8138
205 120 LeftSmaller PercIBExp1 Prime_9A Target_4A iHmjChg MeimBlI Incongruent right correct Normal 317.9937
205 121 LeftSmaller PercIBExp1 Prime_1A Target_4N LEgdKmI ahmGfel Congruent left correct Normal 332.0288
205 122 LeftSmaller PercIBExp1 Prime_4A Target_1N DMCHJEc JLEcBfe Congruent left correct Normal 398.0514
205 123 LeftSmaller PercIBExp1 Prime_1N Target_9N ljMIbmL idLJakb Incongruent left correct Normal 396.5935
205 124 LeftSmaller PercIBExp1 Prime_1N Target_1N BDahcef eEdglmc Congruent left correct Normal 664.2499
205 125 LeftSmaller PercIBExp1 Prime_6N Target_1A BJaiEGb EbjAgcf Incongruent right correct Normal 248.1795
205 126 LeftSmaller PercIBExp1 Prime_9A Target_6A ECmhiJc EmLfDKe Congruent left error Normal 276.7003
205 127 LeftSmaller PercIBExp1 Prime_4N Target_4N blDfmIB IDeHfgm Congruent right error Normal 326.8794
205 128 LeftSmaller PercIBExp1 Prime_4A Target_4N iGBKeIm EmkhMeK Congruent left correct Normal 204.1572
205 129 LeftSmaller PercIBExp1 Prime_1A Target_4A MklFjfm CfcFBEm Congruent right error Normal 210.9545
205 130 LeftSmaller PercIBExp1 Prime_4A Target_6A MGgIEeF HAcIBmk Incongruent right error Normal 117.9855
205 131 LeftSmaller PercIBExp1 Prime_4A Target_6N HGFBEJc JGfEmej Incongruent left correct Early 95.08753
205 132 LeftSmaller PercIBExp1 Prime_1A Target_1N DhkjFad dgiIlCG Congruent right error Early 87.44399
205 133 LeftSmaller PercIBExp1 Prime_6A Target_1N IEACMhG HGIaMDc Incongruent left error Normal 132.1583
205 134 LeftSmaller PercIBExp1 Prime_4N Target_6A alBLfIk BegbhGM Incongruent left correct Early 86.87425
205 135 LeftSmaller PercIBExp1 Prime_9A Target_9A hbDEkMf GMdLkjA Congruent right correct Early 2.869199
205 136 LeftSmaller PercIBExp1 Prime_6A Target_6N bfAkcgJ ijHkElL Congruent right correct Normal 306.1913
205 137 LeftSmaller PercIBExp1 Prime_4A Target_4A HkDKiEa KCkmahb Congruent right error Normal 189.621
205 138 LeftSmaller PercIBExp1 Prime_9A Target_4N DljBedm bJAClej Incongruent left error Normal 115.7542
205 139 LeftSmaller PercIBExp1 Prime_6N Target_9A GAbMcKD KDAdHhF Congruent right correct Normal 177.5487
205 140 LeftSmaller PercIBExp1 Prime_9N Target_6N iCedcEB daIFEBl Congruent right correct Normal 162.7205
205 141 LeftSmaller PercIBExp1 Prime_6N Target_1N IfDBdAk idcmgjL Incongruent left error Normal 190.1379
205 142 LeftSmaller PercIBExp1 Prime_1A Target_6N aIHkcgi GHMDegC Incongruent right error Normal 300.1458
205 143 LeftSmaller PercIBExp1 Prime_6N Target_6A cfeIiBg deMcjCE Congruent right correct Normal 389.4412
205 144 LeftSmaller PercIBExp1 Prime_6N Target_4A lEaBAMF ekDhmfj Incongruent left error Normal 356.3481
205 145 LeftSmaller PercIBExp1 Prime_4A Target_9N ehEjiBC AkJIcgD Incongruent right error Normal 330.9926
205 146 LeftSmaller PercIBExp1 Prime_9N Target_4A kDFHdhM DAjekKh Incongruent left error Normal 257.6909
205 147 LeftSmaller PercIBExp1 Prime_9N Target_1N bHfjAiM GiDAmKk Incongruent left error Normal 541.9773
205 148 LeftSmaller PercIBExp1 Prime_1N Target_6N ImkhJie khgBFLm Incongruent left correct Normal 408.1262
205 149 LeftSmaller PercIBExp1 Prime_6N Target_9N LcbMEHG clfJkFj Congruent right correct Normal 553.4064
205 150 LeftSmaller PercIBExp1 Prime_9A Target_1A dFMehki eFCkmBD Incongruent left error Normal 479.8233
205 151 LeftSmaller PercIBExp1 Prime_4N Target_9A maeJhBi cKmbFHe Incongruent right error Normal 185.3745
205 152 LeftSmaller PercIBExp1 Prime_9N Target_9A AaDFlCf KkFLmMJ Congruent right correct Normal 237.1972
205 153 LeftSmaller PercIBExp1 Prime_1N Target_4A bkDHeAB fejghHI Congruent right error Normal 494.4023
205 154 LeftSmaller PercIBExp1 Prime_4A Target_9A FJglaIh mKBHcbC Incongruent right error Normal 359.7325
205 155 LeftSmaller PercIBExp1 Prime_6A Target_9A KlgmdDE CJcdAiI Congruent left error Normal 257.7837
205 156 LeftSmaller PercIBExp1 Prime_4N Target_4A GHmMbgC eEigaCG Congruent right error Normal 456.5654
205 157 LeftSmaller PercIBExp1 Prime_9N Target_9N aIFkLDC hMlIEAH Congruent left error Normal 349.8397
205 158 LeftSmaller PercIBExp1 Prime_6N Target_6N mEbMGJi caCeGfF Congruent right correct Normal 537.5098
205 159 LeftSmaller PercIBExp1 Prime_6A Target_9N HaLigbJ mHDABEi Congruent right correct Normal 279.0563
205 160 LeftSmaller PercIBExp1 Prime_4N Target_9N cfMBEAG jGLHeAK Incongruent right error Normal 162.5052
206 1 LeftLarger PercIAPrac Prime_4N Target_6A EDbgiFG jClDbcE Incongruent left error Normal 1123.763
206 2 LeftLarger PercIAPrac Prime_4A Target_9N FjCALge biHaEBG Incongruent left error Normal 859.1343
206 3 LeftLarger PercIAPrac Prime_1N Target_4A egbMKcE MmCcBjF Congruent right correct Normal 973.2238
206 4 LeftLarger PercIAPrac Prime_1A Target_9N fdHJikF KaDkHcg Incongruent right correct Normal 777.6827
206 5 LeftLarger PercIAPrac Prime_4A Target_9A fmHhjGd gFMbIBe Incongruent left error Normal 839.2081
206 6 LeftLarger PercIAPrac Prime_9A Target_4N jFCfiHD GdgAlfL Incongruent right error Normal 758.3984
206 7 LeftLarger PercIAPrac Prime_9N Target_4A mMBhide ADheEKf Incongruent left correct Normal 551.261
206 8 LeftLarger PercIAPrac Prime_4A Target_1N MbmlafH FHLaKDG Congruent right correct Normal 542.0618
206 9 LeftLarger PercIAPrac Prime_9A Target_6N DlGEBhk bdcfmkJ Congruent left correct Normal 649.1069
206 10 LeftLarger PercIAPrac Prime_9N Target_9A eBFCJGf MJjhckG Congruent left correct Normal 754.9151
206 11 LeftLarger PercIAPrac Prime_6A Target_4N fcjhBMd mgIHdFb Incongruent right error Normal 951.0433
206 12 LeftLarger PercIAPrac Prime_1N Target_1A KlBAkig hFDGMIk Congruent left error Normal 685.5102
206 13 LeftLarger PercIAPrac Prime_9N Target_4N EgbdCjM aIjcmlC Incongruent left correct Normal 878.5482
206 14 LeftLarger PercIAPrac Prime_9A Target_9N AElJaCG eFLHMmG Congruent right error Normal 751.5833
206 15 LeftLarger PercIAPrac Prime_6A Target_4A kcDCJEe EMKdgme Incongruent left correct Normal 876.1433
206 16 LeftLarger PercIAPrac Prime_4A Target_4N DcCKglM DEejdgB Congruent left error Normal 1116.808
206 17 LeftLarger PercIAExp1 Prime_9N Target_4N ecAMdDl flehFJa Incongruent left correct Normal 730.9935
206 18 LeftLarger PercIAExp1 Prime_6N Target_9A IHCjLFe IdlDeKM Congruent right error Normal 821.564
206 19 LeftLarger PercIAExp1 Prime_9N Target_4A DJkCaFL GldhJkM Incongruent left correct Normal 669.6588
206 20 LeftLarger PercIAExp1 Prime_1N Target_1N kGlCHJM AmkfDIh Congruent right correct Normal 807.9077
206 21 LeftLarger PercIAExp1 Prime_6N Target_1N DKAlahC imjfKcF Incongruent left correct Normal 1276.952
206 22 LeftLarger PercIAExp1 Prime_6A Target_9N JDlHEbh ecKfMGk Congruent right error Normal 744.5644
206 23 LeftLarger PercIAExp1 Prime_9A Target_9A gMILimf MeHEmIA Congruent left correct Normal 751.2941
206 24 LeftLarger PercIAExp1 Prime_9A Target_1A bhEfHGC mBlIEcF Incongruent right error Normal 710.0676
206 25 LeftLarger PercIAExp1 Prime_1A Target_1A jILkCAa gJdejlh Congruent left error Normal 716.9975
206 26 LeftLarger PercIAExp1 Prime_9N Target_9A adMBjgI mgBhafG Congruent left correct Normal 778.064
206 27 LeftLarger PercIAExp1 Prime_4A Target_9N hGicLdE GMLJmDc Incongruent right correct Normal 1758.911
206 28 LeftLarger PercIAExp1 Prime_1N Target_4A jLiBCgl GhHlKij Congruent left error Normal 1367.14
206 29 LeftLarger PercIAExp1 Prime_6A Target_6N bLGmIJc EJMeCAi Congruent right error Normal 2201.458
206 30 LeftLarger PercIAExp1 Prime_4A Target_4A dHLDCij EBcjGde Congruent left error Normal 1190.046
206 31 LeftLarger PercIAExp1 Prime_9N Target_1N lBCLgeJ KhLmeDf Incongruent left correct Normal 1496.335
206 32 LeftLarger PercIAExp1 Prime_1N Target_1A KhadGCl fgDFamB Congruent right correct Normal 1231.524
206 33 LeftLarger PercIAExp1 Prime_6A Target_4N HighaMJ efMkIcC Incongruent left correct Normal 1684.698
206 34 LeftLarger PercIAExp1 Prime_4N Target_1N GbJFEeg ECfIkiH Congruent left error Normal 1219.517
206 35 LeftLarger PercIAExp1 Prime_4A Target_1A MkdhKiH CEcfMhb Congruent right correct Normal 1447.321
206 36 LeftLarger PercIAExp1 Prime_9N Target_9N FHCjDAG EcMHAeF Congruent left correct Normal 1043.38
206 37 LeftLarger PercIAExp1 Prime_9A Target_6A HikBegL KGEAFmL Congruent right error Normal 1353.794
206 38 LeftLarger PercIAExp1 Prime_1A Target_4N KCmkDAJ emEALMG Congruent left error Normal 1935.727
206 39 LeftLarger PercIAExp1 Prime_1N Target_6A KeGMIBD bJLMGBC Incongruent left error Normal 1280.421
206 40 LeftLarger PercIAExp1 Prime_4A Target_1N BAgCajG HfEBkaC Congruent right correct Normal 741.0482
206 41 LeftLarger PercIAExp1 Prime_4A Target_4N JFIHmbk AmbacHf Congruent right correct Normal 1263.227
206 42 LeftLarger PercIAExp1 Prime_1A Target_4A jCDIiHJ MIheCKj Congruent left error Normal 1103.599
206 43 LeftLarger PercIAExp1 Prime_9N Target_1A fmAhEbl fICeEgk Incongruent left correct Normal 1136.005
206 44 LeftLarger PercIAExp1 Prime_1A Target_6A jMGJcfe ecgbHGm Incongruent right correct Normal 1621.336
206 45 LeftLarger PercIAExp1 Prime_9A Target_4N kAHIeFl EckCfBL Incongruent left correct Normal 1284.505
206 46 LeftLarger PercIAExp1 Prime_4A Target_6N bKEjGdD jIFBmLK Incongruent right correct Normal 923.5392
206 47 LeftLarger PercIAExp1 Prime_4N Target_4N ecAadGm LkjGliB Congruent left error Normal 728.1168
206 48 LeftLarger PercIAExp1 Prime_6A Target_4A ckjadFA eCMgiBk Incongruent left correct Normal 1120.017
206 49 LeftLarger PercIAExp1 Prime_4N Target_6A jKCHLMD HkajAde Incongruent left error Normal 1720.558
206 50 LeftLarger PercIAExp1 Prime_4A Target_9A aKdIEDF LbKMaBJ Incongruent right correct Late 6261.47
206 51 LeftLarger PercIAExp1 Prime_6N Target_9N GAficdl LGfKkHA Congruent left correct Normal 717.7499
206 52 LeftLarger PercIAExp1 Prime_6A Target_1N hLCjAfk BcKeHai Incongruent right error Normal 1231.792
206 53 LeftLarger PercIAExp1 Prime_6N Target_4N IlCLGbJ hjDBedl Incongruent left correct Normal 1043.099
206 54 LeftLarger PercIAExp1 Prime_6N Target_4A IaBilLF ilcLbIM Incongruent left correct Normal 1145.812
206 55 LeftLarger PercIAExp1 Prime_1N Target_9A KLjHGEF FiKGAhl Incongruent right correct Normal 1373.985
206 56 LeftLarger PercIAExp1 Prime_9N Target_6N dfJHCFl iKGAdjJ Congruent right error Normal 1137.848
206 57 LeftLarger PercIAExp1 Prime_4A Target_6A lkhMcBi bdkmCAI Incongruent left error Normal 841.5863
206 58 LeftLarger PercIAExp1 Prime_6A Target_6A McJDkia jJFdEDA Congruent right error Normal 989.5865
206 59 LeftLarger PercIAExp1 Prime_9A Target_9N MmJbKjB FHbhDgm Congruent left correct Normal 1842.188
206 60 LeftLarger PercIAExp1 Prime_4N Target_4A aIFdHMg BJclgkj Congruent right correct Normal 1300.115
206 61 LeftLarger PercIAExp1 Prime_4N Target_9A kBCfKLa ABdHbaK Incongruent left error Normal 1040.186
206 62 LeftLarger PercIAExp1 Prime_6N Target_1A AdFfiJG iKHgfFj Incongruent right error Normal 1058.853
206 63 LeftLarger PercIAExp1 Prime_1A Target_1N lJDjAmK bKkChEf Congruent left error Normal 1021.413
206 64 LeftLarger PercIAExp1 Prime_4N Target_6N GaKkEDf ClAeLIE Incongruent left error Normal 1355.096
206 65 LeftLarger PercIAExp1 Prime_1N Target_6N FDCEijc BcdlHMh Incongruent right correct Normal 1487.003
206 66 LeftLarger PercIAExp1 Prime_1N Target_9N LabHdjG ABmIjdJ Incongruent left error Normal 945.0405
206 67 LeftLarger PercIAExp1 Prime_1A Target_9N BLbkjcM mFBhkeH Incongruent left error Late 8726.06
206 68 LeftLarger PercIAExp1 Prime_4N Target_1A lIchiHg lIcCFhf Congruent left error Normal 1450.127
206 69 LeftLarger PercIAExp1 Prime_4N Target_9N ilBjmHJ AfIMJdk Incongruent right correct Normal 988.8835
206 70 LeftLarger PercIAExp1 Prime_6A Target_9A jhBMIid BAkbMhK Congruent left correct Normal 654.92
206 71 LeftLarger PercIAExp1 Prime_1N Target_4N lHKDMha emEbFdB Congruent left error Late 6348.35
206 72 LeftLarger PercIAExp1 Prime_6A Target_1A gGMjLbE hifIFJA Incongruent left correct Normal 839.5324
206 73 LeftLarger PercIAExp1 Prime_6N Target_6N fGaeCJg CGALKhe Congruent right error Normal 722.7702
206 74 LeftLarger PercIAExp1 Prime_9A Target_4A AMFeKdI KjEbfmH Incongruent left correct Normal 1038.672
206 75 LeftLarger PercIAExp1 Prime_9A Target_1N JHdAIBm IHheLla Incongruent left correct Normal 830.4843
206 76 LeftLarger PercIAExp1 Prime_1A Target_6N BedJKgI dIMlchk Incongruent right correct Normal 868.4265
206 77 LeftLarger PercIAExp1 Prime_9N Target_6A MmhdkfC ABabcfL Congruent right error Normal 863.159
206 78 LeftLarger PercIAExp1 Prime_9A Target_6N limBIGd HLglafk Congruent left correct Normal 695.3226
206 79 LeftLarger PercIAExp1 Prime_6N Target_6A jJebMhl FLgdjGc Congruent left correct Normal 1446.927
206 80 LeftLarger PercIAExp1 Prime_1A Target_9A ikgbmaC KGHhMCf Incongruent right correct Normal 1018.774
206 81 LeftSmaller PercIBPrac Prime_6N Target_4A aFAfChg ECkacid Incongruent right correct Normal 742.7393
206 82 LeftSmaller PercIBPrac Prime_1N Target_1N HkdKhDL CFJjEce Congruent left correct Normal 686.0842
206 83 LeftSmaller PercIBPrac Prime_4N Target_4N iGgEbeh mAIFhGD Congruent left correct Normal 1064.675
206 84 LeftSmaller PercIBPrac Prime_4N Target_1N fLMCEid AdiBajF Congruent right error Normal 625.7299
206 85 LeftSmaller PercIBPrac Prime_1N Target_4A AIKdECj fGFleLI Congruent left correct Normal 912.2524
206 86 LeftSmaller PercIBPrac Prime_6A Target_9N lgIeMai FhgaCik Congruent left error Normal 996.7529
206 87 LeftSmaller PercIBPrac Prime_9N Target_4A MimHGeL kMjJaKD Incongruent right correct Normal 727.867
206 88 LeftSmaller PercIBPrac Prime_4A Target_9A fEejBHG GaAIjdM Incongruent right error Normal 630.4159
206 89 LeftSmaller PercIBPrac Prime_6A Target_4A DGdcblj FiaeBdL Incongruent left error Normal 1178.082
206 90 LeftSmaller PercIBPrac Prime_4A Target_1A lhaMFDH cdekfKi Congruent right error Normal 757.9999
206 91 LeftSmaller PercIBPrac Prime_9A Target_1N AmBjbfc dgKjecL Incongruent left error Normal 433.7687
206 92 LeftSmaller PercIBPrac Prime_6A Target_1N hFKfLCi BHAEIFd Incongruent right correct Normal 4360.428
206 93 LeftSmaller PercIBPrac Prime_9N Target_6A JkLiGCh BMckIJb Congruent left error Normal 518.2013
206 94 LeftSmaller PercIBPrac Prime_1A Target_4N kmjadiK agJFDfL Congruent left correct Normal 538.5935
206 95 LeftSmaller PercIBPrac Prime_1N Target_6N ijFchaM dLajiGm Incongruent left correct Normal 1000.72
206 96 LeftSmaller PercIBPrac Prime_4A Target_9N dihgHDf GjgFmJh Incongruent right error Normal 813.7003
206 97 LeftSmaller PercIBExp1 Prime_4N Target_6A dkLgaKb AfBaEbh Incongruent left correct Normal 499.392
206 98 LeftSmaller PercIBExp1 Prime_6N Target_1N DGFbgmj fClKGDI Incongruent left error Normal 563.1913
206 99 LeftSmaller PercIBExp1 Prime_1N Target_9N miJhFkj jehIcgd Incongruent left correct Normal 803.9378
206 100 LeftSmaller PercIBExp1 Prime_9N Target_4A hHMLmAJ GlfkEiJ Incongruent right correct Normal 859.5898
206 101 LeftSmaller PercIBExp1 Prime_9N Target_6N gEFmKDM fAJcBHd Congruent left error Normal 1339.205
206 102 LeftSmaller PercIBExp1 Prime_1A Target_6N GBefDFL mIMkLhf Incongruent left correct Normal 860.3666
206 103 LeftSmaller PercIBExp1 Prime_9A Target_6A cMALBIe hLjmHeK Congruent right correct Normal 816.0505
206 104 LeftSmaller PercIBExp1 Prime_9A Target_6N MBiaGhc bjIGHei Congruent left error Normal 892.3826
206 105 LeftSmaller PercIBExp1 Prime_9N Target_9N fkHKdlg cBLiDCe Congruent left error Normal 568.2206
206 106 LeftSmaller PercIBExp1 Prime_6N Target_4A AEJcgim dBLJmIE Incongruent right correct Normal 511.6833
206 107 LeftSmaller PercIBExp1 Prime_6A Target_4A LFDdJaI JcHACMa Incongruent right correct Normal 928.5835
206 108 LeftSmaller PercIBExp1 Prime_1N Target_6N bgKcGlJ blhdEHF Incongruent left correct Normal 896.5174
206 109 LeftSmaller PercIBExp1 Prime_4A Target_1N gmCkHMh AIDHldB Congruent right error Normal 794.0302
206 110 LeftSmaller PercIBExp1 Prime_4A Target_1A LBIEGMD iCKJmhc Congruent left correct Normal 479.0608
206 111 LeftSmaller PercIBExp1 Prime_6N Target_9A fEAChkH hMdHFkc Congruent right correct Normal 672.3298
206 112 LeftSmaller PercIBExp1 Prime_6A Target_1N MAhjKLD kaGDdFe Incongruent right correct Normal 776.0267
206 113 LeftSmaller PercIBExp1 Prime_4N Target_1N IdaBicj AbmfJFG Congruent right error Normal 1073.498
206 114 LeftSmaller PercIBExp1 Prime_6N Target_6A DkIJMFd dDCLAKG Congruent left error Normal 760.4252
206 115 LeftSmaller PercIBExp1 Prime_4A Target_9A AaJeEgL EJmIMFf Incongruent left correct Normal 1390.13
206 116 LeftSmaller PercIBExp1 Prime_4A Target_4A gMikcGh lcimKgH Congruent right error Normal 907.9236
206 117 LeftSmaller PercIBExp1 Prime_6N Target_1A EKfgieD JAkdamD Incongruent left error Normal 988.5584
206 118 LeftSmaller PercIBExp1 Prime_6A Target_4N IdEBhCG fDeBgEk Incongruent right correct Normal 1542.668
206 119 LeftSmaller PercIBExp1 Prime_9A Target_4A mlHBDMK KlkAHMf Incongruent left error Normal 889.011
206 120 LeftSmaller PercIBExp1 Prime_1A Target_9N KAkaglb BEIcJdL Incongruent left correct Normal 1007.852
206 121 LeftSmaller PercIBExp1 Prime_4N Target_4A LFEcgej kDAFCML Congruent left correct Normal 1028.383
206 122 LeftSmaller PercIBExp1 Prime_1A Target_9A eBKfLJc AmgGiJK Incongruent right error Normal 514.2157
206 123 LeftSmaller PercIBExp1 Prime_9A Target_9A DleBHFA ikFhEmb Congruent left error Normal 970.6719
206 124 LeftSmaller PercIBExp1 Prime_4N Target_6N LhHcegD mKfMblj Incongruent right error Normal 730.023
206 125 LeftSmaller PercIBExp1 Prime_4N Target_9N jAdhEfC alFbfdL Incongruent left correct Normal 691.1682
206 126 LeftSmaller PercIBExp1 Prime_6A Target_6N dEmChgG hdIAcCe Congruent left error Normal 917.5076
206 127 LeftSmaller PercIBExp1 Prime_4N Target_1A KGbFmAj BIagGDA Congruent right error Normal 1329.429
206 128 LeftSmaller PercIBExp1 Prime_9A Target_1A kiDEJjg ElbhjAe Incongruent left error Normal 890.1074
206 129 LeftSmaller PercIBExp1 Prime_9A Target_1N cCdaFDE kaiHLIm Incongruent left error Normal 1132.3
206 130 LeftSmaller PercIBExp1 Prime_6N Target_6N fAjEaGc fhIDBLG Congruent right correct Normal 599.6925
206 131 LeftSmaller PercIBExp1 Prime_9A Target_4N AKBhdiF hcJjkma Incongruent left error Normal 946.4629
206 132 LeftSmaller PercIBExp1 Prime_9N Target_6A KaMhIHf BHdIKiL Congruent left error Normal 1220.059
206 133 LeftSmaller PercIBExp1 Prime_6N Target_4N DeLkgdi lLfIDdj Incongruent right correct Normal 1227.978
206 134 LeftSmaller PercIBExp1 Prime_9N Target_4N kcAEBDI CFLHAeg Incongruent left error Normal 1399.542
206 135 LeftSmaller PercIBExp1 Prime_6A Target_6A BDgikdK dkembEH Congruent right correct Normal 1285.093
206 136 LeftSmaller PercIBExp1 Prime_1N Target_1N imEFkba hckFlMB Congruent left correct Normal 800.3012
206 137 LeftSmaller PercIBExp1 Prime_4A Target_9N lfiLckg cFjCihe Incongruent left correct Normal 966.3043
206 138 LeftSmaller PercIBExp1 Prime_4A Target_6N bGilCjI cjHgGDb Incongruent left correct Normal 1281.366
206 139 LeftSmaller PercIBExp1 Prime_6A Target_9N CAejLbF eGbkcDH Congruent right correct Normal 1074.116
206 140 LeftSmaller PercIBExp1 Prime_6A Target_1A LfhDgGa Bjmhebf Incongruent right correct Normal 670.1982
206 141 LeftSmaller PercIBExp1 Prime_4N Target_9A JGgeAKa lALikKH Incongruent left correct Normal 1207.891
206 142 LeftSmaller PercIBExp1 Prime_9N Target_9A JljmbFf jdBmiba Congruent left error Normal 973.9601
206 143 LeftSmaller PercIBExp1 Prime_1A Target_4A FjGEkgb jKhgkEM Congruent left correct Normal 1038.489
206 144 LeftSmaller PercIBExp1 Prime_1N Target_9A BJIgKAM lHGBhiE Incongruent right error Normal 891.2775
206 145 LeftSmaller PercIBExp1 Prime_1N Target_1A AgHFCcm KbClHmD Congruent right error Normal 1215.111
206 146 LeftSmaller PercIBExp1 Prime_1N Target_4A AaCfBKj cbhlfjB Congruent left correct Normal 577.1516
206 147 LeftSmaller PercIBExp1 Prime_4A Target_4N hKHajLe JmKMldc Congruent left correct Normal 1180.427
206 148 LeftSmaller PercIBExp1 Prime_1A Target_1N aFmijJd DeifEgI Congruent right error Normal 863.2347
206 149 LeftSmaller PercIBExp1 Prime_4N Target_4N hmBEaKG BcMKjmD Congruent right error Normal 1021.106
206 150 LeftSmaller PercIBExp1 Prime_6N Target_9N cIKLbAD gIDckde Congruent left error Normal 1053.073
206 151 LeftSmaller PercIBExp1 Prime_1N Target_6A IgjECLe fJGLjeC Incongruent left correct Normal 1035.259
206 152 LeftSmaller PercIBExp1 Prime_1A Target_1A cmLjlMf aIdEJkG Congruent left correct Normal 1328.447
206 153 LeftSmaller PercIBExp1 Prime_1A Target_6A KDaHgck GCMdlhH Incongruent right error Normal 889.6218
206 154 LeftSmaller PercIBExp1 Prime_1N Target_4N CIkMmgj JGjbEBk Congruent left correct Normal 434.5322
206 155 LeftSmaller PercIBExp1 Prime_6A Target_9A KDIlbFc jIgaKMl Congruent left error Normal 693.9461
206 156 LeftSmaller PercIBExp1 Prime_1A Target_4N fDdMaAG famhCGB Congruent right error Normal 1030.887
206 157 LeftSmaller PercIBExp1 Prime_9N Target_1A JEmiCkh cFMIkfH Incongruent left error Normal 1244.542
206 158 LeftSmaller PercIBExp1 Prime_4A Target_6A AchdKDg lDEiAem Incongruent right error Normal 1094.475
206 159 LeftSmaller PercIBExp1 Prime_9A Target_9N blgEKaD cgLIADl Congruent left error Normal 1157.517
