sub trial_no group_type block_type prime target mask1 mask2 congruency key_press key_error time_error RT
701 1 LeftSmaller PercIAPrac Prime_6N Target_6A aCJBElL JegAFMc Congruent right correct Normal 427.9697
701 2 LeftSmaller PercIAPrac Prime_4N Target_9A CBLMAIm MDkiHmF Incongruent left correct Normal 395.1569
701 3 LeftSmaller PercIAPrac Prime_9N Target_9A iKECAgd fimblCH Congruent right correct Normal 469.614
701 4 LeftSmaller PercIAPrac Prime_1A Target_1A fEihKAg iAGKklJ Congruent right error Normal 874.07
701 5 LeftSmaller PercIAPrac Prime_1A Target_9N IjlFBam dfHjEFK Incongruent left correct Normal 842.7278
701 6 LeftSmaller PercIAPrac Prime_6N Target_1N kFBlhDK Dmclkij Incongruent left error Normal 1317.148
701 7 LeftSmaller PercIAPrac Prime_4A Target_4N IMCiEDc ajelCAb Congruent right error Normal 554.5971
701 8 LeftSmaller PercIAPrac Prime_1A Target_9A HhileCA EFcLmHM Incongruent left correct Normal 794.1232
701 9 LeftSmaller PercIAPrac Prime_9N Target_6N EHAIkfb AcidHCM Congruent right correct Normal 317.1776
701 10 LeftSmaller PercIAPrac Prime_9A Target_6A kGMBCEb gDEaIBb Congruent right correct Normal 594.6589
701 11 LeftSmaller PercIAPrac Prime_1N Target_1N CJEMldf eILaEGJ Congruent left correct Normal 343.9814
701 12 LeftSmaller PercIAPrac Prime_6N Target_6N LfbFehd hceKBFg Congruent left error Normal 3360.101
701 13 LeftSmaller PercIAPrac Prime_9A Target_1A agKBlid IEbgiaj Incongruent right correct Normal 808.0178
701 14 LeftSmaller PercIAPrac Prime_1A Target_1N bCiGEad hkaIdGB Congruent right error Normal 4699.705
701 15 LeftSmaller PercIAPrac Prime_6N Target_4A fIFAajl lhGDAaH Incongruent right correct Normal 541.6821
701 16 LeftSmaller PercIAPrac Prime_4A Target_1N FjbaMEJ KaDmIkC Congruent right error Normal 354.473
701 17 LeftSmaller PercIAExp1 Prime_4N Target_9A FBfdKkD djEgcHi Incongruent right error Normal 471.7625
701 18 LeftSmaller PercIAExp1 Prime_9A Target_6N fjMiJFa BhljGkA Congruent right correct Normal 439.9474
701 19 LeftSmaller PercIAExp1 Prime_1N Target_4N BDHlIcj LHmjeDg Congruent right error Normal 401.7629
701 20 LeftSmaller PercIAExp1 Prime_6N Target_6A IjfLbdJ hmCdfFa Congruent right correct Normal 414.2359
701 21 LeftSmaller PercIAExp1 Prime_9N Target_1A hGHeBmM FgaDidf Incongruent right correct Normal 499.6955
701 22 LeftSmaller PercIAExp1 Prime_4N Target_6A ljLMCmI mbejKBJ Incongruent right error Normal 473.0014
701 23 LeftSmaller PercIAExp1 Prime_4N Target_1A AIDCdHe BCJeAil Congruent right error Normal 294.2986
701 24 LeftSmaller PercIAExp1 Prime_9N Target_6N keCjdhH ckjECIA Congruent right correct Normal 302.2244
701 25 LeftSmaller PercIAExp1 Prime_1N Target_6N mJfeKcB gAKBfjC Incongruent right error Normal 388.0677
701 26 LeftSmaller PercIAExp1 Prime_9A Target_1N fkaCjDe cDmfeiI Incongruent right correct Normal 270.0791
701 27 LeftSmaller PercIAExp1 Prime_1A Target_4A kDAfECe dGDAlci Congruent right error Normal 292.9574
701 28 LeftSmaller PercIAExp1 Prime_4A Target_4A lGFfMJb dDJlBbh Congruent right error Normal 129.5489
701 29 LeftSmaller PercIAExp1 Prime_1A Target_6N KGCeIak LKMgbcA Incongruent left correct Normal 372.5997
701 30 LeftSmaller PercIAExp1 Prime_9N Target_1N dKCaIfE bBiLgKk Incongruent left error Normal 3686.609
701 31 LeftSmaller PercIAExp1 Prime_6N Target_1A ldgibIH lcKeFAk Incongruent right correct Normal 361.3881
701 32 LeftSmaller PercIAExp1 Prime_4A Target_1A hiMJABg LEbBlif Congruent left correct Normal 907.5268
701 33 LeftSmaller PercIAExp1 Prime_6N Target_4N JmCkEDI lkaIhEA Incongruent right correct Normal 322.5882
701 34 LeftSmaller PercIAExp1 Prime_6A Target_4N CldMHEk hdIMGmb Incongruent right correct Normal 385.7122
701 35 LeftSmaller PercIAExp1 Prime_9N Target_4A iLgDfdM cKGhidH Incongruent right correct Normal 252.9229
701 36 LeftSmaller PercIAExp1 Prime_1A Target_9N dLHGmJC kEAcFgL Incongruent right error Normal 118.1955
701 37 LeftSmaller PercIAExp1 Prime_6A Target_1N GchDHdl jcgiDhf Incongruent left error Normal 541.8707
701 38 LeftSmaller PercIAExp1 Prime_4N Target_4A DdCeFBE MbBCaFL Congruent right error Normal 262.3568
701 39 LeftSmaller PercIAExp1 Prime_6N Target_1N jMmceaF lgbCHkD Incongruent right correct Normal 237.0742
701 40 LeftSmaller PercIAExp1 Prime_6A Target_1A blgaIJK HCiBJAa Incongruent right correct Early 92.57987
701 41 LeftSmaller PercIAExp1 Prime_6A Target_9N KcemhIb DjMhciL Congruent right correct Normal 396.5128
701 42 LeftSmaller PercIAExp1 Prime_6N Target_9N MKFklCG IAjmMkH Congruent right correct Normal 166.4418
701 43 LeftSmaller PercIAExp1 Prime_4A Target_9N FAfcCeH JAMEjec Incongruent right error Normal 127.1348
701 44 LeftSmaller PercIAExp1 Prime_1N Target_4A dJFeiML IjdEckJ Congruent right error Early 34.16236
701 45 LeftSmaller PercIAExp1 Prime_1A Target_1A lCgHBIm DcHCBLd Congruent left correct Normal 216.2827
701 46 LeftSmaller PercIAExp1 Prime_6N Target_4A flMmech IdcMjGe Incongruent right correct Normal 174.3146
701 47 LeftSmaller PercIAExp1 Prime_4N Target_1N hldMbei HgKjAle Congruent right error Normal 247.3652
701 48 LeftSmaller PercIAExp1 Prime_9A Target_9N JGEabKM EKjdIbM Congruent right correct Normal 318.5384
701 49 LeftSmaller PercIAExp1 Prime_9A Target_1A daHfeFG LdHADcj Incongruent right correct Normal 136.1565
701 50 LeftSmaller PercIAExp1 Prime_6N Target_6N EDLjmFJ fhGaBIK Congruent left error Normal 390.2166
701 51 LeftSmaller PercIAExp1 Prime_1A Target_9A CdBLEjA dkcCmFa Incongruent left correct Normal 256.8907
701 52 LeftSmaller PercIAExp1 Prime_1A Target_6A LKcBmAG IgJEMda Incongruent right error Normal 285.161
701 53 LeftSmaller PercIAExp1 Prime_4A Target_1N HdcgbAB BcfkjAm Congruent right error Early 9.168874
701 54 LeftSmaller PercIAExp1 Prime_9A Target_6A DbleCma MaGcLbF Congruent right correct Early 10.68175
701 55 LeftSmaller PercIAExp1 Prime_4A Target_6A djJDHcE fcHEekG Incongruent right error Early 34.29325
701 56 LeftSmaller PercIAExp1 Prime_6N Target_9A gKaJhHe GgcMhiD Congruent right correct Normal 138.1846
701 57 LeftSmaller PercIAExp1 Prime_6A Target_6N dMJAeBK LiKdaEI Congruent right correct Early 61.1604
701 58 LeftSmaller PercIAExp1 Prime_9N Target_4N iCEmDba iBbJDdE Incongruent left error Normal 191.1372
701 59 LeftSmaller PercIAExp1 Prime_9N Target_9N JEifhCG gJDcjda Congruent right correct Normal 141.6556
701 60 LeftSmaller PercIAExp1 Prime_6A Target_9A hLgfGEI FKLegmk Congruent right correct Early 5.039789
701 61 LeftSmaller PercIAExp1 Prime_6A Target_4A GbHAcJh fgJahCb Incongruent left error Early 70.97487
701 62 LeftSmaller PercIAExp1 Prime_1N Target_9N mIJAagG GFDEbiC Incongruent right error Early 69.01394
701 63 LeftSmaller PercIAExp1 Prime_9N Target_6A hBIilbg bcAICDm Congruent right correct Normal 106.3008
701 64 LeftSmaller PercIAExp1 Prime_4A Target_4N CjabdeL jKAckEI Congruent right error Normal 182.1489
701 65 LeftSmaller PercIAExp1 Prime_9A Target_9A jJlMGDF MDgCIjf Congruent left error Normal 339.6556
701 66 LeftSmaller PercIAExp1 Prime_1A Target_1N jfeHkJl fcLJIlj Congruent right error Early 43.62972
701 67 LeftSmaller PercIAExp1 Prime_9A Target_4A bhHiIle HigcJdh Incongruent left error Early 32.09964
701 68 LeftSmaller PercIAExp1 Prime_6A Target_6A FkKmJel EBfjdga Congruent right correct Early 14.87137
701 69 LeftSmaller PercIAExp1 Prime_1N Target_1N bAJdfjM ijCgdIf Congruent right error Early 49.05675
701 70 LeftSmaller PercIAExp1 Prime_9N Target_9A LCcfBJG kaFBKDl Congruent right correct Early 22.57454
701 71 LeftSmaller PercIAExp1 Prime_4N Target_4N EgdBmGA KidLDlg Congruent left correct Early 53.83041
701 72 LeftSmaller PercIAExp1 Prime_1N Target_9A HeBcKbi ELgkBbh Incongruent right error Normal 117.8721
701 73 LeftSmaller PercIAExp1 Prime_4N Target_6N iGgjJCk aGcLBjM Incongruent left correct Normal 473.146
701 74 LeftSmaller PercIAExp1 Prime_1N Target_6A iMGFbhE MfKcEjd Incongruent left correct Normal 326.7867
701 75 LeftSmaller PercIAExp1 Prime_4A Target_6N AbFgmKj BfMIAEl Incongruent left correct Normal 273.0766
701 76 LeftSmaller PercIAExp1 Prime_1A Target_4N aBLCegc geHIiFj Congruent left correct Normal 296.1757
701 77 LeftSmaller PercIAExp1 Prime_1N Target_1A clChJiA EgKmdHI Congruent left correct Normal 214.6646
701 78 LeftSmaller PercIAExp1 Prime_9A Target_4N aMFjlIb bAcBDJF Incongruent left error Normal 202.4361
701 79 LeftSmaller PercIAExp1 Prime_4N Target_9N eEGdJCg MEADgaj Incongruent left correct Normal 172.9966
701 80 LeftSmaller PercIAExp1 Prime_4A Target_9A fGMJhji BfMhIDe Incongruent left correct Normal 145.6082
701 81 LeftLarger PercIBPrac Prime_6N Target_4A EmMbkCB hDKkHJG Incongruent left correct Normal 399.3871
701 82 LeftLarger PercIBPrac Prime_9N Target_1N Blcjdeb CjGMhim Incongruent left correct Normal 345.5833
701 83 LeftLarger PercIBPrac Prime_6A Target_4A McmFilL fiCebJB Incongruent left correct Normal 256.6854
701 84 LeftLarger PercIBPrac Prime_4N Target_1N KlEidLG ikehfDB Congruent right correct Normal 401.6136
701 85 LeftLarger PercIBPrac Prime_9N Target_9N alBCdkc mDfJgHd Congruent right error Normal 417.3421
701 86 LeftLarger PercIBPrac Prime_4N Target_4N HKgGFdj EgDmIaf Congruent left error Normal 694.1856
701 87 LeftLarger PercIBPrac Prime_9N Target_6N cdjmfLA EmecBdi Congruent left correct Normal 585.3735
701 88 LeftLarger PercIBPrac Prime_4N Target_4A lEFhCKB daBbDhA Congruent left error Normal 532.1741
701 89 LeftLarger PercIBPrac Prime_6A Target_9A malICcb LBKlcJf Congruent left correct Normal 404.5757
701 90 LeftLarger PercIBPrac Prime_6A Target_4N DMKHfgG IGcAaKi Incongruent right error Normal 563.5011
701 91 LeftLarger PercIBPrac Prime_4A Target_4N KbMimHd lMIFJDe Congruent left error Normal 474.4444
701 92 LeftLarger PercIBPrac Prime_9A Target_6A AfjBCJM cDHbfmi Congruent left correct Normal 393.4594
701 93 LeftLarger PercIBPrac Prime_9A Target_4N KHDlcgC jKJMlAc Incongruent left correct Normal 279.6151
701 94 LeftLarger PercIBPrac Prime_6N Target_9A LhFgAMi MBgkcJj Congruent left correct Normal 424.2963
701 95 LeftLarger PercIBPrac Prime_9N Target_1A DMdeKCf mgCiJKf Incongruent right error Normal 223.6914
701 96 LeftLarger PercIBPrac Prime_1N Target_1A HIhFdKm kbifAed Congruent right correct Normal 401.8237
701 97 LeftLarger PercIBExp1 Prime_1N Target_1N IdLfAji EBfbCdk Congruent left error Normal 520.0047
701 98 LeftLarger PercIBExp1 Prime_9N Target_9A cJekGDa gKFbkBa Congruent left correct Normal 295.9293
701 99 LeftLarger PercIBExp1 Prime_4N Target_4N EIlBLbd dIhejfM Congruent left error Normal 207.5714
701 100 LeftLarger PercIBExp1 Prime_4N Target_9N eFLMdfD JBFaKCL Incongruent left error Normal 274.3767
701 101 LeftLarger PercIBExp1 Prime_9N Target_1N gjkMacJ ejckKEd Incongruent right error Normal 346.5384
701 102 LeftLarger PercIBExp1 Prime_1N Target_6A IeDLmCM aeIKikl Incongruent left error Normal 688.8159
701 103 LeftLarger PercIBExp1 Prime_6N Target_9N fcCDlJk adFblfJ Congruent left correct Normal 301.7537
701 104 LeftLarger PercIBExp1 Prime_6N Target_4N IEHkdmK hEcBMie Incongruent left correct Normal 401.7749
701 105 LeftLarger PercIBExp1 Prime_1N Target_9N MKIbhcL JMKiCFd Incongruent left error Normal 355.0579
701 106 LeftLarger PercIBExp1 Prime_1N Target_4N igHMhme BhMLeCb Congruent left error Normal 324.6911
701 107 LeftLarger PercIBExp1 Prime_9N Target_1A IbfElKm eaicJCB Incongruent left correct Normal 628.7696
701 108 LeftLarger PercIBExp1 Prime_4N Target_9A DGkFKjA BCKJdGj Incongruent left error Normal 345.4312
701 109 LeftLarger PercIBExp1 Prime_9N Target_4N igMjeDd gLeJKiD Incongruent right error Normal 487.3545
701 110 LeftLarger PercIBExp1 Prime_9A Target_4N feKkHJg AGImKcb Incongruent left correct Normal 313.0042
701 111 LeftLarger PercIBExp1 Prime_4N Target_6N KGbhmlg GdghjlL Incongruent left error Normal 346.748
701 112 LeftLarger PercIBExp1 Prime_6A Target_4N mDlCjAL KfMIEJD Incongruent left correct Normal 367.9597
701 113 LeftLarger PercIBExp1 Prime_1A Target_9A FDhkGMI hJmIfgd Incongruent left error Normal 339.2328
701 114 LeftLarger PercIBExp1 Prime_9A Target_4A MDIAjgL CIAmegb Incongruent left correct Normal 347.2833
701 115 LeftLarger PercIBExp1 Prime_6A Target_6A EmGHeDL AGmEKFC Congruent left correct Normal 320.3956
701 116 LeftLarger PercIBExp1 Prime_6N Target_1A JDIabMA IGjbKDd Incongruent left correct Normal 284.6154
701 117 LeftLarger PercIBExp1 Prime_1A Target_4N AflJhHe gjdlaeL Congruent left error Normal 353.2544
701 118 LeftLarger PercIBExp1 Prime_1A Target_6N EekaDiL AhjkEcg Incongruent left error Normal 298.6708
701 119 LeftLarger PercIBExp1 Prime_9A Target_9N kGEIfBM DkgdaHb Congruent left correct Normal 560.9453
701 120 LeftLarger PercIBExp1 Prime_6N Target_9A haBJFGD jlFMckB Congruent left correct Normal 472.3752
701 121 LeftLarger PercIBExp1 Prime_9N Target_6A dFeGjcK CDGibfH Congruent left correct Normal 3749.462
701 122 LeftLarger PercIBExp1 Prime_1A Target_1N bMlJeFk HLieGjC Congruent left error Normal 941.3766
701 123 LeftLarger PercIBExp1 Prime_4N Target_1N hCdFeki ElkjhFK Congruent right correct Normal 566.5836
701 124 LeftLarger PercIBExp1 Prime_6N Target_1N MbLlfih LclGKAF Incongruent right error Normal 509.9595
701 125 LeftLarger PercIBExp1 Prime_9A Target_1N DejKlbE elADjBC Incongruent left correct Normal 551.0339
701 126 LeftLarger PercIBExp1 Prime_1N Target_6N gKhfDeE bfECglA Incongruent left error Normal 535.5189
701 127 LeftLarger PercIBExp1 Prime_4A Target_1N kcAMehB BeHdfJl Congruent right correct Normal 391.0021
701 128 LeftLarger PercIBExp1 Prime_6A Target_6N eKmdflA mILKCFc Congruent left correct Normal 407.53
701 129 LeftLarger PercIBExp1 Prime_1A Target_1A ekgDHac eDiHLFB Congruent right correct Normal 479.0474
701 130 LeftLarger PercIBExp1 Prime_6A Target_9A hAMciaj EMJmgHA Congruent left correct Normal 498.8628
701 131 LeftLarger PercIBExp1 Prime_1N Target_4A kGBjeCF mIFMLHg Congruent left error Normal 268.218
701 132 LeftLarger PercIBExp1 Prime_9N Target_4A ALEKJDC gBheAIL Incongruent left correct Normal 569.0494
701 133 LeftLarger PercIBExp1 Prime_9A Target_6N dheLEBH ECImiDM Congruent left correct Normal 343.8469
701 134 LeftLarger PercIBExp1 Prime_6A Target_9N bJkFaKM CkIBfHm Congruent left correct Normal 268.505
701 135 LeftLarger PercIBExp1 Prime_6A Target_4A lEajFKB IGiLEBa Incongruent left correct Normal 317.8977
701 136 LeftLarger PercIBExp1 Prime_9A Target_9A KgaLfcM KbLmeIg Congruent left correct Normal 293.5943
701 137 LeftLarger PercIBExp1 Prime_4N Target_6A CFDdihj CjEGFLl Incongruent left error Normal 190.7373
701 138 LeftLarger PercIBExp1 Prime_9A Target_6A LldjAfE MkbGjDJ Congruent left correct Normal 188.0113
701 139 LeftLarger PercIBExp1 Prime_6A Target_1N KlgdMLF hdMJElD Incongruent left correct Normal 245.687
701 140 LeftLarger PercIBExp1 Prime_9N Target_9N efGdgjc jimKeED Congruent left correct Normal 348.3595
701 141 LeftLarger PercIBExp1 Prime_6N Target_4A LlCihKE ACibhBj Incongruent left correct Normal 113.999
701 142 LeftLarger PercIBExp1 Prime_1A Target_9N bIAeMjL bFfjeMa Incongruent right correct Normal 234.4193
701 143 LeftLarger PercIBExp1 Prime_4A Target_1A ijJfgdk DeiJLkC Congruent left error Normal 202.1878
701 144 LeftLarger PercIBExp1 Prime_1A Target_4A BDMeFCI CFjiLBm Congruent right correct Normal 634.8664
701 145 LeftLarger PercIBExp1 Prime_4A Target_4N BHkIcaF JehLjHG Congruent left error Normal 444.783
701 146 LeftLarger PercIBExp1 Prime_6N Target_6A IJdhjfk GbAEmaL Congruent left correct Normal 618.786
701 147 LeftLarger PercIBExp1 Prime_4A Target_9N FbHaDce EBGiHDF Incongruent right correct Normal 567.6871
701 148 LeftLarger PercIBExp1 Prime_4N Target_1A LEjMGle BHgCDkE Congruent left error Normal 209.2708
701 149 LeftLarger PercIBExp1 Prime_4A Target_9A mHdFkcg FcEagCe Incongruent left error Normal 382.1314
701 150 LeftLarger PercIBExp1 Prime_4A Target_6A JLgFbiC iFHBeJh Incongruent right correct Normal 659.2049
701 151 LeftLarger PercIBExp1 Prime_1N Target_9A BahjILC BIedgKG Incongruent left error Normal 414.0097
701 152 LeftLarger PercIBExp1 Prime_6N Target_6N dEmaIAf CJembIg Congruent right error Normal 536.8154
701 153 LeftLarger PercIBExp1 Prime_9A Target_1A IFcHGgC KBLeAdk Incongruent left correct Normal 447.0872
701 154 LeftLarger PercIBExp1 Prime_1A Target_6A KDBGlJh MGmijJL Incongruent left error Normal 625.2502
701 155 LeftLarger PercIBExp1 Prime_4A Target_4A gBbMCiA AaDbhGl Congruent left error Normal 4158.489
701 156 LeftLarger PercIBExp1 Prime_6A Target_1A EkBbFaC HabKgeA Incongruent right error Normal 606.7597
701 157 LeftLarger PercIBExp1 Prime_4N Target_4A JCfmIkE lgCbjAG Congruent right correct Normal 318.3275
701 158 LeftLarger PercIBExp1 Prime_1N Target_1A AJgkeBi gCjkdLF Congruent right correct Normal 379.8696
701 159 LeftLarger PercIBExp1 Prime_4A Target_6N efgbhdH DbLlJEj Incongruent right correct Normal 683.1288
701 160 LeftLarger PercIBExp1 Prime_9N Target_6N IaAiKDb JickGDd Congruent right error Normal 469.8338
702 1 LeftSmaller PercIAPrac Prime_4A Target_4A kHKgafA gFLmeHJ Congruent left correct Normal 1565.441
702 2 LeftSmaller PercIAPrac Prime_6N Target_9N BmGAKjM GLEBMCj Congruent right correct Normal 974.7567
702 3 LeftSmaller PercIAPrac Prime_4A Target_1N HAdJLbC JBILAmk Congruent right error Normal 957.9248
702 4 LeftSmaller PercIAPrac Prime_9A Target_9A aFDGAkL ehlIMcj Congruent left error Normal 975.5893
702 5 LeftSmaller PercIAPrac Prime_6N Target_4N hMBKLkj iGdEJaB Incongruent right correct Normal 1055.386
702 6 LeftSmaller PercIAPrac Prime_9A Target_4A JIhaAHG DeBMmki Incongruent right correct Normal 1046.449
702 7 LeftSmaller PercIAPrac Prime_6A Target_9A ehAibBM mcFhAEg Congruent left error Normal 791.3527
702 8 LeftSmaller PercIAPrac Prime_1A Target_9A GciefhH ICbAgEG Incongruent right error Normal 916.9102
702 9 LeftSmaller PercIAPrac Prime_9N Target_1A CABlMed dgFiBhj Incongruent right correct Normal 810.9527
702 10 LeftSmaller PercIAPrac Prime_1N Target_9N fldGgBD hcAIikC Incongruent left correct Normal 663.8805
702 11 LeftSmaller PercIAPrac Prime_1N Target_6A dBDfjIh HleKABE Incongruent right error Normal 1016.003
702 12 LeftSmaller PercIAPrac Prime_6A Target_6N GchEBlL kgBJdai Congruent right correct Normal 926.6062
702 13 LeftSmaller PercIAPrac Prime_1A Target_1N hMCaBbl bhIKCJa Congruent right error Normal 794.2791
702 14 LeftSmaller PercIAPrac Prime_9A Target_1N jgakBce Ackildf Incongruent right correct Normal 1002.062
702 15 LeftSmaller PercIAPrac Prime_6N Target_1A HDhLedc jCAFMLc Incongruent right correct Normal 922.3612
702 16 LeftSmaller PercIAPrac Prime_9A Target_4N bacDJgF ehmjkFJ Incongruent right correct Normal 626.5429
702 17 LeftSmaller PercIAExp1 Prime_9A Target_6N jCckAFM iCAhkIm Congruent right correct Normal 862.1134
702 18 LeftSmaller PercIAExp1 Prime_9N Target_6N jacBdbe GMKejkd Congruent left error Normal 760.1569
702 19 LeftSmaller PercIAExp1 Prime_9A Target_9N iBalFbE EAhclDK Congruent right correct Normal 821.8933
702 20 LeftSmaller PercIAExp1 Prime_4N Target_4N KLHEjla BAlfkeF Congruent right error Normal 887.8802
702 21 LeftSmaller PercIAExp1 Prime_9N Target_9N BIdAmbi kabdFlE Congruent right correct Normal 1234.203
702 22 LeftSmaller PercIAExp1 Prime_1N Target_9A mKCBLAG IjMlafL Incongruent left correct Normal 674.0937
702 23 LeftSmaller PercIAExp1 Prime_9N Target_4A EdGeFmB fdLCgiG Incongruent left error Normal 1099.382
702 24 LeftSmaller PercIAExp1 Prime_4A Target_9A dfcDmIH FHcfhgE Incongruent right error Normal 725.0508
702 25 LeftSmaller PercIAExp1 Prime_1A Target_6N fGFDejJ lDGHAhK Incongruent right error Normal 872.3543
702 26 LeftSmaller PercIAExp1 Prime_6A Target_6N eidkmLH IBmlEef Congruent right correct Normal 1122.113
702 27 LeftSmaller PercIAExp1 Prime_9A Target_6A dkMHcLJ JbfBLFe Congruent right correct Normal 744.2904
702 28 LeftSmaller PercIAExp1 Prime_6A Target_6A jBIcKEC lCADHbL Congruent left error Normal 1402.7
702 29 LeftSmaller PercIAExp1 Prime_1N Target_4A JdHCcEL MECcmLe Congruent right error Normal 1294.308
702 30 LeftSmaller PercIAExp1 Prime_6A Target_9N kfMbgKH JAGmgci Congruent right correct Normal 1185.72
702 31 LeftSmaller PercIAExp1 Prime_9A Target_1N ClhkGab fhgMBEL Incongruent right correct Normal 1081.657
702 32 LeftSmaller PercIAExp1 Prime_4N Target_6N aJjcKGM iJgfGba Incongruent left correct Normal 785.6887
702 33 LeftSmaller PercIAExp1 Prime_9N Target_1N HDeJlji BELGiJC Incongruent right correct Normal 990.2635
702 34 LeftSmaller PercIAExp1 Prime_6A Target_1N FAjLgMD djeaBfm Incongruent right correct Normal 691.0041
702 35 LeftSmaller PercIAExp1 Prime_6N Target_6A ECiHGjk EhmDcid Congruent left error Normal 1462.473
702 36 LeftSmaller PercIAExp1 Prime_4N Target_4A mHgelLG aIlJfjk Congruent right error Normal 756.4752
702 37 LeftSmaller PercIAExp1 Prime_1A Target_4N HJjFBAI IlDjedh Congruent left correct Normal 1176.206
702 38 LeftSmaller PercIAExp1 Prime_9N Target_9A gMEDhdI kKFLhJM Congruent left error Normal 1176.501
702 39 LeftSmaller PercIAExp1 Prime_6A Target_1A EkdDhHB EgmFGMK Incongruent right correct Normal 1028.16
702 40 LeftSmaller PercIAExp1 Prime_1N Target_4N fLIHDjc GaAhbkg Congruent left correct Normal 1190.992
702 41 LeftSmaller PercIAExp1 Prime_6N Target_9A CcgkGfL lfjIheE Congruent left error Normal 1191.034
702 42 LeftSmaller PercIAExp1 Prime_6N Target_9N aKmLIMf BHbaGDC Congruent right correct Normal 941.0952
702 43 LeftSmaller PercIAExp1 Prime_1N Target_9N gEcFHbe mAhfEbi Incongruent right error Normal 748.5091
702 44 LeftSmaller PercIAExp1 Prime_1N Target_6N BJbMaIf iBGjdcI Incongruent left correct Normal 752.7982
702 45 LeftSmaller PercIAExp1 Prime_4A Target_1A DCmHLKh AlCKhkH Congruent left correct Normal 1086.72
702 46 LeftSmaller PercIAExp1 Prime_1N Target_1N hefIgFG DKcdGaf Congruent left correct Normal 1431.468
702 47 LeftSmaller PercIAExp1 Prime_1N Target_1A iDJdhAF jedGmHb Congruent right error Normal 739.0926
702 48 LeftSmaller PercIAExp1 Prime_4N Target_9A FBHmhdL ejgfEmi Incongruent left correct Normal 974.9543
702 49 LeftSmaller PercIAExp1 Prime_4A Target_4A mMgebhj IJfLKCj Congruent left correct Normal 866.4159
702 50 LeftSmaller PercIAExp1 Prime_6N Target_4A chjHiFb fEclaHg Incongruent right correct Normal 833.472
702 51 LeftSmaller PercIAExp1 Prime_1A Target_1A HfilAec ElaMIJD Congruent right error Normal 1440.572
702 52 LeftSmaller PercIAExp1 Prime_4A Target_9N bfeCBkd EKBlaDL Incongruent left correct Normal 990.058
702 53 LeftSmaller PercIAExp1 Prime_9N Target_1A cmeHKgD DFlIMJd Incongruent right correct Normal 1274.369
702 54 LeftSmaller PercIAExp1 Prime_1A Target_9N AhGKMfd EalibHD Incongruent left correct Normal 1350.109
702 55 LeftSmaller PercIAExp1 Prime_9A Target_9A BIhGdCH KfDgehH Congruent right correct Normal 973.9915
702 56 LeftSmaller PercIAExp1 Prime_1A Target_1N eEFDMKc KFIibhg Congruent right error Normal 906.9029
702 57 LeftSmaller PercIAExp1 Prime_9A Target_4A behKLGM hFBeAdm Incongruent right correct Normal 773.1854
702 58 LeftSmaller PercIAExp1 Prime_9N Target_6A leFfhjg MGHbKhJ Congruent left error Normal 1224.098
702 59 LeftSmaller PercIAExp1 Prime_4A Target_6N BaclFKA LfDaBbi Incongruent left correct Normal 1146.041
702 60 LeftSmaller PercIAExp1 Prime_1A Target_4A KkJDIcA AeaJklf Congruent right error Normal 1197.933
702 61 LeftSmaller PercIAExp1 Prime_6N Target_1A LKBeEfh BaechDi Incongruent right correct Normal 804.0337
702 62 LeftSmaller PercIAExp1 Prime_1A Target_6A cAIDJal MKbgciF Incongruent left correct Normal 987.4428
702 63 LeftSmaller PercIAExp1 Prime_1N Target_6A eDMEcaF gjMAFib Incongruent left correct Normal 620.4943
702 64 LeftSmaller PercIAExp1 Prime_4N Target_1A bflAhCd HJkIjlC Congruent right error Normal 1641.394
702 65 LeftSmaller PercIAExp1 Prime_4N Target_9N hBHefiF bMcDAag Incongruent left correct Normal 1093.735
702 66 LeftSmaller PercIAExp1 Prime_6N Target_1N ChJmdEK JiHMcma Incongruent right correct Normal 1345.386
702 67 LeftSmaller PercIAExp1 Prime_1A Target_9A ifbDIME hGLfAdb Incongruent left correct Normal 932.7104
702 68 LeftSmaller PercIAExp1 Prime_6A Target_9A KlfDCkd KBhidMH Congruent right correct Normal 899.7369
702 69 LeftSmaller PercIAExp1 Prime_4A Target_4N LJljgeK BIbjhif Congruent right error Normal 883.0588
702 70 LeftSmaller PercIAExp1 Prime_9A Target_4N ildmhAc aAdcKMG Incongruent right correct Normal 864.2396
702 71 LeftSmaller PercIAExp1 Prime_9A Target_1A KlFmfMI KadIBGb Incongruent right correct Normal 800.2866
702 72 LeftSmaller PercIAExp1 Prime_4N Target_1N mCicbdD kAhbHif Congruent left correct Normal 1100.31
702 73 LeftSmaller PercIAExp1 Prime_6N Target_4N KdCialF mLKkeiF Incongruent right correct Normal 1460.469
702 74 LeftSmaller PercIAExp1 Prime_6N Target_6N kaLfjiF gGlfHAm Congruent right correct Normal 1050.776
702 75 LeftSmaller PercIAExp1 Prime_6A Target_4N HfdbAIl fgileKd Incongruent left error Normal 1023.228
702 76 LeftSmaller PercIAExp1 Prime_4N Target_6A fdLmkBG cgkEHKC Incongruent left correct Normal 1068.525
702 77 LeftSmaller PercIAExp1 Prime_9N Target_4N AFkJBEI LKbDgFm Incongruent right correct Normal 1159.434
702 78 LeftSmaller PercIAExp1 Prime_6A Target_4A kKcEiFh CcFeLKG Incongruent right correct Normal 723.222
702 79 LeftSmaller PercIAExp1 Prime_4A Target_1N egcjMAJ aIMkFHL Congruent right error Normal 1082.178
702 80 LeftSmaller PercIAExp1 Prime_4A Target_6A cJlFiBk cFmJCMf Incongruent left correct Normal 1312.102
702 81 LeftLarger PercIBPrac Prime_1A Target_6A dFCljbG JldMmcC Incongruent left error Normal 1171.835
702 82 LeftLarger PercIBPrac Prime_1A Target_4A dIGJklC iDlmcJb Congruent left error Normal 1567.681
702 83 LeftLarger PercIBPrac Prime_1N Target_4N LMFeCBH AFghMEl Congruent right correct Normal 1059.701
702 84 LeftLarger PercIBPrac Prime_9N Target_4N cHCdmlh hibGgBE Incongruent right error Normal 2149.39
702 85 LeftLarger PercIBPrac Prime_6N Target_1N bMIKemG GKdicLh Incongruent right error Normal 1537.017
702 86 LeftLarger PercIBPrac Prime_1N Target_6N gEBjaKm ElkbBHg Incongruent right correct Normal 2385.138
702 87 LeftLarger PercIBPrac Prime_1N Target_4A HBEIhKf AFDMEjK Congruent left error Normal 1188.774
702 88 LeftLarger PercIBPrac Prime_9N Target_1A mHikJAd lCmdEIB Incongruent left correct Normal 1132.634
702 89 LeftLarger PercIBPrac Prime_9A Target_9A KiBbkAc aFfcMIl Congruent right error Normal 947.6877
702 90 LeftLarger PercIBPrac Prime_6N Target_6A HAjLegb jIgDdcm Congruent left correct Normal 1849.818
702 91 LeftLarger PercIBPrac Prime_1N Target_6A ihkjfAe ICAjclJ Incongruent right correct Normal 952.9753
702 92 LeftLarger PercIBPrac Prime_4N Target_6N ABjKCdD dKlDEAC Incongruent left error Normal 998.5134
702 93 LeftLarger PercIBPrac Prime_4N Target_4N JlaBbAj dMlmaBG Congruent left error Normal 1879.799
702 94 LeftLarger PercIBPrac Prime_4N Target_9N JCKjkBi bcfhLGF Incongruent right correct Normal 1445.387
702 95 LeftLarger PercIBPrac Prime_6A Target_9N cjGfElH heCabDl Congruent right error Normal 1243.57
702 96 LeftLarger PercIBPrac Prime_1A Target_6N IjfAiKB HhMKFfE Incongruent left error Normal 1805.775
702 97 LeftLarger PercIBExp1 Prime_1A Target_6N kAIdcLb icGECBF Incongruent left error Normal 1619.767
702 98 LeftLarger PercIBExp1 Prime_6N Target_1N dEIkJhG DgbMjBK Incongruent right error Normal 1062.475
702 99 LeftLarger PercIBExp1 Prime_1A Target_1A eFCMcJI diFCkMc Congruent right correct Normal 977.139
702 100 LeftLarger PercIBExp1 Prime_1A Target_9N dabCMHm GKhDHCJ Incongruent left error Normal 1104.307
702 101 LeftLarger PercIBExp1 Prime_6A Target_9N ebHdfmB laBmALj Congruent right error Normal 1835.088
702 102 LeftLarger PercIBExp1 Prime_1A Target_9A IaEiMHL gdCDKfi Incongruent right correct Normal 1329.732
702 103 LeftLarger PercIBExp1 Prime_4A Target_6N HeBlhja fmLCikE Incongruent right correct Normal 1171.723
702 104 LeftLarger PercIBExp1 Prime_4A Target_9A EmBGDdc kAfBCDG Incongruent left error Normal 1370.787
702 105 LeftLarger PercIBExp1 Prime_9A Target_9A jIAcifL fIciLJb Congruent right error Normal 1113.949
702 106 LeftLarger PercIBExp1 Prime_6A Target_4A AEimHMI AgdhjGB Incongruent left correct Normal 1287
702 107 LeftLarger PercIBExp1 Prime_6N Target_9A HKlLkGb hBkHlbc Congruent right error Normal 1889.675
702 108 LeftLarger PercIBExp1 Prime_9A Target_4A iIAdhlH LIfhCEg Incongruent left correct Normal 976.2305
702 109 LeftLarger PercIBExp1 Prime_1N Target_6N BEFIlMe LGeaBJi Incongruent left error Normal 1296.916
702 110 LeftLarger PercIBExp1 Prime_9N Target_6N FDaAkMf cLEKJdi Congruent right error Normal 2109.089
702 111 LeftLarger PercIBExp1 Prime_6A Target_9A FMbimeD ILKAkEG Congruent right error Normal 838.432
702 112 LeftLarger PercIBExp1 Prime_9N Target_1N CbDBHkj iaLdBjh Incongruent left correct Normal 1351.335
702 113 LeftLarger PercIBExp1 Prime_9N Target_1A milKFBk BeKILaH Incongruent left correct Normal 1197.027
702 114 LeftLarger PercIBExp1 Prime_6A Target_6N fhHAGKk ieBmDLG Congruent left correct Normal 1567.462
702 115 LeftLarger PercIBExp1 Prime_9N Target_6A blGmefi IEDGiBF Congruent left correct Normal 1522.124
702 116 LeftLarger PercIBExp1 Prime_9N Target_4N bMfmDiH IeADidj Incongruent left correct Normal 964.0029
702 117 LeftLarger PercIBExp1 Prime_6A Target_1N fHAmCaj LfjcDeE Incongruent left correct Normal 1106.496
702 118 LeftLarger PercIBExp1 Prime_6A Target_1A AClBMkE LiKFDlH Incongruent left correct Normal 802.9345
702 119 LeftLarger PercIBExp1 Prime_4N Target_1A CFAJjLK dBIkMci Congruent right correct Normal 782.2324
702 120 LeftLarger PercIBExp1 Prime_6N Target_9N GKdIclA bJcjChI Congruent right error Normal 1255.376
702 121 LeftLarger PercIBExp1 Prime_6N Target_4A gbFICHm MmAEijC Incongruent left correct Normal 1336.045
702 122 LeftLarger PercIBExp1 Prime_9A Target_6N ADJGeda hEGJdBK Congruent right error Normal 987.1761
702 123 LeftLarger PercIBExp1 Prime_1N Target_9A JdBGCHL FfIejEH Incongruent right correct Normal 1130.512
702 124 LeftLarger PercIBExp1 Prime_6N Target_4N KkIMiAH cEhdfaM Incongruent right error Normal 1093.828
702 125 LeftLarger PercIBExp1 Prime_1N Target_4A HLhjlDe LCJmHeK Congruent right correct Normal 864.1389
702 126 LeftLarger PercIBExp1 Prime_9A Target_6A DcfdMkB fAbaelc Congruent left correct Normal 1187.581
702 127 LeftLarger PercIBExp1 Prime_1A Target_1N GhiFjCJ CDGjEbM Congruent left error Normal 1355.737
702 128 LeftLarger PercIBExp1 Prime_4A Target_6A iCbDKge mjGilaH Incongruent right correct Normal 760.7388
702 129 LeftLarger PercIBExp1 Prime_4N Target_9A acegkIA aMclHCj Incongruent right correct Normal 588.0851
702 130 LeftLarger PercIBExp1 Prime_6N Target_1A IlDkdAc GehiCak Incongruent left correct Normal 1106.516
702 131 LeftLarger PercIBExp1 Prime_6N Target_6A kGIBAal dAIEaDi Congruent right error Normal 711.5571
702 132 LeftLarger PercIBExp1 Prime_9A Target_9N LaDgdBb lAfBmch Congruent right error Normal 1238.091
702 133 LeftLarger PercIBExp1 Prime_4A Target_4A FjkCHBb jJhmBiE Congruent left error Normal 1698.287
702 134 LeftLarger PercIBExp1 Prime_4N Target_4A EmaMHbL KlDcdHj Congruent left error Normal 1007.585
702 135 LeftLarger PercIBExp1 Prime_9A Target_1A JHjFCGA KifDjBG Incongruent left correct Normal 1049.593
702 136 LeftLarger PercIBExp1 Prime_4N Target_4N bIgeMLD iIFgMbc Congruent left error Normal 1598.048
702 137 LeftLarger PercIBExp1 Prime_1A Target_4N gLCechl LAHChBD Congruent left error Normal 1526.478
702 138 LeftLarger PercIBExp1 Prime_1N Target_4N HeEjaCF LcJdfEb Congruent right correct Normal 1861.539
702 139 LeftLarger PercIBExp1 Prime_1N Target_1A ikJaGlK ALgfdFm Congruent left error Normal 1304.626
702 140 LeftLarger PercIBExp1 Prime_4A Target_4N MdJfLCj EaJicje Congruent right correct Normal 1411.35
702 141 LeftLarger PercIBExp1 Prime_1N Target_9N Hkcefmb cgJGmfk Incongruent right correct Normal 2295.979
702 142 LeftLarger PercIBExp1 Prime_4N Target_9N dCIHLFB FlCEDLi Incongruent right correct Normal 1386.874
702 143 LeftLarger PercIBExp1 Prime_9A Target_1N BdFbfKg hHIdlFj Incongruent left correct Normal 1161.593
702 144 LeftLarger PercIBExp1 Prime_6A Target_4N fieLaBJ eMkcagE Incongruent left correct Normal 903.0337
702 145 LeftLarger PercIBExp1 Prime_9N Target_9N JkAghfI FGcajmd Congruent left correct Normal 2200.818
702 146 LeftLarger PercIBExp1 Prime_9N Target_9A beEJkiA fhCGdji Congruent right error Normal 1325.391
702 147 LeftLarger PercIBExp1 Prime_6A Target_6A aiHJFcd aiAeJEI Congruent left correct Normal 1236.321
702 148 LeftLarger PercIBExp1 Prime_9N Target_4A hckeHAK cdelfLD Incongruent right error Normal 921.0194
702 149 LeftLarger PercIBExp1 Prime_4A Target_1N AkigFJh hmfAKdM Congruent right correct Normal 930.6861
702 150 LeftLarger PercIBExp1 Prime_1A Target_6A fkDmaJc LmFcaEh Incongruent right correct Normal 1450.794
702 151 LeftLarger PercIBExp1 Prime_4A Target_1A AkKBhGL IbamLeA Congruent left error Normal 1066.891
702 152 LeftLarger PercIBExp1 Prime_4N Target_6N DFIGabm KihcHFm Incongruent right correct Normal 957.8482
702 153 LeftLarger PercIBExp1 Prime_1N Target_1N bmfEjJC Iflkgdh Congruent right correct Normal 1876.004
702 154 LeftLarger PercIBExp1 Prime_9A Target_4N eCEIlbf emFBEiM Incongruent left correct Normal 968.6528
702 155 LeftLarger PercIBExp1 Prime_1A Target_4A mAfbKBa cBeCHaf Congruent right correct Normal 1208.248
702 156 LeftLarger PercIBExp1 Prime_6N Target_6N BgDJHIA KIcFDLJ Congruent left correct Normal 1818.803
702 157 LeftLarger PercIBExp1 Prime_4N Target_1N amHLGhK kcbfiGe Congruent right correct Normal 1565.978
702 158 LeftLarger PercIBExp1 Prime_4A Target_9N cljidIH dChEFaj Incongruent right correct Normal 1252.937
702 159 LeftLarger PercIBExp1 Prime_4N Target_6A ibLkJdM elAiagB Incongruent right correct Normal 1447.605
702 160 LeftLarger PercIBExp1 Prime_1N Target_6A EklhAfe fKElBGj Incongruent right correct Normal 1377.668
703 1 LeftLarger PercIAPrac Prime_9N Target_9A EmbfCHa AcMkiDg Congruent left correct Normal 1642.683
703 2 LeftLarger PercIAPrac Prime_4A Target_9N ibcBeKd JaClgDE Incongruent right correct Normal 1473.293
703 3 LeftLarger PercIAPrac Prime_6A Target_9N eJEdCKD BLGcCkj Congruent left correct Normal 2916.778
703 4 LeftLarger PercIAPrac Prime_6N Target_6A HdMkAKi CmacjgH Congruent left correct Normal 1729.533
703 5 LeftLarger PercIAPrac Prime_9N Target_1N jIamdhc ALhdeDC Incongruent left correct Normal 2091.661
703 6 LeftLarger PercIAPrac Prime_9N Target_4A MdamCHh GbIdajc Incongruent left correct Normal 1444.748
703 7 LeftLarger PercIAPrac Prime_1A Target_1N eMcKaCl FEDHAKi Congruent right correct Normal 1176.477
703 8 LeftLarger PercIAPrac Prime_9N Target_9N FiJbgGe LaGBJeD Congruent left correct Normal 2174.789
703 9 LeftLarger PercIAPrac Prime_4A Target_9A mBklaAF kDbcLid Incongruent right correct Normal 1479.976
703 10 LeftLarger PercIAPrac Prime_4N Target_6N GBjJfgm gadkDJC Incongruent right correct Normal 1620.936
703 11 LeftLarger PercIAPrac Prime_9N Target_6N MbHEBeJ ahHdefI Congruent right error Normal 1158.172
703 12 LeftLarger PercIAPrac Prime_1N Target_9A eGcCdDl fIiJgdm Incongruent left error Normal 1602.878
703 13 LeftLarger PercIAPrac Prime_6A Target_6A DBmbEIL iacLgeM Congruent right error Normal 1881.027
703 14 LeftLarger PercIAPrac Prime_1A Target_1A EDdGeHC cIGjMEF Congruent right correct Normal 2886.828
703 15 LeftLarger PercIAPrac Prime_9A Target_6N MgBldAc MiImGKj Congruent right error Normal 2687.554
703 16 LeftLarger PercIAPrac Prime_1N Target_1A KfEDBHM LhkceGb Congruent right correct Normal 1464.086
703 17 LeftLarger PercIAExp1 Prime_4N Target_6N lILgEam MkFGIKc Incongruent right correct Normal 1271.176
703 18 LeftLarger PercIAExp1 Prime_6A Target_4N abDiMck flmGeAk Incongruent left correct Normal 1199.114
703 19 LeftLarger PercIAExp1 Prime_6N Target_9N EJlLKGg eiJdmFH Congruent right error Normal 1440.182
703 20 LeftLarger PercIAExp1 Prime_1A Target_9N bMmgedc DkicHlh Incongruent left error Normal 2216.6
703 21 LeftLarger PercIAExp1 Prime_1A Target_6N dIGjDBf JbDhIHd Incongruent right correct Normal 1650.525
703 22 LeftLarger PercIAExp1 Prime_9A Target_1A JlceAij FAbfJdj Incongruent right error Normal 1050.587
703 23 LeftLarger PercIAExp1 Prime_9A Target_4N kDFbeJL DmHikKh Incongruent left correct Normal 1233.551
703 24 LeftLarger PercIAExp1 Prime_6N Target_4A DIficja IBFflmi Incongruent left correct Normal 1326.79
703 25 LeftLarger PercIAExp1 Prime_9N Target_9N EIJaDAi klIdaGh Congruent right error Normal 1198.002
703 26 LeftLarger PercIAExp1 Prime_9N Target_9A CMgKbBm ebBjhMi Congruent right error Normal 1032.315
703 27 LeftLarger PercIAExp1 Prime_4N Target_9A keKEdfD ehjJgAi Incongruent right correct Normal 1100.679
703 28 LeftLarger PercIAExp1 Prime_4A Target_6A KeaEbLl eidIagA Incongruent left error Normal 1786.143
703 29 LeftLarger PercIAExp1 Prime_6A Target_6N AafgEDJ GAafJkb Congruent right error Normal 2624.732
703 30 LeftLarger PercIAExp1 Prime_9N Target_1N lkMHaGF AgGkdEM Incongruent left correct Normal 1158.595
703 31 LeftLarger PercIAExp1 Prime_4A Target_6N CKmDFdB BjaigCH Incongruent right correct Normal 1756.236
703 32 LeftLarger PercIAExp1 Prime_1N Target_4A HFIJeBM EgfFekG Congruent left error Normal 1297.992
703 33 LeftLarger PercIAExp1 Prime_4A Target_1N DdmkIMa miAdBge Congruent right correct Normal 1746.86
703 34 LeftLarger PercIAExp1 Prime_6N Target_6A GCcKlfg DiCMGaK Congruent right error Normal 1861.746
703 35 LeftLarger PercIAExp1 Prime_4N Target_6A ajDbfFE bCkegKE Incongruent right correct Normal 1408.947
703 36 LeftLarger PercIAExp1 Prime_6A Target_6A bcMaFCL ilBemMH Congruent left correct Normal 2020.643
703 37 LeftLarger PercIAExp1 Prime_1A Target_4N DflALkh FChadBG Congruent left error Normal 2114.709
703 38 LeftLarger PercIAExp1 Prime_4N Target_1A JKHDjdi FKdBImE Congruent right correct Normal 1875.722
703 39 LeftLarger PercIAExp1 Prime_9A Target_9A jFJIhCE bKEGgdi Congruent left correct Normal 2382.723
703 40 LeftLarger PercIAExp1 Prime_9A Target_9N IBiDEbF bDgiAEm Congruent right error Normal 2128.344
703 41 LeftLarger PercIAExp1 Prime_9N Target_4A MdkFhfK LKJFhei Incongruent right error Normal 1180.004
703 42 LeftLarger PercIAExp1 Prime_6A Target_1A klGEcaB FEJAbKd Incongruent left correct Normal 2129.416
703 43 LeftLarger PercIAExp1 Prime_1N Target_4N LbJDIFf clfCGag Congruent right correct Normal 941.9068
703 44 LeftLarger PercIAExp1 Prime_9N Target_4N kbLjMeK bIfJBKd Incongruent left correct Normal 836.2721
703 45 LeftLarger PercIAExp1 Prime_1N Target_9N dGLIKeH IjEmKie Incongruent right correct Normal 2368.532
703 46 LeftLarger PercIAExp1 Prime_1N Target_1N JBLGFab MFciJlh Congruent left error Normal 2291.43
703 47 LeftLarger PercIAExp1 Prime_1A Target_4A JfFgadb FmjbdJk Congruent right correct Normal 2224.721
703 48 LeftLarger PercIAExp1 Prime_6N Target_9A elECDiL IdcBamM Congruent left correct Normal 3491.785
703 49 LeftLarger PercIAExp1 Prime_1N Target_6N jahgDlK MckBjAd Incongruent right correct Normal 2169.742
703 50 LeftLarger PercIAExp1 Prime_1A Target_1A BmCbFDA DGhLJFa Congruent left error Normal 1921.825
703 51 LeftLarger PercIAExp1 Prime_4N Target_4A jBeicKf ebDIFGh Congruent right correct Normal 2472.082
703 52 LeftLarger PercIAExp1 Prime_1N Target_6A HdkeJmD lbhcimF Incongruent left error Normal 2173.097
703 53 LeftLarger PercIAExp1 Prime_4A Target_9N eLClmbA KGMCIgl Incongruent right correct Normal 1261.295
703 54 LeftLarger PercIAExp1 Prime_6A Target_9N MhCicbf JDCIEhF Congruent right error Normal 1614.315
703 55 LeftLarger PercIAExp1 Prime_6N Target_1N LkFlAaG cBDFhEg Incongruent left correct Normal 1005.158
703 56 LeftLarger PercIAExp1 Prime_4A Target_4A hcfiELJ GFBAKfb Congruent right correct Normal 1421.967
703 57 LeftLarger PercIAExp1 Prime_1N Target_9A MEjJahf KAmbFfM Incongruent right correct Normal 1696.52
703 58 LeftLarger PercIAExp1 Prime_1A Target_1N fDmgBhE LGlBcAg Congruent left error Normal 1099.692
703 59 LeftLarger PercIAExp1 Prime_1A Target_9A kgjmMAG aIHAdML Incongruent right correct Normal 1022.649
703 60 LeftLarger PercIAExp1 Prime_9N Target_6N EbFBJiM FCEiJbK Congruent left correct Normal 1698.193
703 61 LeftLarger PercIAExp1 Prime_6N Target_6N EmBKkLF MEjADmJ Congruent left correct Normal 593.8265
703 62 LeftLarger PercIAExp1 Prime_6A Target_4A ieHMFJd jAhBcbl Incongruent left correct Normal 1790.42
703 63 LeftLarger PercIAExp1 Prime_4A Target_9A KJBGkEC cfelgEj Incongruent right correct Normal 1430.852
703 64 LeftLarger PercIAExp1 Prime_6N Target_1A GafgIKd GBAdhJg Incongruent left correct Normal 2433.026
703 65 LeftLarger PercIAExp1 Prime_4N Target_4N BcMhCAF GEJcIeC Congruent right correct Normal 1986.895
703 66 LeftLarger PercIAExp1 Prime_9A Target_1N lbmjIMi kHidAaF Incongruent left correct Normal 1356.686
703 67 LeftLarger PercIAExp1 Prime_1N Target_1A dGbHcmC HdjckAl Congruent left error Normal 2193.968
703 68 LeftLarger PercIAExp1 Prime_6A Target_9A hCcaDHm JhaDFEm Congruent right error Normal 3435.283
703 69 LeftLarger PercIAExp1 Prime_4A Target_4N KkbHEdB iAKahBF Congruent right correct Normal 1629.585
703 70 LeftLarger PercIAExp1 Prime_4A Target_1A CdhjliL KGclEfi Congruent left error Normal 1452.08
703 71 LeftLarger PercIAExp1 Prime_9A Target_6N GAlckCa jhfiIBl Congruent right error Normal 1520.256
703 72 LeftLarger PercIAExp1 Prime_6A Target_1N deakBKh mjfhFGH Incongruent right error Normal 1545.304
703 73 LeftLarger PercIAExp1 Prime_1A Target_6A hMcGkDC ceJBKLi Incongruent right correct Normal 1336.493
703 74 LeftLarger PercIAExp1 Prime_4N Target_1N McCahJF FeDKHcj Congruent left error Normal 1471.424
703 75 LeftLarger PercIAExp1 Prime_9A Target_4A FBJkElG iegjBAd Incongruent left correct Normal 1248.855
703 76 LeftLarger PercIAExp1 Prime_4N Target_9N egJGafh hliBHEg Incongruent right correct Normal 1111.872
703 77 LeftLarger PercIAExp1 Prime_6N Target_4N mFIbigd idGeHMc Incongruent left correct Normal 1250.596
703 78 LeftLarger PercIAExp1 Prime_9A Target_6A dEKghbm IBdDKCh Congruent right error Normal 1420.363
703 79 LeftLarger PercIAExp1 Prime_9N Target_1A lFfEJbM leLEmbI Incongruent left correct Normal 1043.839
703 80 LeftLarger PercIAExp1 Prime_9N Target_6A hiMHdKG iLaIdCG Congruent left correct Normal 1502.004
703 81 LeftSmaller PercIBPrac Prime_1N Target_6N BlkDgCd JkFKAIc Incongruent left correct Normal 1328.252
703 82 LeftSmaller PercIBPrac Prime_9A Target_1N DCfcHil GFgBLmK Incongruent right correct Normal 1261.194
703 83 LeftSmaller PercIBPrac Prime_4N Target_6A iEmjBHM DJCchIL Incongruent left correct Normal 1185.488
703 84 LeftSmaller PercIBPrac Prime_1N Target_4N aHEediJ imIEFfJ Congruent right error Normal 1528.391
703 85 LeftSmaller PercIBPrac Prime_4A Target_4N bmDMigF aIlMFcC Congruent right error Normal 1105.801
703 86 LeftSmaller PercIBPrac Prime_1N Target_6A AKcjGme CJGhIMc Incongruent left correct Normal 1205.091
703 87 LeftSmaller PercIBPrac Prime_1A Target_9A FmgjbGI idgGaFc Incongruent left correct Normal 1072.254
703 88 LeftSmaller PercIBPrac Prime_6N Target_4N IckjGaB IcHliLb Incongruent right correct Normal 1404.766
703 89 LeftSmaller PercIBPrac Prime_1N Target_9N EKemcJj iIGjbfl Incongruent left correct Normal 1001.04
703 90 LeftSmaller PercIBPrac Prime_4N Target_4N aiIjLkJ BGjHIMJ Congruent left correct Normal 1296.593
703 91 LeftSmaller PercIBPrac Prime_6A Target_1N fFbiemA LJHfDGe Incongruent right correct Normal 786.2381
703 92 LeftSmaller PercIBPrac Prime_4N Target_1A HFkgaBc HgcBFma Congruent left correct Normal 619.5424
703 93 LeftSmaller PercIBPrac Prime_4A Target_9N bdjAJhM dCHaGhK Incongruent left correct Normal 2198.911
703 94 LeftSmaller PercIBPrac Prime_6N Target_1A GmHAFdJ JkLIdAE Incongruent right correct Normal 1570.452
703 95 LeftSmaller PercIBPrac Prime_6A Target_4N jBlECig kCbmaIF Incongruent right correct Normal 1712.359
703 96 LeftSmaller PercIBPrac Prime_4A Target_6A daHLcDm HeILjEl Incongruent left correct Normal 4562.43
703 97 LeftSmaller PercIBExp1 Prime_4N Target_1A clGbADE cJfLbMl Congruent left correct Normal 1636.322
703 98 LeftSmaller PercIBExp1 Prime_1N Target_6A LEjgImJ iMIakHc Incongruent right error Normal 1221.545
703 99 LeftSmaller PercIBExp1 Prime_9N Target_1A GfKIECg GCIMAHh Incongruent right correct Normal 901.997
703 100 LeftSmaller PercIBExp1 Prime_9N Target_6A MIhfcGE hadFLJe Congruent right correct Normal 917.4689
703 101 LeftSmaller PercIBExp1 Prime_1N Target_4N bjHdBCE JBKEijH Congruent left correct Normal 816.757
703 102 LeftSmaller PercIBExp1 Prime_6N Target_9N LBcHAlC BhEJigl Congruent right correct Normal 1133.166
703 103 LeftSmaller PercIBExp1 Prime_6N Target_6A lEMLChm dlBcHMG Congruent left error Normal 1921.964
703 104 LeftSmaller PercIBExp1 Prime_6A Target_4N DJaleiH JGfLDCd Incongruent left error Normal 1547.122
703 105 LeftSmaller PercIBExp1 Prime_9A Target_1A AGkieCg lICJkmh Incongruent right correct Normal 1293.721
703 106 LeftSmaller PercIBExp1 Prime_6A Target_6A iahALDb jegflKd Congruent left error Normal 1270.584
703 107 LeftSmaller PercIBExp1 Prime_1N Target_4A BMmIeLa FcAlmHD Congruent right error Normal 2447.44
703 108 LeftSmaller PercIBExp1 Prime_4N Target_4N alDkIjB FdkiJba Congruent right error Normal 3846.888
703 109 LeftSmaller PercIBExp1 Prime_1A Target_1A AmhKaIb amBdjke Congruent right error Normal 1188
703 110 LeftSmaller PercIBExp1 Prime_9A Target_9A EbhHckM jmJcGhe Congruent right correct Normal 1671.771
703 111 LeftSmaller PercIBExp1 Prime_9N Target_4A fdglMEH iglkHCJ Incongruent right correct Normal 980.4902
703 112 LeftSmaller PercIBExp1 Prime_4N Target_6N bdlHBKF hdiaEgH Incongruent left correct Normal 894.0219
703 113 LeftSmaller PercIBExp1 Prime_9N Target_6N khcIjLm ibHcGdl Congruent right correct Normal 1878.581
703 114 LeftSmaller PercIBExp1 Prime_1A Target_9A DGFKBkj hFgKlaI Incongruent left correct Normal 1276.257
703 115 LeftSmaller PercIBExp1 Prime_9A Target_4A GikBDAc jIcmhJe Incongruent left error Normal 1247.79
703 116 LeftSmaller PercIBExp1 Prime_6A Target_6N iHGCjgI cJDMljB Congruent left error Normal 1264.515
703 117 LeftSmaller PercIBExp1 Prime_4N Target_9A iceGkaH aMfICeB Incongruent right error Normal 1910.41
703 118 LeftSmaller PercIBExp1 Prime_6A Target_1A JcCMlGD ELjemcl Incongruent left error Normal 1720.24
703 119 LeftSmaller PercIBExp1 Prime_9A Target_9N DLblBHA kMCHamj Congruent right correct Normal 1136.557
703 120 LeftSmaller PercIBExp1 Prime_1A Target_6A jJeIFdD lHihgAK Incongruent left correct Normal 897.934
703 121 LeftSmaller PercIBExp1 Prime_4A Target_6N eHdMBLb CFEBlmL Incongruent left correct Normal 1286.516
703 122 LeftSmaller PercIBExp1 Prime_9N Target_9A eDGlFAE DHcgJbI Congruent left error Normal 1213.445
703 123 LeftSmaller PercIBExp1 Prime_1A Target_1N dJAmfeD iaGfIkE Congruent left correct Normal 1525.587
703 124 LeftSmaller PercIBExp1 Prime_4N Target_9N lgHMBFb kmBCMja Incongruent left correct Normal 1374.18
703 125 LeftSmaller PercIBExp1 Prime_4A Target_9A eldJmBG JehdMaG Incongruent right error Normal 926.5109
703 126 LeftSmaller PercIBExp1 Prime_1A Target_4A lckHmDf ElaJCGL Congruent left correct Normal 1021.918
703 127 LeftSmaller PercIBExp1 Prime_6A Target_9N BbmFjcd aDkldgc Congruent left error Normal 827.5519
703 128 LeftSmaller PercIBExp1 Prime_9A Target_4N bEiGFgk cibImjh Incongruent left error Normal 952.1352
703 129 LeftSmaller PercIBExp1 Prime_4A Target_6A MFfdmDh mhgfGAc Incongruent right error Normal 2371.495
703 130 LeftSmaller PercIBExp1 Prime_1N Target_1A CBbHAcE jFhGabK Congruent right error Normal 1136.525
703 131 LeftSmaller PercIBExp1 Prime_4A Target_4A LcbGmfA FmKGlBg Congruent right error Normal 1445.519
703 132 LeftSmaller PercIBExp1 Prime_6N Target_6N EJDhMlm bKCDMha Congruent right correct Normal 1338.127
703 133 LeftSmaller PercIBExp1 Prime_4N Target_6A kEjGgML gMdDBJa Incongruent left correct Normal 842.1938
703 134 LeftSmaller PercIBExp1 Prime_6N Target_1N FiHlgLG EFIiAgh Incongruent right correct Normal 1017.371
703 135 LeftSmaller PercIBExp1 Prime_4A Target_1A IhHlfBg hbmJlKM Congruent right error Normal 1574.611
703 136 LeftSmaller PercIBExp1 Prime_1A Target_9N jHKmhFI AKElhHb Incongruent left correct Normal 1600.318
703 137 LeftSmaller PercIBExp1 Prime_1N Target_6N CHGcebA dJCHemI Incongruent left correct Normal 1581.849
703 138 LeftSmaller PercIBExp1 Prime_9A Target_1N dEhmJkl GBelFgj Incongruent right correct Normal 1320.183
703 139 LeftSmaller PercIBExp1 Prime_4N Target_1N AdfiDbK klCghjK Congruent left correct Normal 995.7637
703 140 LeftSmaller PercIBExp1 Prime_9A Target_6N DbdImhe gkGIFJm Congruent right correct Normal 1088.934
703 141 LeftSmaller PercIBExp1 Prime_4A Target_4N ldfcLGi EgJbDaK Congruent right error Normal 882.0966
703 142 LeftSmaller PercIBExp1 Prime_9N Target_1N mkdjKDb HCGIiBA Incongruent right correct Normal 1009.569
703 143 LeftSmaller PercIBExp1 Prime_6N Target_1A FgDBjca AJGgLIK Incongruent right correct Normal 1507.402
703 144 LeftSmaller PercIBExp1 Prime_6A Target_1N jfHLhJC lgiIGBf Incongruent right correct Normal 726.5882
703 145 LeftSmaller PercIBExp1 Prime_6A Target_4A deEjCli aeLIiMF Incongruent right correct Normal 1340.312
703 146 LeftSmaller PercIBExp1 Prime_9N Target_9N fKaHBCc FLBbHmE Congruent left error Normal 1323.24
703 147 LeftSmaller PercIBExp1 Prime_4A Target_9N eEMKlfG kFMjeGb Incongruent left correct Normal 2966.767
703 148 LeftSmaller PercIBExp1 Prime_9N Target_4N MjLiklC DBHFedA Incongruent right correct Normal 960.2557
703 149 LeftSmaller PercIBExp1 Prime_6N Target_9A hLGIBlJ HJlEfKj Congruent left error Normal 1555.63
703 150 LeftSmaller PercIBExp1 Prime_4N Target_4A McGHbid kJgcfla Congruent right error Normal 1446.094
703 151 LeftSmaller PercIBExp1 Prime_1A Target_6N mGkAEDc AHDGife Incongruent left correct Normal 1521.543
703 152 LeftSmaller PercIBExp1 Prime_1N Target_9A BHAMGFE IAEjcaG Incongruent right error Normal 1403.866
703 153 LeftSmaller PercIBExp1 Prime_1N Target_9N lcJmjGC BKabiMm Incongruent left correct Normal 1186.594
703 154 LeftSmaller PercIBExp1 Prime_4A Target_1N KBjgmce lMeCkab Congruent right error Normal 1581.935
703 155 LeftSmaller PercIBExp1 Prime_6A Target_9A glKbmhB IKkgACi Congruent left error Normal 1853.376
703 156 LeftSmaller PercIBExp1 Prime_1N Target_1N JBhjfmM mbilgBH Congruent left correct Normal 1934.549
703 157 LeftSmaller PercIBExp1 Prime_6N Target_4N CkMALgI aeLkFmj Incongruent right correct Normal 1087.151
703 158 LeftSmaller PercIBExp1 Prime_9A Target_6A AkhlacK cHJaKid Congruent right correct Normal 1302.944
703 159 LeftSmaller PercIBExp1 Prime_1A Target_4N fIeGdEH CldHhIF Congruent right error Normal 2141.997
703 160 LeftSmaller PercIBExp1 Prime_6N Target_4A acfBJkb GALMFjc Incongruent right correct Normal 951.9632
704 1 LeftLarger PercIAPrac Prime_9A Target_4A GejcDCI IEGhJmB Incongruent left correct Normal 1526.491
704 2 LeftLarger PercIAPrac Prime_4N Target_4N beGMlka fbciEaF Congruent left error Normal 1983.106
704 3 LeftLarger PercIAPrac Prime_9A Target_6A KkeBCjM cbkAeDf Congruent right error Normal 2142.992
704 4 LeftLarger PercIAPrac Prime_6N Target_4A kImDeaM LFIeEGf Incongruent left correct Normal 1900.051
704 5 LeftLarger PercIAPrac Prime_4N Target_1A dFmDhLM JjMbehg Congruent right correct Normal 2509.812
704 6 LeftLarger PercIAPrac Prime_6N Target_6A mHgMeJG EFBJLim Congruent left correct Normal 2513.124
704 7 LeftLarger PercIAPrac Prime_4N Target_9A gLacFfM CMbkaHI Incongruent right correct Normal 2318.886
704 8 LeftLarger PercIAPrac Prime_1A Target_4N dALjheG EBDaJFi Congruent left error Late 5110.781
704 9 LeftLarger PercIAPrac Prime_6A Target_1A DAfCcFd eAKCjFm Incongruent right error Normal 3084.568
704 10 LeftLarger PercIAPrac Prime_4A Target_6N HflBLAc KDHdCge Incongruent right correct Normal 4063.998
704 11 LeftLarger PercIAPrac Prime_4N Target_6A CBkEcIJ MHFEjie Incongruent right correct Normal 3269.747
704 12 LeftLarger PercIAPrac Prime_1N Target_6N dIkjMEK fCilLdG Incongruent left error Normal 3987.076
704 13 LeftLarger PercIAPrac Prime_1A Target_6N gMEHBbL ClbIiMe Incongruent right correct Normal 1258.491
704 14 LeftLarger PercIAPrac Prime_1N Target_4A IihLfmj LGKjAMk Congruent left error Normal 1361.916
704 15 LeftLarger PercIAPrac Prime_9A Target_6N aHKjlDG FhbcGMB Congruent right error Normal 1896.086
704 16 LeftLarger PercIAPrac Prime_9A Target_1N DdGKlJL hAkGHFE Incongruent left correct Normal 3930.329
704 17 LeftLarger PercIAExp1 Prime_4N Target_1A chgKCkA FDbJfIK Congruent right correct Normal 2008.455
704 18 LeftLarger PercIAExp1 Prime_9N Target_4N jiFHaKL CJjDAkF Incongruent left correct Normal 1383.088
704 19 LeftLarger PercIAExp1 Prime_1A Target_1N aMKJdkI BLHDFMk Congruent right correct Normal 1708.832
704 20 LeftLarger PercIAExp1 Prime_6A Target_6A gEGfHMh efHBIEl Congruent right error Normal 1698.82
704 21 LeftLarger PercIAExp1 Prime_9N Target_1N KBJFLdC MAKIlDF Incongruent left correct Normal 3017.088
704 22 LeftLarger PercIAExp1 Prime_4N Target_4A afhkBEI kliLBac Congruent right correct Normal 1583.087
704 23 LeftLarger PercIAExp1 Prime_1N Target_9A bLKJcAI haCikcK Incongruent right correct Normal 2090.662
704 24 LeftLarger PercIAExp1 Prime_4A Target_4N hglMcjD kiFLAhI Congruent right correct Normal 1795.971
704 25 LeftLarger PercIAExp1 Prime_1N Target_9N dbglkKh HdgfBLb Incongruent left error Normal 3577.974
704 26 LeftLarger PercIAExp1 Prime_9A Target_1A lBijdhF HiCDbGL Incongruent left correct Normal 2379.502
704 27 LeftLarger PercIAExp1 Prime_9N Target_6N iClcJjg DgLBlim Congruent left correct Normal 2797.923
704 28 LeftLarger PercIAExp1 Prime_1N Target_1A lCfKGBI elfIiaL Congruent left error Normal 1769.904
704 29 LeftLarger PercIAExp1 Prime_6A Target_6N jfcGagi hDkHIgf Congruent right error Normal 1303.95
704 30 LeftLarger PercIAExp1 Prime_6N Target_4A HCmlaBM hEbHjIK Incongruent left correct Normal 3310.978
704 31 LeftLarger PercIAExp1 Prime_4A Target_4A iKckdLB EmLhdFA Congruent left error Normal 4085.424
704 32 LeftLarger PercIAExp1 Prime_1N Target_6A BKiJFcD BbAMcjE Incongruent right correct Normal 2105.327
704 33 LeftLarger PercIAExp1 Prime_9N Target_4A lDEKbGa alGMiCB Incongruent left correct Normal 2728.511
704 34 LeftLarger PercIAExp1 Prime_1A Target_9A BMCKHbi dFhcKbG Incongruent right correct Normal 1770.346
704 35 LeftLarger PercIAExp1 Prime_9N Target_9A aBldEkA mGFljkh Congruent right error Normal 1569.798
704 36 LeftLarger PercIAExp1 Prime_1A Target_1A CHIeGkm ELCkIKD Congruent left error Normal 1684.205
704 37 LeftLarger PercIAExp1 Prime_6A Target_4A fBaGHEM EIfGBAb Incongruent left correct Normal 3160.126
704 38 LeftLarger PercIAExp1 Prime_6N Target_9A gfAkMDG AJeLBMH Congruent left correct Normal 2701.342
704 39 LeftLarger PercIAExp1 Prime_6A Target_1A cFbHaJG BCFEdaG Incongruent left correct Normal 1619.837
704 40 LeftLarger PercIAExp1 Prime_6N Target_4N EGIHMel mLbagCe Incongruent left correct Normal 2727.459
704 41 LeftLarger PercIAExp1 Prime_6A Target_9A IhJFKLd JmcifLk Congruent left correct Normal 1335.222
704 42 LeftLarger PercIAExp1 Prime_1N Target_1N jbcgHif AlIHEKB Congruent right correct Normal 1235.424
704 43 LeftLarger PercIAExp1 Prime_1N Target_4A BcmhJKF jGDHLBd Congruent right correct Normal 2370.943
704 44 LeftLarger PercIAExp1 Prime_6A Target_9N EgMdBGK JHBMjfm Congruent right error Normal 2027.147
704 45 LeftLarger PercIAExp1 Prime_1N Target_4N acHBLAb hdbifKJ Congruent left error Normal 2251.198
704 46 LeftLarger PercIAExp1 Prime_9A Target_9A LCiIekH hlfGjAJ Congruent right error Normal 2054.542
704 47 LeftLarger PercIAExp1 Prime_9A Target_6N CHibDMI JIDkAad Congruent left correct Normal 1161.998
704 48 LeftLarger PercIAExp1 Prime_4A Target_9A KliIcaC dfClLbB Incongruent right correct Normal 2868.752
704 49 LeftLarger PercIAExp1 Prime_9A Target_1N AGFDKEm kMCdeLb Incongruent left correct Normal 1173.066
704 50 LeftLarger PercIAExp1 Prime_9A Target_4N GDaIhJi ehjFMdJ Incongruent left correct Normal 1940.545
704 51 LeftLarger PercIAExp1 Prime_9A Target_4A IlkLacM MbjmAJf Incongruent left correct Normal 1428.617
704 52 LeftLarger PercIAExp1 Prime_4N Target_9A AEiFICk cJKbHlm Incongruent right correct Late 5676.566
704 53 LeftLarger PercIAExp1 Prime_4A Target_1A BdjkGEA JLChmfF Congruent left error Late 5190.96
704 54 LeftLarger PercIAExp1 Prime_6A Target_4N bMaciLg FGjCfhJ Incongruent right error Normal 1753.277
704 55 LeftLarger PercIAExp1 Prime_4N Target_1N MLHfIFk IhabLED Congruent left error Normal 2301.848
704 56 LeftLarger PercIAExp1 Prime_6N Target_9N KcklHhC HgJLIFE Congruent right error Normal 2664.402
704 57 LeftLarger PercIAExp1 Prime_1A Target_6N FgdkGmb JFjCfGi Incongruent left error Normal 2145.731
704 58 LeftLarger PercIAExp1 Prime_9N Target_1A EkJfFgm DjAEJKL Incongruent left correct Normal 2193.029
704 59 LeftLarger PercIAExp1 Prime_6N Target_1N gfHaihK LCElKGc Incongruent right error Normal 2689.134
704 60 LeftLarger PercIAExp1 Prime_9A Target_6A KlaiHgk LfjBJFd Congruent right error Normal 2707.634
704 61 LeftLarger PercIAExp1 Prime_9A Target_9N ICGgmcd lbaJAFH Congruent left correct Normal 1326.974
704 62 LeftLarger PercIAExp1 Prime_6N Target_1A hEcHDMF KBgAiJL Incongruent left correct Normal 1978.04
704 63 LeftLarger PercIAExp1 Prime_4N Target_9N cfiIjkL jiIKcdm Incongruent right correct Normal 3294.36
704 64 LeftLarger PercIAExp1 Prime_1N Target_6N eLdfMjA IMJClhF Incongruent left error Normal 2107.382
704 65 LeftLarger PercIAExp1 Prime_4A Target_6N ALgDIil jgeJMIk Incongruent left error Normal 3043.438
704 66 LeftLarger PercIAExp1 Prime_4N Target_6A IKlBibm gHKbicB Incongruent right correct Normal 3461.873
704 67 LeftLarger PercIAExp1 Prime_4A Target_9N gKHickB LEHcmBi Incongruent right correct Normal 2648.774
704 68 LeftLarger PercIAExp1 Prime_4N Target_6N ciCbAhJ jafcdLb Incongruent right correct Normal 1541.086
704 69 LeftLarger PercIAExp1 Prime_6A Target_1N ALMehjJ LaibAgM Incongruent left correct Normal 1381.305
704 70 LeftLarger PercIAExp1 Prime_1A Target_4A FabijAC EdcFaHL Congruent left error Normal 1750.673
704 71 LeftLarger PercIAExp1 Prime_6N Target_6A MLEjIae HbDhlAf Congruent right error Normal 1957.491
704 72 LeftLarger PercIAExp1 Prime_1A Target_4N bEkJCHI iBCLAIH Congruent left error Normal 2686.802
704 73 LeftLarger PercIAExp1 Prime_9N Target_9N LhjcliE jLhlKfE Congruent right error Normal 2712.609
704 74 LeftLarger PercIAExp1 Prime_4A Target_1N CcAFjaG JdhlgiI Congruent left error Normal 4987.543
704 75 LeftLarger PercIAExp1 Prime_1A Target_9N DcBFAfe GHClFhm Incongruent right correct Normal 1892.964
704 76 LeftLarger PercIAExp1 Prime_9N Target_6A bcGBhCi MIJjbBD Congruent right error Normal 2242.886
704 77 LeftLarger PercIAExp1 Prime_4N Target_4N EIMDbfG KGaAbJe Congruent left error Normal 1660.218
704 78 LeftLarger PercIAExp1 Prime_4A Target_6A hMEBaeF hkgmjDA Incongruent right correct Normal 1252.103
704 79 LeftLarger PercIAExp1 Prime_1A Target_6A gmAlJef KaLfikg Incongruent right correct Normal 1343.095
704 80 LeftLarger PercIAExp1 Prime_6N Target_6N HDAfcFJ efDMlja Congruent right error Normal 1616.753
704 81 LeftSmaller PercIBPrac Prime_1N Target_4A KELBIgF KIhLdDm Congruent left correct Normal 1710.813
704 82 LeftSmaller PercIBPrac Prime_9N Target_4N AjHmgGc MKEDieg Incongruent right correct Normal 1013.477
704 83 LeftSmaller PercIBPrac Prime_1A Target_4N LgHCBmf LcBHbla Congruent left correct Normal 1800.053
704 84 LeftSmaller PercIBPrac Prime_9A Target_9A EdmkBiG bBdijHM Congruent right correct Normal 1718.83
704 85 LeftSmaller PercIBPrac Prime_9A Target_4A BGDJFLd kHLmJlb Incongruent right correct Normal 1550.703
704 86 LeftSmaller PercIBPrac Prime_9N Target_6A fcmkiGH cCKkLjb Congruent left error Normal 2235.101
704 87 LeftSmaller PercIBPrac Prime_1A Target_1N KbLMDgd BmKbghl Congruent right error Normal 1873.652
704 88 LeftSmaller PercIBPrac Prime_6A Target_9N FILKalm AcBblhJ Congruent right correct Normal 1654.869
704 89 LeftSmaller PercIBPrac Prime_6A Target_6A JhEijdD FJmhCAj Congruent right correct Normal 1663.165
704 90 LeftSmaller PercIBPrac Prime_4A Target_6A ECgFfJh hGJeHLi Incongruent left correct Normal 917.1325
704 91 LeftSmaller PercIBPrac Prime_9N Target_9N cgaEhDk CMjdEAa Congruent right correct Normal 2469.026
704 92 LeftSmaller PercIBPrac Prime_6N Target_1A ajlLEbA eiCEKkD Incongruent right correct Normal 2684.478
704 93 LeftSmaller PercIBPrac Prime_6A Target_6N FejdJiL AkKGBjE Congruent left error Normal 2865.495
704 94 LeftSmaller PercIBPrac Prime_1A Target_9A EecJCdb HbLjcMA Incongruent left correct Normal 2309.55
704 95 LeftSmaller PercIBPrac Prime_6N Target_9A IiBGLMb EACaIGd Congruent right correct Normal 2336.334
704 96 LeftSmaller PercIBPrac Prime_9A Target_1N FBJimLH DjFEAim Incongruent right correct Normal 1254.68
704 97 LeftSmaller PercIBExp1 Prime_1A Target_1N ldkHfej HagCjmI Congruent right error Normal 1661.978
704 98 LeftSmaller PercIBExp1 Prime_1N Target_9A hliEfac IBkaCMj Incongruent left correct Normal 954.8035
704 99 LeftSmaller PercIBExp1 Prime_9N Target_4N MlidIHA kIjKEld Incongruent right correct Normal 1474.223
704 100 LeftSmaller PercIBExp1 Prime_9A Target_9N lfdhGie DkieKdC Congruent left error Normal 1559.015
704 101 LeftSmaller PercIBExp1 Prime_1A Target_4N LMBlFCe kEIKjJh Congruent left correct Normal 1329.571
704 102 LeftSmaller PercIBExp1 Prime_1A Target_1A MJaCcjm DIlcHLB Congruent right error Normal 1102.48
704 103 LeftSmaller PercIBExp1 Prime_4A Target_1A IBhaelf mEcKikF Congruent left correct Normal 1144.955
704 104 LeftSmaller PercIBExp1 Prime_9A Target_4A FlECKka DLjJdIB Incongruent right correct Normal 1107.002
704 105 LeftSmaller PercIBExp1 Prime_1N Target_1N FdJEDlk JLagjed Congruent left correct Normal 1151.163
704 106 LeftSmaller PercIBExp1 Prime_1N Target_6A DIEmbFk kbAdlKD Incongruent right error Normal 1250.312
704 107 LeftSmaller PercIBExp1 Prime_4A Target_6A BfFblgi mbjIcGE Incongruent left correct Normal 2918.704
704 108 LeftSmaller PercIBExp1 Prime_9N Target_4A FdGaALj FGjekmh Incongruent right correct Normal 2394.595
704 109 LeftSmaller PercIBExp1 Prime_9A Target_1N fbdlcma cFalDBe Incongruent right correct Normal 1718.818
704 110 LeftSmaller PercIBExp1 Prime_6A Target_4A HfjalkE GiAdkFf Incongruent right correct Normal 2969.238
704 111 LeftSmaller PercIBExp1 Prime_4N Target_4A DLEHAeG DMflaEh Congruent left correct Normal 1813.748
704 112 LeftSmaller PercIBExp1 Prime_9A Target_9A LBeEjFi DEbehBi Congruent right correct Normal 2042.088
704 113 LeftSmaller PercIBExp1 Prime_6N Target_4N MilLaAm GIHadgc Incongruent right correct Normal 3404.499
704 114 LeftSmaller PercIBExp1 Prime_6N Target_6A LGKhHJC ifjegLI Congruent left error Normal 1703.886
704 115 LeftSmaller PercIBExp1 Prime_9N Target_1A dkGEHel KbBAMeC Incongruent right correct Normal 1372.934
704 116 LeftSmaller PercIBExp1 Prime_1N Target_1A FAJKcLM DgFJjAk Congruent left correct Normal 2544.661
704 117 LeftSmaller PercIBExp1 Prime_4A Target_9A IcEmJKd DhHAIEK Incongruent left correct Normal 1452.479
704 118 LeftSmaller PercIBExp1 Prime_6N Target_1A LFeJKAk AhcaDEi Incongruent right correct Normal 1394.94
704 119 LeftSmaller PercIBExp1 Prime_1A Target_9N eLJEiDA mMCaLBE Incongruent left correct Normal 1101.231
704 120 LeftSmaller PercIBExp1 Prime_4A Target_6N ljgHeCh aCADfhG Incongruent left correct Normal 1331.28
704 121 LeftSmaller PercIBExp1 Prime_6A Target_6N HCGBFlM DMLCAkb Congruent left error Normal 1801.573
704 122 LeftSmaller PercIBExp1 Prime_1N Target_6N BIkbGJC kCdBIAE Incongruent left correct Normal 2076.145
704 123 LeftSmaller PercIBExp1 Prime_4N Target_9A ElcBjGD geiGkBL Incongruent right error Normal 1911.586
704 124 LeftSmaller PercIBExp1 Prime_1A Target_6N geCLicB hLkcIDg Incongruent left correct Normal 1156.795
704 125 LeftSmaller PercIBExp1 Prime_4N Target_4N AihKfDJ CakdAGb Congruent right error Normal 1578.691
704 126 LeftSmaller PercIBExp1 Prime_1N Target_9N HhLMIcj mjlgfKa Incongruent left correct Normal 2589.949
704 127 LeftSmaller PercIBExp1 Prime_1N Target_4N jfEmeJi LMBkdHg Congruent right error Normal 1595.706
704 128 LeftSmaller PercIBExp1 Prime_9N Target_9A GafHLcI IMLBibC Congruent right correct Normal 1741.04
704 129 LeftSmaller PercIBExp1 Prime_6N Target_6N DlLIijM ahlfFDK Congruent left error Normal 3048.644
704 130 LeftSmaller PercIBExp1 Prime_4N Target_1N mEJeciI MEkKacD Congruent right error Normal 1904.543
704 131 LeftSmaller PercIBExp1 Prime_9A Target_6N AhbCDlj haHlKEB Congruent left error Normal 1995.49
704 132 LeftSmaller PercIBExp1 Prime_9N Target_6N LgebadB LbaDGcj Congruent right correct Normal 1020.472
704 133 LeftSmaller PercIBExp1 Prime_9N Target_1N lEdjbiC mAFDdkL Incongruent right correct Normal 1098.48
704 134 LeftSmaller PercIBExp1 Prime_4A Target_4A BedhJLi GELKgFI Congruent right error Normal 2608.388
704 135 LeftSmaller PercIBExp1 Prime_1A Target_4A LDjgBCh fbHIChB Congruent left correct Normal 1404.757
704 136 LeftSmaller PercIBExp1 Prime_1N Target_4A dahkeEG AGcifbE Congruent left correct Normal 1733.283
704 137 LeftSmaller PercIBExp1 Prime_9A Target_1A aKHCkcD JdEcaih Incongruent right correct Normal 1715.762
704 138 LeftSmaller PercIBExp1 Prime_4A Target_4N aCmiGKD FgCbAGL Congruent right error Normal 2723.021
704 139 LeftSmaller PercIBExp1 Prime_1A Target_9A jbKGhaC fALgdeb Incongruent right error Normal 2762.442
704 140 LeftSmaller PercIBExp1 Prime_6A Target_1N dAKDJEg mJjAckE Incongruent right correct Normal 1407.919
704 141 LeftSmaller PercIBExp1 Prime_6N Target_9N IKGkJgi JlHGLeI Congruent left error Normal 1477.781
704 142 LeftSmaller PercIBExp1 Prime_4A Target_1N lGfjbHF CfmABkH Congruent left correct Normal 2239.176
704 143 LeftSmaller PercIBExp1 Prime_9N Target_6A FKlHCjm iKJCfgL Congruent left error Normal 1472.146
704 144 LeftSmaller PercIBExp1 Prime_4N Target_6N CfJamHK KbIAJgG Incongruent right error Normal 1458.676
704 145 LeftSmaller PercIBExp1 Prime_9A Target_6A dDmIiKL HagmKCE Congruent left error Normal 2257.857
704 146 LeftSmaller PercIBExp1 Prime_6A Target_9A KHkAjEb HElhGBb Congruent right correct Normal 1678.433
704 147 LeftSmaller PercIBExp1 Prime_4N Target_6A fhdCgij gKcliaA Incongruent left correct Normal 1640.882
704 148 LeftSmaller PercIBExp1 Prime_4N Target_9N DbClJBI LCEDAMc Incongruent left correct Normal 1753.957
704 149 LeftSmaller PercIBExp1 Prime_9A Target_4N AcKeIBd HbkDjEe Incongruent right correct Normal 1366.514
704 150 LeftSmaller PercIBExp1 Prime_6N Target_9A MhFIcjA EgfmjKF Congruent left error Normal 1623.813
704 151 LeftSmaller PercIBExp1 Prime_6A Target_4N kJIDAgi HDfgBCG Incongruent right correct Normal 1506.354
704 152 LeftSmaller PercIBExp1 Prime_6A Target_1A IjGJbkd mGLKlHI Incongruent right correct Normal 1168.187
704 153 LeftSmaller PercIBExp1 Prime_6A Target_9N imMBfHj ameiMIB Congruent right correct Normal 1282.243
704 154 LeftSmaller PercIBExp1 Prime_6A Target_6A IlFecdk gDGedhb Congruent right correct Normal 838.8002
704 155 LeftSmaller PercIBExp1 Prime_6N Target_4A fAbKkJj CBhjGmL Incongruent right correct Normal 3004.804
704 156 LeftSmaller PercIBExp1 Prime_4N Target_1A BeCiaAm HdbAMkD Congruent left correct Normal 2050.398
704 157 LeftSmaller PercIBExp1 Prime_6N Target_1N bDMgKhj kaheifb Incongruent left error Normal 2253.591
704 158 LeftSmaller PercIBExp1 Prime_4A Target_9N HbeJIFC eCMcFEl Incongruent left correct Normal 2371.166
704 159 LeftSmaller PercIBExp1 Prime_1A Target_6A IEajJGb afhimcF Incongruent left correct Normal 1160.688
704 160 LeftSmaller PercIBExp1 Prime_9N Target_9N kFdMigJ aJLFleG Congruent right correct Normal 2506.32
705 1 LeftSmaller PercIAPrac Prime_9N Target_1A LgKAeDM EiALeIk Incongruent right correct Normal 1839.288
705 2 LeftSmaller PercIAPrac Prime_6N Target_9A CaIdJKe BFijIcd Congruent right correct Normal 2579.947
705 3 LeftSmaller PercIAPrac Prime_1N Target_1N bMEDefK BfaiEmJ Congruent left correct Normal 2231.928
705 4 LeftSmaller PercIAPrac Prime_4A Target_4A eKfMDdj hjIGMFH Congruent right error Normal 2588.99
705 5 LeftSmaller PercIAPrac Prime_1N Target_1A HLhcfGb fJcmeGj Congruent left correct Normal 2296.335
705 6 LeftSmaller PercIAPrac Prime_9A Target_1A CkmHDBi dlJbaAE Incongruent right correct Normal 2158.658
705 7 LeftSmaller PercIAPrac Prime_4A Target_1N DmlIAhL FlcHJgh Congruent right error Normal 2356.842
705 8 LeftSmaller PercIAPrac Prime_9A Target_1N HJEcgFj IaEGiMH Incongruent right correct Normal 1701.782
705 9 LeftSmaller PercIAPrac Prime_1A Target_6N mCieHda DAhIfCL Incongruent left correct Normal 2133.222
705 10 LeftSmaller PercIAPrac Prime_9A Target_6N LClKGdJ hAkFgjM Congruent right correct Normal 2696.538
705 11 LeftSmaller PercIAPrac Prime_9N Target_4A CgGfDlJ CmHEcBi Incongruent right correct Normal 2107.124
705 12 LeftSmaller PercIAPrac Prime_4N Target_9N bFGikem gFieIAB Incongruent left correct Normal 1956.427
705 13 LeftSmaller PercIAPrac Prime_4A Target_4N JCkMLcf kbDLEJG Congruent right error Normal 2153.88
705 14 LeftSmaller PercIAPrac Prime_6N Target_6A KjDEamd keGDfKa Congruent left error Normal 1857.552
705 15 LeftSmaller PercIAPrac Prime_1N Target_9N CJjkmHi HkEclGJ Incongruent right error Normal 1814.891
705 16 LeftSmaller PercIAPrac Prime_9N Target_6N makDheB JBKjAEh Congruent right correct Normal 2034.974
705 17 LeftSmaller PercIAExp1 Prime_6N Target_4N aHGhFfM fEGKHId Incongruent right correct Normal 1775.474
705 18 LeftSmaller PercIAExp1 Prime_1A Target_4A hmDgGie lmJHhAB Congruent left correct Normal 2057.015
705 19 LeftSmaller PercIAExp1 Prime_1A Target_1A FiEKjlA kEbGeHh Congruent right error Normal 1597.226
705 20 LeftSmaller PercIAExp1 Prime_6N Target_9N MKLlbdj jHkFMCI Congruent right correct Normal 1769.625
705 21 LeftSmaller PercIAExp1 Prime_9N Target_9N ikdBDFH CfeMhKj Congruent left error Normal 2950.459
705 22 LeftSmaller PercIAExp1 Prime_6A Target_4N dHJIelC aeIfMib Incongruent right correct Normal 3248.026
705 23 LeftSmaller PercIAExp1 Prime_6N Target_4A Fgifmhl mBCfcea Incongruent right correct Normal 1523.013
705 24 LeftSmaller PercIAExp1 Prime_9A Target_9N BFcEJfe cIgFfGe Congruent right correct Normal 2068.04
705 25 LeftSmaller PercIAExp1 Prime_1N Target_4N LgfeFIb EdBbMaH Congruent left correct Normal 1404.141
705 26 LeftSmaller PercIAExp1 Prime_6A Target_9A IELckFK CGKicIJ Congruent right correct Normal 1482.939
705 27 LeftSmaller PercIAExp1 Prime_6N Target_9A aIefhgl dBJMhkl Congruent right correct Normal 1534.121
705 28 LeftSmaller PercIAExp1 Prime_6N Target_6A gjAdeCF LAgGmjf Congruent left error Normal 1596.318
705 29 LeftSmaller PercIAExp1 Prime_6N Target_1N DjkMIdF gdDjail Incongruent right correct Normal 1353.415
705 30 LeftSmaller PercIAExp1 Prime_6N Target_6N faEdhID ICdhBMl Congruent right correct Normal 2073.501
705 31 LeftSmaller PercIAExp1 Prime_1N Target_9A cFmikJL fGCkHiK Incongruent left correct Normal 1692.815
705 32 LeftSmaller PercIAExp1 Prime_1A Target_6A FEagGhm GciDgJh Incongruent left correct Normal 1720.92
705 33 LeftSmaller PercIAExp1 Prime_4N Target_4A AadFcjb kFLJdHi Congruent right error Normal 1524.14
705 34 LeftSmaller PercIAExp1 Prime_6A Target_1N mFfAbBj igIheHm Incongruent right correct Normal 1706.772
705 35 LeftSmaller PercIAExp1 Prime_4A Target_6N BMhdCGm dKHhiLD Incongruent left correct Normal 2364.476
705 36 LeftSmaller PercIAExp1 Prime_1N Target_1N elaBhCj JEkjFAh Congruent left correct Normal 1549.281
705 37 LeftSmaller PercIAExp1 Prime_4A Target_4A IaDLFel hEjlaDc Congruent left correct Normal 2052.4
705 38 LeftSmaller PercIAExp1 Prime_9A Target_1N ljmcaIC dIFBgbj Incongruent right correct Normal 1379.682
705 39 LeftSmaller PercIAExp1 Prime_1A Target_9N chAKDjE aCcGDEM Incongruent left correct Normal 1656.081
705 40 LeftSmaller PercIAExp1 Prime_1N Target_9N IdCfGcl dlJbgGk Incongruent left correct Normal 1304.454
705 41 LeftSmaller PercIAExp1 Prime_9N Target_1A DbedCHh meFjIJC Incongruent right correct Normal 1911.229
705 42 LeftSmaller PercIAExp1 Prime_1N Target_1A MlHgFIC JdcfbIF Congruent right error Normal 1357.558
705 43 LeftSmaller PercIAExp1 Prime_1A Target_9A LdamhAi cKFAMjG Incongruent left correct Normal 2010.595
705 44 LeftSmaller PercIAExp1 Prime_4N Target_9N bMkeLjJ KbCJeEA Incongruent left correct Normal 1363.908
705 45 LeftSmaller PercIAExp1 Prime_6N Target_1A FkflgBM jDIEcgB Incongruent right correct Normal 1219.519
705 46 LeftSmaller PercIAExp1 Prime_6A Target_6A DEKhiFf hFDElKB Congruent left error Normal 1804.721
705 47 LeftSmaller PercIAExp1 Prime_4A Target_4N bmBiKLc jgeMbmA Congruent right error Normal 2563.823
705 48 LeftSmaller PercIAExp1 Prime_6A Target_9N MKJEAmI hcMIHak Congruent right correct Normal 1616.04
705 49 LeftSmaller PercIAExp1 Prime_9N Target_6N dfgBkJC jGkAJbf Congruent left error Normal 2971.798
705 50 LeftSmaller PercIAExp1 Prime_4A Target_9N glbfIdh fLCjbBH Incongruent left correct Normal 1789.915
705 51 LeftSmaller PercIAExp1 Prime_9N Target_4N FIHgBDG kMIJBcd Incongruent right correct Normal 1359.379
705 52 LeftSmaller PercIAExp1 Prime_4N Target_4N GCcFjlM cKElAkD Congruent right error Normal 1772.17
705 53 LeftSmaller PercIAExp1 Prime_6A Target_4A MGlJdLj JcidbFA Incongruent right correct Normal 2149.506
705 54 LeftSmaller PercIAExp1 Prime_4N Target_9A cDGkCMm GkdcJIB Incongruent right error Normal 1597.015
705 55 LeftSmaller PercIAExp1 Prime_1N Target_4A ghdlKaJ chICLma Congruent right error Normal 2012.61
705 56 LeftSmaller PercIAExp1 Prime_1A Target_6N DiHdMIe LkAJKaD Incongruent left correct Normal 1210.697
705 57 LeftSmaller PercIAExp1 Prime_6A Target_1A akemBCf MaIkfFL Incongruent right correct Normal 1060.849
705 58 LeftSmaller PercIAExp1 Prime_4A Target_9A haJKlfG EGfcIgk Incongruent left correct Normal 1403.102
705 59 LeftSmaller PercIAExp1 Prime_4N Target_6N GeBJKHd dkIEDfe Incongruent right error Normal 1293.477
705 60 LeftSmaller PercIAExp1 Prime_6A Target_6N BDHdaJG ACMKdFH Congruent left error Normal 2045.02
705 61 LeftSmaller PercIAExp1 Prime_1N Target_6A mLclCMk ILGEiej Incongruent left correct Normal 1537.21
705 62 LeftSmaller PercIAExp1 Prime_4N Target_6A EiHaMke hFIBgJb Incongruent right error Normal 2120.525
705 63 LeftSmaller PercIAExp1 Prime_1A Target_1N agMhmjG hgMieEA Congruent right error Normal 2310.068
705 64 LeftSmaller PercIAExp1 Prime_1A Target_4N fbEAaKj EhBJdAG Congruent right error Normal 2236.147
705 65 LeftSmaller PercIAExp1 Prime_9N Target_6A BgADKGj ecIgEJD Congruent left error Normal 1696.363
705 66 LeftSmaller PercIAExp1 Prime_9A Target_4N fDHGkbj dkgCcBf Incongruent right correct Normal 1308.416
705 67 LeftSmaller PercIAExp1 Prime_9N Target_9A JfGKdBl dAglamk Congruent left error Normal 1295.725
705 68 LeftSmaller PercIAExp1 Prime_9N Target_4A FgbIGEh FDdKeIL Incongruent right correct Normal 2081.737
705 69 LeftSmaller PercIAExp1 Prime_9A Target_6N kKClbAG MGEHLFd Congruent right correct Normal 1452.81
705 70 LeftSmaller PercIAExp1 Prime_4A Target_1N agLJdlK iFbkmje Congruent left correct Normal 1766.032
705 71 LeftSmaller PercIAExp1 Prime_9A Target_1A IebaGcC IafikJl Incongruent right correct Normal 1452.962
705 72 LeftSmaller PercIAExp1 Prime_9A Target_4A bFkcGEK EeDLCbF Incongruent right correct Normal 1783.616
705 73 LeftSmaller PercIAExp1 Prime_4N Target_1N hFbgfCJ KLIkCbh Congruent left correct Normal 1786.736
705 74 LeftSmaller PercIAExp1 Prime_9A Target_9A GaFKeMm CfFAlek Congruent right correct Normal 1723.034
705 75 LeftSmaller PercIAExp1 Prime_4A Target_6A JKAIMCm ElfLKdj Incongruent left correct Normal 1847.964
705 76 LeftSmaller PercIAExp1 Prime_9N Target_1N CgmKjGF Mcbidkh Incongruent right correct Normal 1742.722
705 77 LeftSmaller PercIAExp1 Prime_4A Target_1A JckFelf gHkfcJL Congruent right error Normal 2726.997
705 78 LeftSmaller PercIAExp1 Prime_9A Target_6A DJfAEBj JLhHDKa Congruent right correct Normal 1722.531
705 79 LeftSmaller PercIAExp1 Prime_4N Target_1A IHlBKej LfkCHFE Congruent left correct Normal 1523.472
705 80 LeftSmaller PercIAExp1 Prime_1N Target_6N bHdckBK kmFlbAh Incongruent left correct Normal 1883.655
705 81 LeftLarger PercIBPrac Prime_9A Target_6N ikDeMgK KfIABFG Congruent left correct Normal 1631.298
705 82 LeftLarger PercIBPrac Prime_1A Target_4A GhbAIHd fMJkBlK Congruent right correct Normal 3171.971
705 83 LeftLarger PercIBPrac Prime_4A Target_1N EjakcMI MjmBaiC Congruent right correct Normal 2774.551
705 84 LeftLarger PercIBPrac Prime_9A Target_9N kfhmIJF IEcDaBj Congruent left correct Normal 1800.092
705 85 LeftLarger PercIBPrac Prime_6N Target_9A dlhLADk BDadgJE Congruent left correct Normal 2759.22
705 86 LeftLarger PercIBPrac Prime_6A Target_1N LjECMmc BMLFJdH Incongruent left correct Normal 3152.972
705 87 LeftLarger PercIBPrac Prime_1N Target_1N aBjcLGJ alKimdE Congruent left error Normal 1686.639
705 88 LeftLarger PercIBPrac Prime_9N Target_4A lmagLeM IcLECja Incongruent left correct Normal 2148.825
705 89 LeftLarger PercIBPrac Prime_1A Target_6N mHFeECI iHbAhGF Incongruent right correct Normal 1621.884
705 90 LeftLarger PercIBPrac Prime_4N Target_6N gfekKcm KbJkacL Incongruent right correct Normal 1876.16
705 91 LeftLarger PercIBPrac Prime_1A Target_6A hbgfLMm MedHahG Incongruent right correct Normal 2651.868
705 92 LeftLarger PercIBPrac Prime_1A Target_1N klgLCbE ClKLDFj Congruent left error Normal 3553.533
705 93 LeftLarger PercIBPrac Prime_9N Target_4N aGLmiMe dmHlAjC Incongruent left correct Normal 1091.571
705 94 LeftLarger PercIBPrac Prime_6A Target_9A FbaEmiC KfaAbHD Congruent right error Normal 1766.493
705 95 LeftLarger PercIBPrac Prime_9A Target_4N gmihfBb AKefcJF Incongruent left correct Normal 2168.604
705 96 LeftLarger PercIBPrac Prime_6N Target_1N CaidAfg ilmLaBb Incongruent left correct Normal 1883.663
705 97 LeftLarger PercIBExp1 Prime_1N Target_1A eAiKJfB kbLgcHe Congruent left error Normal 1895.598
705 98 LeftLarger PercIBExp1 Prime_4N Target_4A MkCHmAl DbAjCGI Congruent left error Normal 1776.497
705 99 LeftLarger PercIBExp1 Prime_1N Target_4A GbeJLgf gLfmaeh Congruent left error Normal 2361.968
705 100 LeftLarger PercIBExp1 Prime_1N Target_9N BMdibIg kcbCGDa Incongruent right correct Normal 1398.873
705 101 LeftLarger PercIBExp1 Prime_6N Target_6A eiFHcMI cFCMLDj Congruent left correct Normal 1775.079
705 102 LeftLarger PercIBExp1 Prime_9A Target_4N CGcaFbD aBLbEIC Incongruent left correct Normal 1422.242
705 103 LeftLarger PercIBExp1 Prime_4A Target_6N KLkIEdJ IgJMkKj Incongruent right correct Normal 1782.992
705 104 LeftLarger PercIBExp1 Prime_6N Target_1A bFAijcd mAGKCad Incongruent left correct Normal 1475.28
705 105 LeftLarger PercIBExp1 Prime_9A Target_9A bkJmjec gCfjDKl Congruent right error Normal 1927.296
705 106 LeftLarger PercIBExp1 Prime_4N Target_6A bmkKhLA mHJbKjl Incongruent right correct Normal 2168.805
705 107 LeftLarger PercIBExp1 Prime_4N Target_4N IDicCEb iMlChAe Congruent left error Normal 2089.152
705 108 LeftLarger PercIBExp1 Prime_1A Target_4N CIaDFAj DekiaAl Congruent right correct Normal 1587.455
705 109 LeftLarger PercIBExp1 Prime_4A Target_1N eCGgfcA iEhgafm Congruent right correct Normal 2174.854
705 110 LeftLarger PercIBExp1 Prime_9N Target_6A eBLGKID meEHLCd Congruent left correct Normal 1421.105
705 111 LeftLarger PercIBExp1 Prime_4A Target_4A GMdmFKj JhKmCAF Congruent left error Normal 1377.542
705 112 LeftLarger PercIBExp1 Prime_9N Target_4A hDlKkFG kdjeafA Incongruent left correct Normal 1392.809
705 113 LeftLarger PercIBExp1 Prime_9N Target_9N LkDHlfE hjHLFAb Congruent right error Normal 1592.031
705 114 LeftLarger PercIBExp1 Prime_6N Target_9N DiEbjfK GifeaFC Congruent left correct Normal 2258.099
705 115 LeftLarger PercIBExp1 Prime_6A Target_1A AMaGLfF cjeFCGB Incongruent left correct Normal 3021.367
705 116 LeftLarger PercIBExp1 Prime_4A Target_4N bmDLeIC iejJDcb Congruent left error Normal 2327.978
705 117 LeftLarger PercIBExp1 Prime_9N Target_1N AhIifDJ DICihgM Incongruent left correct Normal 1892.453
705 118 LeftLarger PercIBExp1 Prime_4N Target_9A mhHJiGk HAejJFG Incongruent left error Normal 2214.366
705 119 LeftLarger PercIBExp1 Prime_4N Target_1N KGIAigE HMAdfIK Congruent left error Normal 3300.495
705 120 LeftLarger PercIBExp1 Prime_4A Target_1A cgAfGlk CjGJgAe Congruent left error Normal 2179.976
705 121 LeftLarger PercIBExp1 Prime_4N Target_1A FaMBAdK ihEDGlF Congruent left error Normal 3734.845
705 122 LeftLarger PercIBExp1 Prime_6A Target_1N kdBebGJ DAmfhMJ Incongruent right error Normal 2547.192
705 123 LeftLarger PercIBExp1 Prime_9A Target_1N haelbJk IfCLakJ Incongruent left correct Normal 2741.276
705 124 LeftLarger PercIBExp1 Prime_9N Target_1A baidmIA cJAIbBD Incongruent left correct Normal 1669.521
705 125 LeftLarger PercIBExp1 Prime_6N Target_1N kcMGBiE CbcHKJm Incongruent left correct Normal 1236.389
705 126 LeftLarger PercIBExp1 Prime_4A Target_9A CLEAamJ FIHkcmL Incongruent right correct Normal 1397.236
705 127 LeftLarger PercIBExp1 Prime_9N Target_9A lfLJiCh ceIhDgG Congruent right error Normal 1983.147
705 128 LeftLarger PercIBExp1 Prime_6N Target_4A ckeHmJb BmJHaCe Incongruent left correct Normal 1292.307
705 129 LeftLarger PercIBExp1 Prime_9N Target_6N gBGDLIb FjkgahC Congruent left correct Normal 1900.638
705 130 LeftLarger PercIBExp1 Prime_6N Target_9A lFkHIdD chjABMG Congruent left correct Normal 1670.086
705 131 LeftLarger PercIBExp1 Prime_9N Target_4N lgBLahG GDBjclE Incongruent left correct Normal 2964.377
705 132 LeftLarger PercIBExp1 Prime_4A Target_9N hfmjlbL CfhFima Incongruent right correct Normal 2540.983
705 133 LeftLarger PercIBExp1 Prime_4N Target_9N kBMKDEa ljahegi Incongruent right correct Normal 1579.094
705 134 LeftLarger PercIBExp1 Prime_1N Target_9A JhDMCgc HFmJGgl Incongruent right correct Normal 1725.876
705 135 LeftLarger PercIBExp1 Prime_6N Target_6N bjAkcGI ibBJchl Congruent left correct Normal 2136.684
705 136 LeftLarger PercIBExp1 Prime_4A Target_6A CJeikLM HMLFfBJ Incongruent right correct Normal 1477.438
705 137 LeftLarger PercIBExp1 Prime_1A Target_9N kLHBFfe aeMIiAh Incongruent right correct Normal 1358.057
705 138 LeftLarger PercIBExp1 Prime_1N Target_1N KhBkIDi dmbhACk Congruent right correct Normal 1886.937
705 139 LeftLarger PercIBExp1 Prime_6A Target_4N fMgGCDd dKmLChc Incongruent left correct Normal 1810.342
705 140 LeftLarger PercIBExp1 Prime_6A Target_6N IgfalMd EJIMjkG Congruent left correct Normal 2063.695
705 141 LeftLarger PercIBExp1 Prime_9A Target_4A hgiCABl jfADlmI Incongruent right error Normal 1852.182
705 142 LeftLarger PercIBExp1 Prime_1N Target_6A faBMibH LdcMHJC Incongruent right correct Normal 3226.849
705 143 LeftLarger PercIBExp1 Prime_1A Target_4A mbIChjH diADmJc Congruent left error Normal 1830.229
705 144 LeftLarger PercIBExp1 Prime_6N Target_4N BdkHbMg mKilHEe Incongruent left correct Normal 3764.37
705 145 LeftLarger PercIBExp1 Prime_6A Target_6A AmJjDBF MmLkDcb Congruent right error Normal 1554.745
705 146 LeftLarger PercIBExp1 Prime_1N Target_4N debkjEC hmkjGJl Congruent left error Normal 2633.682
705 147 LeftLarger PercIBExp1 Prime_1A Target_9A kJlGdia MgcaGKk Incongruent right correct Normal 2256.382
705 148 LeftLarger PercIBExp1 Prime_1A Target_1A bhmkBMC mefajdG Congruent left error Normal 2911.183
705 149 LeftLarger PercIBExp1 Prime_6A Target_9N IBMflmA hFMjDAE Congruent left correct Normal 2045.388
705 150 LeftLarger PercIBExp1 Prime_1A Target_6N labHmgj eagDJCB Incongruent left error Normal 2533.221
705 151 LeftLarger PercIBExp1 Prime_9A Target_9N dHhJeFM MdIceHF Congruent left correct Normal 2848.284
705 152 LeftLarger PercIBExp1 Prime_6A Target_4A ligbBKM LiKFkGh Incongruent left correct Normal 2899.88
705 153 LeftLarger PercIBExp1 Prime_9A Target_6A kIcJHAF faBjmGb Congruent right error Normal 1396.346
705 154 LeftLarger PercIBExp1 Prime_1N Target_6N fELjCaD cdbKkmD Incongruent right correct Normal 1729.818
705 155 LeftLarger PercIBExp1 Prime_4N Target_6N AkeHIcg KCcfhHA Incongruent right correct Normal 1380.979
705 156 LeftLarger PercIBExp1 Prime_1A Target_1N MghdLlf MEDifbF Congruent left error Normal 1742.359
705 157 LeftLarger PercIBExp1 Prime_6A Target_9A jIGafDd GiFJcLb Congruent left correct Normal 2057.934
705 158 LeftLarger PercIBExp1 Prime_1A Target_6A gKAlkEf jJbmBEd Incongruent right correct Normal 1044.29
705 159 LeftLarger PercIBExp1 Prime_9A Target_6N EJDbKFf gkHfGeb Congruent left correct Normal 1555.944
705 160 LeftLarger PercIBExp1 Prime_9A Target_1A lIdimGH KBlDHJC Incongruent left correct Normal 1471.009
706 1 LeftSmaller PercIAPrac Prime_4A Target_4N EhBAFdK BELHhkc Congruent left correct Normal 845.437
706 2 LeftSmaller PercIAPrac Prime_4N Target_9N LMFAJlf BIaGijH Incongruent left correct Normal 811.5158
706 3 LeftSmaller PercIAPrac Prime_6N Target_4A LljkMFf mJgGMjK Incongruent right correct Normal 356.5507
706 4 LeftSmaller PercIAPrac Prime_9N Target_4A hblcKgf KDiafJl Incongruent right correct Normal 313.9795
706 5 LeftSmaller PercIAPrac Prime_9A Target_4N ikEBafC IfhmMaB Incongruent right correct Normal 468.1345
706 6 LeftSmaller PercIAPrac Prime_6N Target_9N mIMeKED gkicdfb Congruent right correct Normal 329.7854
706 7 LeftSmaller PercIAPrac Prime_4N Target_9A MKmbjkC IFmgbAe Incongruent right error Normal 464.1817
706 8 LeftSmaller PercIAPrac Prime_6A Target_4A BafAIlH kgmiLEf Incongruent right correct Normal 446.3675
706 9 LeftSmaller PercIAPrac Prime_4N Target_6N IDGhadM icIbKmH Incongruent left correct Normal 471.1225
706 10 LeftSmaller PercIAPrac Prime_9A Target_1A fEHIBiL GKAkLMH Incongruent right correct Normal 255.5664
706 11 LeftSmaller PercIAPrac Prime_9A Target_4A kefhMbB FfElDIj Incongruent right correct Normal 288.8565
706 12 LeftSmaller PercIAPrac Prime_6A Target_6N HceCbAi flEHkGC Congruent right correct Normal 274.6107
706 13 LeftSmaller PercIAPrac Prime_1N Target_4A CGLaEMj DalCLAM Congruent right error Normal 525.1761
706 14 LeftSmaller PercIAPrac Prime_9N Target_6N gMLiHKF IfkGECc Congruent left error Normal 1070.457
706 15 LeftSmaller PercIAPrac Prime_1A Target_1N jeEkiGD fhImJiL Congruent left correct Normal 585.9714
706 16 LeftSmaller PercIAPrac Prime_1A Target_4A eaBEdcL HKcbjDe Congruent left correct Normal 517.7053
706 17 LeftSmaller PercIAExp1 Prime_9A Target_1A hDdmcjG jEbemJH Incongruent right correct Normal 1144.138
706 18 LeftSmaller PercIAExp1 Prime_9N Target_1N LdKbeJD LCHKdgI Incongruent left error Normal 464.051
706 19 LeftSmaller PercIAExp1 Prime_9A Target_9A CkHBfdK aLehifF Congruent right correct Normal 881.7083
706 20 LeftSmaller PercIAExp1 Prime_1A Target_4N DMjdaLm kmBgFlJ Congruent right error Normal 619.7504
706 21 LeftSmaller PercIAExp1 Prime_9A Target_4A GcghCkm EFfIiCD Incongruent left error Normal 415.9428
706 22 LeftSmaller PercIAExp1 Prime_1N Target_6N bKifIja GAekHfd Incongruent left correct Normal 405.1033
706 23 LeftSmaller PercIAExp1 Prime_1N Target_1A aLfjkGM jeDGfbK Congruent left correct Normal 375.5109
706 24 LeftSmaller PercIAExp1 Prime_6N Target_6N bAMfBFL cKeLDlh Congruent right correct Normal 345.6904
706 25 LeftSmaller PercIAExp1 Prime_4N Target_4N jILHCaK gLBcEJC Congruent right error Normal 278.1958
706 26 LeftSmaller PercIAExp1 Prime_4A Target_6A DliFfdG JDhiKef Incongruent right error Normal 308.8726
706 27 LeftSmaller PercIAExp1 Prime_1N Target_4N dcEDmHF IiBlkgF Congruent left correct Normal 399.7748
706 28 LeftSmaller PercIAExp1 Prime_1A Target_1N AejgGmD BbgkMjA Congruent left correct Normal 495.5442
706 29 LeftSmaller PercIAExp1 Prime_6A Target_1A dljDEkb hGakdBI Incongruent left error Normal 465.7756
706 30 LeftSmaller PercIAExp1 Prime_6A Target_9A GFDBiKb bMKhHCl Congruent right correct Normal 401.0135
706 31 LeftSmaller PercIAExp1 Prime_4N Target_4A jHcgimD KeAHEkI Congruent left correct Normal 547.8045
706 32 LeftSmaller PercIAExp1 Prime_9A Target_6A mlJGLhM jLcDdBf Congruent right correct Normal 472.735
706 33 LeftSmaller PercIAExp1 Prime_6N Target_9N lLDcCBG JlLfMIA Congruent right correct Normal 628.8914
706 34 LeftSmaller PercIAExp1 Prime_6A Target_6N BAKgMml CIJgHBb Congruent left error Normal 784.8093
706 35 LeftSmaller PercIAExp1 Prime_6N Target_9A fhbdJak IMGACmk Congruent right correct Normal 1149.096
706 36 LeftSmaller PercIAExp1 Prime_4A Target_1A AGbIeLa gHdCalk Congruent left correct Normal 659.1435
706 37 LeftSmaller PercIAExp1 Prime_4A Target_9N FcaGCml ajHCeLf Incongruent left correct Normal 461.7271
706 38 LeftSmaller PercIAExp1 Prime_4A Target_9A EeGlcgF hmDfeIH Incongruent left correct Normal 485.1914
706 39 LeftSmaller PercIAExp1 Prime_9N Target_9N HaDbdiL EHkiCdl Congruent right correct Normal 585.1465
706 40 LeftSmaller PercIAExp1 Prime_9A Target_9N LdHKBfc EjmKIBL Congruent right correct Normal 488.319
706 41 LeftSmaller PercIAExp1 Prime_6N Target_4N mFbgfJG KCjBcdk Incongruent right correct Normal 846.2351
706 42 LeftSmaller PercIAExp1 Prime_4N Target_1A MGhDiJF JMlDbiE Congruent right error Normal 543.0234
706 43 LeftSmaller PercIAExp1 Prime_4A Target_4A ebCBcGf MiDGJkH Congruent left correct Normal 431.9487
706 44 LeftSmaller PercIAExp1 Prime_1A Target_4A KBGJDaj ecaMmhL Congruent left correct Normal 559.7183
706 45 LeftSmaller PercIAExp1 Prime_9N Target_6N hfmCIik jGDCAIm Congruent left error Normal 563.2685
706 46 LeftSmaller PercIAExp1 Prime_6N Target_1A CLeiHjD mlIJfha Incongruent right correct Normal 683.4431
706 47 LeftSmaller PercIAExp1 Prime_4N Target_6N LcEgjMf LgfCiGb Incongruent right error Normal 870.0905
706 48 LeftSmaller PercIAExp1 Prime_6N Target_6A JdgbkaA GdcJbim Congruent left error Normal 734.416
706 49 LeftSmaller PercIAExp1 Prime_4A Target_4N dijfBAb Bgcflhe Congruent left correct Normal 927.576
706 50 LeftSmaller PercIAExp1 Prime_6A Target_4A kHaIEiD MBgcfeK Incongruent right correct Normal 745.7214
706 51 LeftSmaller PercIAExp1 Prime_9N Target_9A eGKLjBk jeAhEJB Congruent right correct Normal 689.8738
706 52 LeftSmaller PercIAExp1 Prime_9A Target_6N BhCimEf MLbfeaJ Congruent right correct Normal 1265.715
706 53 LeftSmaller PercIAExp1 Prime_6N Target_4A eFdgCAb kcmFAdL Incongruent left error Normal 742.406
706 54 LeftSmaller PercIAExp1 Prime_4A Target_6N ahmdbfA bMhdIcm Incongruent right error Normal 914.8457
706 55 LeftSmaller PercIAExp1 Prime_1N Target_6A GAjCchd ILkeblG Incongruent left correct Late 7183.522
706 56 LeftSmaller PercIAExp1 Prime_4N Target_9A dHAfKih MeaiLHj Incongruent left correct Normal 666.3799
706 57 LeftSmaller PercIAExp1 Prime_6A Target_4N DJbmadg LiIeJAh Incongruent left error Normal 464.8139
706 58 LeftSmaller PercIAExp1 Prime_1N Target_1N EbIceBC fLkjabG Congruent right error Normal 859.532
706 59 LeftSmaller PercIAExp1 Prime_1A Target_6N BlGEijL CMKfGbi Incongruent left correct Normal 831.2945
706 60 LeftSmaller PercIAExp1 Prime_9N Target_6A bBmGckK HFAfDIc Congruent right correct Normal 735.209
706 61 LeftSmaller PercIAExp1 Prime_1N Target_9N LbHcfdm MFglKiD Incongruent left correct Normal 656.1819
706 62 LeftSmaller PercIAExp1 Prime_9N Target_1A AiKGjBe jMHLCKg Incongruent left error Normal 4257.857
706 63 LeftSmaller PercIAExp1 Prime_4A Target_1N CdhKmFi iFmJLae Congruent right error Normal 644.6451
706 64 LeftSmaller PercIAExp1 Prime_1A Target_1A MJlfgAB bDcCBFe Congruent right error Normal 725.4493
706 65 LeftSmaller PercIAExp1 Prime_1A Target_6A mahHfJF AMDamJk Incongruent right error Normal 703.8399
706 66 LeftSmaller PercIAExp1 Prime_4N Target_1N EBligMJ dcebAma Congruent left correct Normal 867.6411
706 67 LeftSmaller PercIAExp1 Prime_4N Target_6A fAeJgDk DgmdMJi Incongruent left correct Normal 747.0794
706 68 LeftSmaller PercIAExp1 Prime_9N Target_4A gaEGMDI JhlBCHA Incongruent right correct Normal 519.2334
706 69 LeftSmaller PercIAExp1 Prime_1N Target_4A FlmHdCa GhfBCHb Congruent left correct Normal 669.0111
706 70 LeftSmaller PercIAExp1 Prime_1N Target_9A jAkFKmD kgMfHJm Incongruent left correct Normal 576.5703
706 71 LeftSmaller PercIAExp1 Prime_9N Target_4N dlcHgkF BimADjf Incongruent right correct Normal 899.423
706 72 LeftSmaller PercIAExp1 Prime_4N Target_9N GJMDahK hMAkKIJ Incongruent left correct Normal 799.7239
706 73 LeftSmaller PercIAExp1 Prime_6A Target_1N LlhMGFg ljfiKJM Incongruent right correct Normal 974.0847
706 74 LeftSmaller PercIAExp1 Prime_9A Target_4N DHICdkg CIdaGmJ Incongruent left error Normal 759.8226
706 75 LeftSmaller PercIAExp1 Prime_1A Target_9N jCiIAMD IGLljAk Incongruent right error Normal 630.2811
706 76 LeftSmaller PercIAExp1 Prime_9A Target_1N gMfkHim iALEfmg Incongruent left error Normal 760.4505
706 77 LeftSmaller PercIAExp1 Prime_6A Target_6A LIGJhBE EdlBIJf Congruent right correct Normal 761.0147
706 78 LeftSmaller PercIAExp1 Prime_6A Target_9N mDEChbI KfbcIJA Congruent left error Normal 613.1727
706 79 LeftSmaller PercIAExp1 Prime_1A Target_9A jdaBFEI eIAcGLB Incongruent left correct Normal 751.944
706 80 LeftSmaller PercIAExp1 Prime_6N Target_1N GKfklAM fJLmilg Incongruent right correct Normal 778.5071
706 81 LeftLarger PercIBPrac Prime_4N Target_6A diEjmlL agIbldL Incongruent right correct Normal 601.8115
706 82 LeftLarger PercIBPrac Prime_9A Target_9N MiLmFba egfEBCd Congruent left correct Normal 781.0004
706 83 LeftLarger PercIBPrac Prime_9N Target_1N laGIAmk DKCBFJM Incongruent right error Normal 885.7376
706 84 LeftLarger PercIBPrac Prime_1N Target_1N cEgeJhI GbdcCEg Congruent right correct Normal 784.5617
706 85 LeftLarger PercIBPrac Prime_9A Target_4N AiflJje JDjkgMl Incongruent left correct Normal 682.4694
706 86 LeftLarger PercIBPrac Prime_9A Target_4A aEBdeIi kdBbFgJ Incongruent right error Normal 1003.514
706 87 LeftLarger PercIBPrac Prime_1A Target_9A lcijBeC fLAlMGd Incongruent left error Normal 930.9671
706 88 LeftLarger PercIBPrac Prime_4A Target_4N HgBjCci MhKgbJe Congruent right correct Normal 573.8687
706 89 LeftLarger PercIBPrac Prime_1A Target_9N CMigcbL BhDmIgA Incongruent right correct Normal 992.6863
706 90 LeftLarger PercIBPrac Prime_1A Target_6N lMIFbia eKHJIjf Incongruent left error Normal 804.7273
706 91 LeftLarger PercIBPrac Prime_4N Target_4N EcAFila gHmhFGL Congruent right correct Normal 834.9002
706 92 LeftLarger PercIBPrac Prime_9N Target_6A HamFbfg MlbhacJ Congruent left correct Normal 869.0633
706 93 LeftLarger PercIBPrac Prime_6N Target_4A hlAaHbL KbdDMGj Incongruent right error Normal 1126.353
706 94 LeftLarger PercIBPrac Prime_6N Target_6N mIKjcHl FdhlKaI Congruent left correct Normal 741.4122
706 95 LeftLarger PercIBPrac Prime_9A Target_1A ILiAmMG mKAdHgB Incongruent left correct Normal 1055.301
706 96 LeftLarger PercIBPrac Prime_4A Target_6N ecEfKGj fACMbde Incongruent right correct Normal 946.3194
706 97 LeftLarger PercIBExp1 Prime_9A Target_1A LmCbgMJ CKLeJhl Incongruent left correct Normal 1198.537
706 98 LeftLarger PercIBExp1 Prime_9N Target_1N diLfhMB gEIJBCG Incongruent left correct Normal 776.7068
706 99 LeftLarger PercIBExp1 Prime_4N Target_4N iKeHmcJ daCAIkM Congruent right correct Normal 872.8703
706 100 LeftLarger PercIBExp1 Prime_6N Target_9A deIjibk flAjJLI Congruent left correct Normal 839.298
706 101 LeftLarger PercIBExp1 Prime_6A Target_1N dAgmeLD kbEImGH Incongruent left correct Normal 712.3355
706 102 LeftLarger PercIBExp1 Prime_4A Target_9A iIBLlGf HGKFCDJ Incongruent right correct Normal 652.5167
706 103 LeftLarger PercIBExp1 Prime_4N Target_9N ChLJHdc lbfHLme Incongruent right correct Normal 855.6897
706 104 LeftLarger PercIBExp1 Prime_4A Target_4A DjbJifA DeBCfIg Congruent right correct Normal 765.2751
706 105 LeftLarger PercIBExp1 Prime_9A Target_6A MKDLhmc fFGcaLE Congruent left correct Normal 698.1449
706 106 LeftLarger PercIBExp1 Prime_6A Target_9N cBlEijM eibJdDB Congruent left correct Normal 733.805
706 107 LeftLarger PercIBExp1 Prime_9A Target_6N keEHMGf KafhbFL Congruent left correct Normal 543.9667
706 108 LeftLarger PercIBExp1 Prime_4N Target_1A fheaiKI fcEBghl Congruent left error Normal 1013.121
706 109 LeftLarger PercIBExp1 Prime_6N Target_1A bjeMIHD MLljfiB Incongruent left correct Normal 718.8171
706 110 LeftLarger PercIBExp1 Prime_1N Target_1N mDELAbB AIKiMbk Congruent left error Normal 436.9823
706 111 LeftLarger PercIBExp1 Prime_1N Target_1A lBcDHde cfgIEeb Congruent left error Normal 772.0148
706 112 LeftLarger PercIBExp1 Prime_6N Target_6N MdkHeLJ EGahkBj Congruent right error Normal 1128.179
706 113 LeftLarger PercIBExp1 Prime_1A Target_1N IjiEmea beLEHKi Congruent right correct Normal 768.2431
706 114 LeftLarger PercIBExp1 Prime_9N Target_1A LIkKDMa lHfEkje Incongruent left correct Normal 937.4534
706 115 LeftLarger PercIBExp1 Prime_6A Target_4A ialELGH AdgGaME Incongruent left correct Normal 1066.541
706 116 LeftLarger PercIBExp1 Prime_1A Target_6N DegGMjL AFIkGhL Incongruent right correct Normal 1039.931
706 117 LeftLarger PercIBExp1 Prime_4A Target_6A aCimfDe JFkHDCi Incongruent right correct Normal 712.8892
706 118 LeftLarger PercIBExp1 Prime_4N Target_4A eldGfAk cgjaelh Congruent right correct Normal 1374.204
706 119 LeftLarger PercIBExp1 Prime_1N Target_4A IfHjEBd DAgKHlh Congruent right correct Normal 1014.439
706 120 LeftLarger PercIBExp1 Prime_9A Target_1N cbdLjgE LAedIaD Incongruent left correct Normal 611.2246
706 121 LeftLarger PercIBExp1 Prime_1N Target_9N EgkDcBm dAjLmFD Incongruent right correct Normal 870.8562
706 122 LeftLarger PercIBExp1 Prime_6A Target_6N iHGIgjk HeIfFDB Congruent left correct Normal 898.6792
706 123 LeftLarger PercIBExp1 Prime_4N Target_1N lKfCLIk JfGCMHb Congruent right correct Normal 562.7993
706 124 LeftLarger PercIBExp1 Prime_9N Target_4N MKeGDmA HLMfjEh Incongruent left correct Normal 855.3178
706 125 LeftLarger PercIBExp1 Prime_6A Target_6A KMAIBaG EhCmfgH Congruent left correct Normal 982.7954
706 126 LeftLarger PercIBExp1 Prime_6A Target_9A fjdkcAK dDAHGgj Congruent left correct Normal 661.8551
706 127 LeftLarger PercIBExp1 Prime_6N Target_4A kjeflcD hfmCcMF Incongruent left correct Normal 749.8032
706 128 LeftLarger PercIBExp1 Prime_4A Target_6N LFJDgjh GjadHmb Incongruent left error Normal 712.7209
706 129 LeftLarger PercIBExp1 Prime_1A Target_4N mkIMGHA iEeCcIf Congruent right correct Normal 543.9855
706 130 LeftLarger PercIBExp1 Prime_9N Target_9N CaIEMdF KBhajAJ Congruent left correct Normal 722.4838
706 131 LeftLarger PercIBExp1 Prime_9A Target_9A KAeMgCG bFAmILf Congruent left correct Normal 857.317
706 132 LeftLarger PercIBExp1 Prime_6N Target_1N jGcmaeb GjBHFCa Incongruent right error Normal 765.6895
706 133 LeftLarger PercIBExp1 Prime_6A Target_1A GlDbcHB AgjkaMC Incongruent left correct Normal 644.803
706 134 LeftLarger PercIBExp1 Prime_9N Target_6N CGDbicm mBEJCDj Congruent right error Normal 797.5822
706 135 LeftLarger PercIBExp1 Prime_4A Target_1A kFDmebI mJIfAKl Congruent right correct Normal 556.2849
706 136 LeftLarger PercIBExp1 Prime_6N Target_6A JIGgEmc lejJdgh Congruent right error Normal 803.6485
706 137 LeftLarger PercIBExp1 Prime_9N Target_4A EDkldmC iJHedaM Incongruent right error Normal 803.4738
706 138 LeftLarger PercIBExp1 Prime_1N Target_4N FKaDHlA MLIAiGg Congruent left error Normal 638.2258
706 139 LeftLarger PercIBExp1 Prime_9A Target_4N MejIbaD AdfjJaH Incongruent left correct Normal 566.5571
706 140 LeftLarger PercIBExp1 Prime_4N Target_9A jbLMGKc LmEKgdC Incongruent right correct Normal 893.3802
706 141 LeftLarger PercIBExp1 Prime_6A Target_4N cGBbEiM cCKikbe Incongruent left correct Normal 648.8953
706 142 LeftLarger PercIBExp1 Prime_4A Target_9N BIgkKDf MalgAIF Incongruent right correct Normal 660.6551
706 143 LeftLarger PercIBExp1 Prime_4N Target_6A AmHbkGa JlMjHcD Incongruent left error Normal 761.5915
706 144 LeftLarger PercIBExp1 Prime_4N Target_6N fAiekgH fIchBgl Incongruent right correct Normal 796.2804
706 145 LeftLarger PercIBExp1 Prime_1N Target_9A dgblAEG cKmjfAD Incongruent right correct Normal 712.9334
706 146 LeftLarger PercIBExp1 Prime_1A Target_1A MjJCgID AeadLkh Congruent right correct Normal 704.3579
706 147 LeftLarger PercIBExp1 Prime_9A Target_9N beDmaEc gKcCijB Congruent left correct Normal 618.9229
706 148 LeftLarger PercIBExp1 Prime_4A Target_1N CIBbMdg EMgBbKF Congruent right correct Normal 633.716
706 149 LeftLarger PercIBExp1 Prime_4A Target_4N iBdcDhH fkHmiaM Congruent right correct Normal 432.3917
706 150 LeftLarger PercIBExp1 Prime_1A Target_9N FBdlkge cjMGeFa Incongruent right correct Normal 460.1154
706 151 LeftLarger PercIBExp1 Prime_1A Target_9A CLIKlFe GImbJkB Incongruent right correct Normal 537.2392
706 152 LeftLarger PercIBExp1 Prime_9N Target_6A HCEJmAk dIiJKeM Congruent left correct Normal 652.2374
706 153 LeftLarger PercIBExp1 Prime_1A Target_6A MJiGjhA aIBLEDk Incongruent right correct Normal 783.2768
706 154 LeftLarger PercIBExp1 Prime_1A Target_4A ibfAmLa HKckMIg Congruent right correct Normal 557.0427
706 155 LeftLarger PercIBExp1 Prime_1N Target_6N kEDcmjI geMhDjE Incongruent left error Normal 680.9475
