sub trial_no group_type block_type prime target mask1 mask2 congruency key_press key_error time_error RT
201 1 LeftSmaller RTTaskAPrac Prime_1N Target_9N faIlEJM fBIHgFK Incongruent right correct Late 1007.438
201 2 LeftSmaller RTTaskAPrac Prime_1N Target_4N ILElCja eicHdkM Congruent left correct Normal 484.7644
201 3 LeftSmaller RTTaskAPrac Prime_9N Target_1A BkAJIgG hgHKjJe Incongruent left correct Normal 498.9318
201 4 LeftSmaller RTTaskAPrac Prime_1N Target_4A HlaLegd GLIKHkf Congruent left correct Normal 506.7341
201 5 LeftSmaller RTTaskAPrac Prime_1A Target_9N fmiCdIH AajIlkM Incongruent right correct Normal 530.8962
201 6 LeftSmaller RTTaskAPrac Prime_6A Target_6A bdjgHeJ AebimkK Congruent left error Normal 489.4348
201 7 LeftSmaller RTTaskAPrac Prime_1N Target_9N khdGIEf LFGIBJg Incongruent right correct Normal 471.9815
201 8 LeftSmaller RTTaskAPrac Prime_1A Target_4N IGAmBjM geBLKaD Congruent left correct Normal 481.9243
201 9 LeftSmaller RTTaskAPrac Prime_1N Target_9A aGKCeHf kejgDma Incongruent right correct Normal 520.9552
201 10 LeftSmaller RTTaskAPrac Prime_6A Target_6A gMdaAib mlgeHDb Congruent left error Normal 470.377
201 11 LeftSmaller RTTaskAPrac Prime_1N Target_1A aIHFhiL cIFdfBE Congruent left correct Normal 450.275
201 12 LeftSmaller RTTaskAPrac Prime_4N Target_6A FdeKcAC bEMdGAk Incongruent right correct Normal 517.2931
201 13 LeftSmaller RTTaskAPrac Prime_6N Target_6N LEmFiCe fAMaiBd Congruent right correct Normal 485.0178
201 14 LeftSmaller RTTaskAPrac Prime_9A Target_6N gbAjchD KhajfCg Congruent right correct Normal 390.8018
201 15 LeftSmaller RTTaskAPrac Prime_4A Target_4N DBFjHiM blMHLjG Congruent left correct Normal 601.094
201 16 LeftSmaller RTTaskAPrac Prime_6A Target_4N idMFHgK kLBmacC Incongruent left correct Normal 522.8876
201 17 LeftSmaller RTTaskAPrac Prime_9N Target_6A CgbIKac eiMDbCE Congruent right correct Normal 437.3057
201 18 LeftSmaller RTTaskAPrac Prime_6A Target_6A JBELkma bBDcGlg Congruent right correct Normal 390.4675
201 19 LeftSmaller RTTaskAPrac Prime_9N Target_9A gfFcehd fFDcHeK Congruent right correct Normal 432.888
201 20 LeftSmaller RTTaskAExp1 Prime_6A Target_9N LhHKlfc IFDGCjA Congruent right correct Normal 462.794
201 21 LeftSmaller RTTaskAExp1 Prime_4N Target_1N hemgdlK kdFAael Congruent left correct Normal 512.4877
201 22 LeftSmaller RTTaskAExp1 Prime_9A Target_4N BLbglAh dhHgFEc Incongruent left correct Normal 422.265
201 23 LeftSmaller RTTaskAExp1 Prime_1N Target_6A dMehaDl CbKchmd Incongruent left error Normal 560.538
201 24 LeftSmaller RTTaskAExp1 Prime_1A Target_4N mMjDlHc bHejLfK Congruent left correct Normal 477.1123
201 25 LeftSmaller RTTaskAExp1 Prime_6N Target_1N HMdBhif JMADelj Incongruent left correct Normal 555.624
201 26 LeftSmaller RTTaskAExp1 Prime_4N Target_9N GIJLbef JFLBKje Incongruent right correct Normal 460.6704
201 27 LeftSmaller RTTaskAExp1 Prime_4A Target_1N hcHaIjk BbGMKea Congruent left correct Normal 469.6449
201 28 LeftSmaller RTTaskAExp1 Prime_6A Target_4N FEGHBbe ECLBhAI Incongruent left correct Normal 451.7957
201 29 LeftSmaller RTTaskAExp1 Prime_6A Target_4A FeKdcjl dmieHhj Incongruent left correct Normal 660.1349
201 30 LeftSmaller RTTaskAExp1 Prime_9N Target_9N afLhKbJ DHCeldK Congruent right correct Normal 464.8709
201 31 LeftSmaller RTTaskAExp1 Prime_6A Target_9A jeChDlA glfHKAE Congruent right correct Normal 542.7634
201 32 LeftSmaller RTTaskAExp1 Prime_9N Target_4A gClFhED debDcGm Incongruent left correct Normal 501.0667
201 33 LeftSmaller RTTaskAExp1 Prime_4N Target_1A lIGKmCF jeCLEmb Congruent left correct Normal 468.2283
201 34 LeftSmaller RTTaskAExp1 Prime_6N Target_6N GCMEHKA KLIHcEG Congruent right correct Normal 581.5316
201 35 LeftSmaller RTTaskAExp1 Prime_9N Target_6A lAkfMDE fEhkmlg Congruent right correct Normal 429.9639
201 36 LeftSmaller RTTaskAExp1 Prime_4N Target_4A ifdlHBm lHiCLfI Congruent left correct Normal 439.9507
201 37 LeftSmaller RTTaskAExp1 Prime_9A Target_9A bjdDgci JGceAIF Congruent right correct Normal 450.7749
201 38 LeftSmaller RTTaskAExp1 Prime_9N Target_4N emgdDah DeAlECJ Incongruent left correct Normal 539.6521
201 39 LeftSmaller RTTaskAExp1 Prime_9N Target_9A mFDdlAB fLDCIMb Congruent right correct Normal 444.4849
201 40 LeftSmaller RTTaskAExp1 Prime_6N Target_9N GCFfBIb FlIEGCb Congruent right correct Normal 492.096
201 41 LeftSmaller RTTaskAExp1 Prime_6A Target_1A dgJkjAE FjCldkE Incongruent left correct Normal 403.1619
201 42 LeftSmaller RTTaskAExp1 Prime_6N Target_6A kifeHCB kBMgmIa Congruent right correct Normal 589.0935
201 43 LeftSmaller RTTaskAExp1 Prime_1A Target_1N BiLmJAc dHAeLEJ Congruent left correct Normal 426.6588
201 44 LeftSmaller RTTaskAExp1 Prime_1A Target_6A AEfCdHD DBmhMlb Incongruent right correct Normal 518.9337
201 45 LeftSmaller RTTaskAExp1 Prime_4N Target_9A JmeHbCj jdDABEf Incongruent right correct Normal 443.3182
201 46 LeftSmaller RTTaskAExp1 Prime_9A Target_6N MmCbGhH lDdHMmF Congruent right correct Normal 505.8901
201 47 LeftSmaller RTTaskAExp1 Prime_4A Target_1A hcElKBe LJDIceA Congruent left correct Normal 437.2217
201 48 LeftSmaller RTTaskAExp1 Prime_6A Target_6N JMhagdk fkHEBbF Congruent right correct Normal 586.3188
201 49 LeftSmaller RTTaskAExp1 Prime_6N Target_4N BmheidA gibEfMm Incongruent left correct Normal 836.2537
201 50 LeftSmaller RTTaskAExp1 Prime_1A Target_6N ECkFKmj fhcjElD Incongruent right correct Normal 585.0728
201 51 LeftSmaller RTTaskAExp1 Prime_4N Target_4N Bgmfalc EcGDmha Congruent left correct Normal 634.493
201 52 LeftSmaller RTTaskAExp1 Prime_4N Target_6N IeLDlGj LlCcDfi Incongruent right correct Normal 528.6654
201 53 LeftSmaller RTTaskAExp1 Prime_4A Target_4N GkAJCjg FcAGjJB Congruent left correct Normal 481.5783
201 54 LeftSmaller RTTaskAExp1 Prime_6A Target_1N mfLgGIe HkadBem Incongruent left correct Normal 506.8813
201 55 LeftSmaller RTTaskAExp1 Prime_1A Target_9A bBhJLiK MiCLEbH Incongruent right correct Normal 436.2909
201 56 LeftSmaller RTTaskAExp1 Prime_1A Target_9N MlgjACm MGeljHh Incongruent right correct Normal 499.1866
201 57 LeftSmaller RTTaskAExp1 Prime_4A Target_6N ecjMbaE fFCLDkB Incongruent right correct Normal 521.3862
201 58 LeftSmaller RTTaskAExp1 Prime_9N Target_6N DfagjHM fLaDgJK Congruent right correct Normal 400.3008
201 59 LeftSmaller RTTaskAExp1 Prime_1N Target_9A KjLAHgi JKlCEcf Incongruent right correct Normal 512.6867
201 60 LeftSmaller RTTaskAExp1 Prime_9A Target_1A bgkBLad hHikAaB Incongruent left correct Normal 421.973
201 61 LeftSmaller RTTaskAExp1 Prime_4A Target_9A cAgFmjJ gIMAkFK Incongruent right correct Normal 491.1213
201 62 LeftSmaller RTTaskAExp1 Prime_9N Target_1N bgLjHDm baGcMLd Incongruent left correct Normal 452.8197
201 63 LeftSmaller RTTaskAExp1 Prime_4N Target_6A hJDHIdc KmgICFH Incongruent right correct Normal 391.3586
201 64 LeftSmaller RTTaskAExp1 Prime_6N Target_4A McCiBgG hHeJBGI Incongruent left correct Normal 550.5102
201 65 LeftSmaller RTTaskAExp1 Prime_9A Target_9N iHEkAFj CAlGLBh Congruent right correct Normal 403.4327
201 66 LeftSmaller RTTaskAExp1 Prime_4A Target_6A EHFJKIM JEHackB Incongruent right correct Normal 435.1072
201 67 LeftSmaller RTTaskAExp1 Prime_1N Target_4N cGKhJlk KDflahj Congruent left correct Normal 533.5733
201 68 LeftSmaller RTTaskAExp1 Prime_6A Target_6A FaMjDHf mEeDACM Congruent right correct Normal 480.9465
201 69 LeftSmaller RTTaskAExp1 Prime_4A Target_9N IfFdmhG dfFgHeD Incongruent right correct Normal 534.5944
201 70 LeftSmaller RTTaskAExp1 Prime_1N Target_6A kfCGFei IBabEhc Incongruent right correct Normal 428.5148
201 71 LeftSmaller RTTaskAExp1 Prime_1N Target_1N jACHecD kKCJdEb Congruent left correct Normal 441.2712
201 72 LeftSmaller RTTaskAExp1 Prime_9A Target_1N jkdaAHi GFefHMl Incongruent left correct Normal 520.4003
201 73 LeftSmaller RTTaskAExp1 Prime_1N Target_4A iCIBGEm aheIFBA Congruent left correct Normal 525.0008
201 74 LeftSmaller RTTaskAExp1 Prime_1N Target_9N jFCcDBl iIJkFmh Incongruent right correct Normal 481.437
201 75 LeftSmaller RTTaskAExp1 Prime_9A Target_4A LajAMHh lfagiBI Incongruent left correct Normal 485.2096
201 76 LeftSmaller RTTaskAExp1 Prime_1A Target_4A mklbhcF EICDHkm Congruent left correct Normal 554.5146
201 77 LeftSmaller RTTaskAExp1 Prime_1N Target_1A gKAlFfb IKmkeGL Congruent left correct Normal 425.8165
201 78 LeftSmaller RTTaskAExp1 Prime_1A Target_1A IiKDLjg GmjbJDL Congruent left correct Normal 402.3888
201 79 LeftSmaller RTTaskAExp1 Prime_4A Target_4A eKEJkGh gMEjmID Congruent left correct Normal 418.2545
201 80 LeftSmaller RTTaskAExp1 Prime_9N Target_1A IDCjhbd jbLBCmE Incongruent left correct Normal 406.0652
201 81 LeftSmaller RTTaskAExp1 Prime_6N Target_1A kDlBHKi CdIkhaj Incongruent left correct Normal 405.8792
201 82 LeftSmaller RTTaskAExp1 Prime_6N Target_9A dfGEleb KeljgmM Congruent right correct Normal 454.1003
201 83 LeftSmaller RTTaskAExp1 Prime_1N Target_6N mdjGaAE gaDmlKb Incongruent right correct Normal 554.6539
201 84 LeftSmaller RTTaskAExp1 Prime_9A Target_6A BLIhgai CJbMfDk Congruent right correct Normal 425.2891
201 85 LeftSmaller RTTaskAExp2 Prime_4N Target_9A dAaDckm bJdFciG Incongruent right correct Normal 435.9778
201 86 LeftSmaller RTTaskAExp2 Prime_1N Target_1N GmIkhAe KehAklf Congruent left correct Normal 482.6033
201 87 LeftSmaller RTTaskAExp2 Prime_1N Target_6N iDABedm jmhECFK Incongruent right correct Normal 463.421
201 88 LeftSmaller RTTaskAExp2 Prime_9A Target_1A JALIjDG gGLIBam Incongruent left correct Normal 415.3351
201 89 LeftSmaller RTTaskAExp2 Prime_1N Target_9A jBKfMiL bhIcMDJ Incongruent right correct Normal 361.2261
201 90 LeftSmaller RTTaskAExp2 Prime_4N Target_9N HBheKlD fdmLIKJ Incongruent right correct Normal 464.7992
201 91 LeftSmaller RTTaskAExp2 Prime_1N Target_6A ahLfJiG FkaCcIj Incongruent right correct Normal 500.7189
201 92 LeftSmaller RTTaskAExp2 Prime_9N Target_4N miGHegJ aDcdAFm Incongruent left correct Normal 492.2715
201 93 LeftSmaller RTTaskAExp2 Prime_4N Target_1A bGLgdJj BMcClhj Congruent left correct Normal 426.8986
201 94 LeftSmaller RTTaskAExp2 Prime_9A Target_9N IFgfecG JBghjFl Congruent right correct Normal 404.0723
201 95 LeftSmaller RTTaskAExp2 Prime_1A Target_4N jlCDFdK BHCidhF Congruent left correct Normal 479.3707
201 96 LeftSmaller RTTaskAExp2 Prime_4N Target_6A CmFdGJh kBdmhFI Incongruent right correct Normal 475.4016
201 97 LeftSmaller RTTaskAExp2 Prime_9N Target_1N caGCfiB ghedaKm Incongruent left correct Normal 413.9628
201 98 LeftSmaller RTTaskAExp2 Prime_9N Target_1A MAldhEJ HcabBjF Incongruent right error Normal 393.6916
201 99 LeftSmaller RTTaskAExp2 Prime_9A Target_1N fIjmDJL eaIijcL Incongruent left correct Normal 472.7693
201 100 LeftSmaller RTTaskAExp2 Prime_9N Target_9N GMiEIlc MJeFDiG Congruent right correct Normal 406.5998
201 101 LeftSmaller RTTaskAExp2 Prime_9A Target_4N kHajeIA eGKMfIB Incongruent left correct Normal 496.3922
201 102 LeftSmaller RTTaskAExp2 Prime_6A Target_1N eEDmdIk AJHCdha Incongruent left correct Normal 489.289
201 103 LeftSmaller RTTaskAExp2 Prime_1N Target_4N CmKMbId KkamFDM Congruent left correct Normal 565.8294
201 104 LeftSmaller RTTaskAExp2 Prime_9N Target_6N aGeLAkl bdKDjJA Congruent right correct Normal 495.8853
201 105 LeftSmaller RTTaskAExp2 Prime_9N Target_1A JILEiFd DhjCAdk Incongruent left correct Normal 437.7437
201 106 LeftSmaller RTTaskAExp2 Prime_1N Target_4A AHMIGKa CKeDLAf Congruent left correct Normal 481.4629
201 107 LeftSmaller RTTaskAExp2 Prime_6A Target_4A lDbICHE iFDcmlA Incongruent left correct Normal 512.2517
201 108 LeftSmaller RTTaskAExp2 Prime_6A Target_6N AcDmGek MhdGJkB Congruent right correct Normal 483.6671
201 109 LeftSmaller RTTaskAExp2 Prime_4A Target_6N ihLDAbm ebmJkIC Incongruent right correct Normal 397.0832
201 110 LeftSmaller RTTaskAExp2 Prime_6N Target_9A AmbliDg EHemCfk Congruent right correct Normal 515.9935
201 111 LeftSmaller RTTaskAExp2 Prime_1A Target_9A JLigeDb efkiDbF Incongruent right correct Normal 404.4198
201 112 LeftSmaller RTTaskAExp2 Prime_1A Target_1A BGbefcJ MJgBmah Congruent left correct Normal 404.0492
201 113 LeftSmaller RTTaskAExp2 Prime_9A Target_4A gMaiELI jICGaHi Incongruent left correct Normal 517.0843
201 114 LeftSmaller RTTaskAExp2 Prime_9N Target_6A hAdgjFJ GHIkBgE Congruent right correct Normal 454.535
201 115 LeftSmaller RTTaskAExp2 Prime_1N Target_1A mGHAIEc cdkEgHf Congruent left correct Normal 426.6488
201 116 LeftSmaller RTTaskAExp2 Prime_4A Target_4N AcealdH iKFmJCl Congruent left correct Normal 526.7325
201 117 LeftSmaller RTTaskAExp2 Prime_4N Target_4N ljKAfCh liaBeAd Congruent left correct Normal 492.6577
201 118 LeftSmaller RTTaskAExp2 Prime_1N Target_9N bAGICJg gdKFcka Incongruent right correct Normal 434.4538
201 119 LeftSmaller RTTaskAExp2 Prime_6A Target_9A gkjGEdh LfMiFeJ Congruent right correct Normal 469.1914
201 120 LeftSmaller RTTaskAExp2 Prime_9N Target_9A hBAgFlM CcIfHAg Congruent right correct Normal 411.3851
201 121 LeftSmaller RTTaskAExp2 Prime_6N Target_4N fIgiCbH HgBkLaA Incongruent left correct Normal 418.9375
201 122 LeftSmaller RTTaskAExp2 Prime_6A Target_4N fmlCbic kFmKcIG Incongruent left correct Normal 503.9758
201 123 LeftSmaller RTTaskAExp2 Prime_4N Target_1N kCHLldA fJBdeKk Congruent left correct Normal 504.5125
201 124 LeftSmaller RTTaskAExp2 Prime_4N Target_6N FMGgeCA miDGHgC Incongruent right correct Normal 455.5645
201 125 LeftSmaller RTTaskAExp2 Prime_4A Target_1A aBMkDch jdkhlmA Congruent left correct Normal 397.0615
201 126 LeftSmaller RTTaskAExp2 Prime_4A Target_9A kdHIEJl eDfkAMj Incongruent right correct Normal 389.6162
201 127 LeftSmaller RTTaskAExp2 Prime_4A Target_4A AbDlcaB AMiEfFG Congruent left correct Normal 392.6726
201 128 LeftSmaller RTTaskAExp2 Prime_4A Target_1N aMChmHj IcKhkAe Congruent left correct Normal 441.6239
201 129 LeftSmaller RTTaskAExp2 Prime_6A Target_6A hHbCaiD JkdajMg Congruent right correct Normal 482.8802
201 130 LeftSmaller RTTaskAExp2 Prime_6N Target_6N eLdEjMA cBdDiFm Congruent right correct Normal 458.8865
201 131 LeftSmaller RTTaskAExp2 Prime_1A Target_1N IBeKbhM laigcFI Congruent left correct Normal 419.0589
201 132 LeftSmaller RTTaskAExp2 Prime_4N Target_4A bfekJhL iJCdgBf Congruent left correct Normal 416.3737
201 133 LeftSmaller RTTaskAExp2 Prime_6N Target_6A KefAaIl jbdlgfD Congruent right correct Normal 381.1686
201 134 LeftSmaller RTTaskAExp2 Prime_9N Target_4A EFDAlce GeHCDKA Incongruent left correct Normal 346.5633
201 135 LeftSmaller RTTaskAExp2 Prime_4A Target_6A hleFLgH KGaCIFL Incongruent right correct Normal 323.3487
201 136 LeftSmaller RTTaskAExp2 Prime_6N Target_9N BjaMeIg DACBjgG Congruent right correct Normal 430.1639
201 137 LeftSmaller RTTaskAExp2 Prime_9A Target_6N GcebfiD kjJKdDF Congruent right correct Normal 376.1247
201 138 LeftSmaller RTTaskAExp2 Prime_1A Target_4A JMjefha bCFAEBm Congruent left correct Normal 472.7358
201 139 LeftSmaller RTTaskAExp2 Prime_1A Target_9N gEcjLAb HiBbCIl Incongruent right correct Normal 484.1378
201 140 LeftSmaller RTTaskAExp2 Prime_9A Target_9A HBLDjCh mKBIiJa Congruent right correct Normal 463.6296
201 141 LeftSmaller RTTaskAExp2 Prime_1A Target_6N LEgfMCH hIdFbCm Incongruent right correct Normal 493.3486
201 142 LeftSmaller RTTaskAExp2 Prime_6A Target_9N EFHCieb KCdfFIB Congruent right correct Normal 515.1458
201 143 LeftSmaller RTTaskAExp2 Prime_6N Target_1N jgLCmlk jDdgHJm Incongruent left correct Normal 474.6751
201 144 LeftSmaller RTTaskAExp2 Prime_6N Target_4A bciKLDE GJeDFbm Incongruent left correct Normal 483.1899
201 145 LeftSmaller RTTaskAExp2 Prime_6A Target_1A bMhkDjm EAaLICc Incongruent left correct Normal 443.0014
201 146 LeftSmaller RTTaskAExp2 Prime_6N Target_1A dgEeLbA kJKGaIj Incongruent left correct Normal 390.1622
201 147 LeftSmaller RTTaskAExp2 Prime_1A Target_6A MfCiFIJ eFIhjJG Incongruent right correct Normal 413.4598
201 148 LeftSmaller RTTaskAExp2 Prime_9A Target_6A CDkMclA GIjalEb Congruent right correct Normal 386.5047
201 149 LeftSmaller RTTaskAExp2 Prime_4A Target_9N fEDBLMG gIKkiab Incongruent right correct Normal 424.0937
201 150 LeftLarger RTTaskBPrac Prime_9N Target_9N FcHkjGm KfGeIkE Congruent left correct Normal 505.177
201 151 LeftLarger RTTaskBPrac Prime_1A Target_9A jGJgBKF mCckLHG Incongruent left correct Normal 383.5911
201 152 LeftLarger RTTaskBPrac Prime_6A Target_4A HECMilc fjacgEJ Incongruent right correct Normal 389.7304
201 153 LeftLarger RTTaskBPrac Prime_6N Target_4N BbHDeiC hmbAlac Incongruent right correct Normal 490.1256
201 154 LeftLarger RTTaskBPrac Prime_9A Target_9A ECbfaKI dCLJikl Congruent left correct Normal 374.6967
201 155 LeftLarger RTTaskBPrac Prime_6A Target_1A FCfgeLh heKdLHC Incongruent right correct Normal 396.9969
201 156 LeftLarger RTTaskBPrac Prime_9A Target_9N CEgGefa FHiJbLG Congruent left correct Normal 364.2783
201 157 LeftLarger RTTaskBPrac Prime_4N Target_4N JcGlIHE IbFLkDK Congruent right correct Normal 549.4357
201 158 LeftLarger RTTaskBPrac Prime_1N Target_6N FeILfjD JgHbLBE Incongruent left correct Normal 551.0582
201 159 LeftLarger RTTaskBPrac Prime_6A Target_6A kfgBliC gmKdjfc Congruent left correct Normal 474.7681
201 160 LeftLarger RTTaskBPrac Prime_1A Target_6A lMFdaDC dBLiEeF Incongruent left correct Normal 419.4191
201 161 LeftLarger RTTaskBPrac Prime_4A Target_1A Bkbmlgi gkcIbHA Congruent right correct Normal 354.2198
201 162 LeftLarger RTTaskBPrac Prime_4A Target_1N hlcfILC LiHclkE Congruent right correct Normal 503.0092
201 163 LeftLarger RTTaskBPrac Prime_9A Target_6N gJfmMAG bhBiHla Congruent left correct Normal 556.559
201 164 LeftLarger RTTaskBPrac Prime_6A Target_6N DFdGHIC CkImJGb Congruent left correct Normal 485.7276
201 165 LeftLarger RTTaskBPrac Prime_1A Target_4A IAbCdcK FIDGbdJ Congruent right correct Normal 554.3172
201 166 LeftLarger RTTaskBExp1 Prime_1N Target_6N EHhlMBC edHGMKi Incongruent left correct Normal 503.5837
201 167 LeftLarger RTTaskBExp1 Prime_9N Target_6A hDfKeLa lekfEBg Congruent left correct Normal 538.2889
201 168 LeftLarger RTTaskBExp1 Prime_9A Target_1A JcMKkmb MDaEImH Incongruent right correct Normal 323.3423
201 169 LeftLarger RTTaskBExp1 Prime_6N Target_6N iMIKmfG kMILeKA Congruent left correct Normal 302.9052
201 170 LeftLarger RTTaskBExp1 Prime_6N Target_9N DhFEbCB LBebICJ Congruent left correct Normal 443.794
201 171 LeftLarger RTTaskBExp1 Prime_6A Target_4A cgFALJH GKiIkjm Incongruent right correct Normal 510.2245
201 172 LeftLarger RTTaskBExp1 Prime_4A Target_6N GBMcEJb JIEldei Incongruent left correct Normal 401.3696
201 173 LeftLarger RTTaskBExp1 Prime_6A Target_9A gcIfjCE FadKgCm Congruent left correct Normal 390.7631
201 174 LeftLarger RTTaskBExp1 Prime_1N Target_9A dMJjIAH fDAIMei Incongruent left correct Normal 354.0906
201 175 LeftLarger RTTaskBExp1 Prime_6A Target_9N kLGIDgB HKMhaJm Congruent left correct Normal 430.6202
201 176 LeftLarger RTTaskBExp1 Prime_4A Target_9N feamgCj diIFDme Incongruent left correct Normal 466.5202
201 177 LeftLarger RTTaskBExp1 Prime_4A Target_1A jhMJgBa BgGfcIK Congruent right correct Normal 448.0741
201 178 LeftLarger RTTaskBExp1 Prime_9N Target_9N GLkKdlg dJfkelh Congruent left correct Normal 333.2321
201 179 LeftLarger RTTaskBExp1 Prime_9N Target_1A lfdmEaH eEgJkHG Incongruent right correct Normal 497.505
201 180 LeftLarger RTTaskBExp1 Prime_1N Target_4A bmKBCjJ AldbCeL Congruent right correct Normal 481.7078
201 181 LeftLarger RTTaskBExp1 Prime_1A Target_9A ALaJFcD eGgdhLf Incongruent left correct Normal 387.8618
201 182 LeftLarger RTTaskBExp1 Prime_6A Target_4N IdDeiJG LIFBbmJ Incongruent right correct Normal 481.0179
201 183 LeftLarger RTTaskBExp1 Prime_6A Target_1N fCHBIeM GjAeiKf Incongruent right correct Normal 410.0718
201 184 LeftLarger RTTaskBExp1 Prime_4N Target_4A GbjfAKH hIMbfKa Congruent right correct Normal 369.8478
201 185 LeftLarger RTTaskBExp1 Prime_9A Target_9A LMFmGIJ dalfHEc Congruent left correct Normal 418.3945
201 186 LeftLarger RTTaskBExp1 Prime_4A Target_9A fDhmBcb FEhBflD Incongruent left correct Normal 450.4321
201 187 LeftLarger RTTaskBExp1 Prime_4A Target_4A biKEeMj GMdFBiL Congruent right correct Normal 413.0744
201 188 LeftLarger RTTaskBExp1 Prime_4N Target_9A hgmHkIB GLkFdEj Incongruent left correct Normal 390.2293
201 189 LeftLarger RTTaskBExp1 Prime_9A Target_1N imIgKHa gjiJfIG Incongruent right correct Normal 487.7887
201 190 LeftLarger RTTaskBExp1 Prime_6A Target_6N MKDfJIE GDekKhf Congruent left correct Normal 449.5876
201 191 LeftLarger RTTaskBExp1 Prime_4N Target_9N FJbefHE eHaIcFg Incongruent left correct Normal 504.494
201 192 LeftLarger RTTaskBExp1 Prime_6N Target_6A fgicHjA BmGAeLc Congruent right error Normal 378.7927
201 193 LeftLarger RTTaskBExp1 Prime_4N Target_6N miHbdDf afjJDmM Incongruent left correct Normal 672.0438
201 194 LeftLarger RTTaskBExp1 Prime_1N Target_1N fAaLCHF JlKBEaM Congruent right correct Normal 554.457
201 195 LeftLarger RTTaskBExp1 Prime_9N Target_6N jmDIkMc dMfeLFA Congruent left correct Normal 485.4035
201 196 LeftLarger RTTaskBExp1 Prime_1N Target_1A mFhDfHe gcBDdjk Congruent right correct Normal 425.3727
201 197 LeftLarger RTTaskBExp1 Prime_9A Target_6N cbmDjgF JmLkdbK Congruent left correct Normal 379.8791
201 198 LeftLarger RTTaskBExp1 Prime_6N Target_4N daKHEFb MIiLBAf Incongruent right correct Normal 588.4287
201 199 LeftLarger RTTaskBExp1 Prime_9N Target_4N lMbcdDF BEFiLeD Incongruent right correct Normal 653.7084
201 200 LeftLarger RTTaskBExp1 Prime_9N Target_1N BAkbMcD eALFaEc Incongruent right correct Normal 414.2648
201 201 LeftLarger RTTaskBExp1 Prime_9N Target_9A gFKIEJf cFGMKAh Congruent left correct Normal 364.5545
201 202 LeftLarger RTTaskBExp1 Prime_1A Target_1A CciFHEh hkEfdlb Congruent right correct Normal 338.8056
201 203 LeftLarger RTTaskBExp1 Prime_9A Target_6A MKbLJdf EIGChbi Congruent left correct Normal 564.6228
201 204 LeftLarger RTTaskBExp1 Prime_6N Target_9A fCHLDih gAkGfhI Congruent left correct Normal 432.9014
201 205 LeftLarger RTTaskBExp1 Prime_4N Target_1N jkiBGJA JMLDjFh Congruent right correct Normal 468.3078
201 206 LeftLarger RTTaskBExp1 Prime_4N Target_4N jiHcImM lkAhCiJ Congruent right correct Normal 499.4377
201 207 LeftLarger RTTaskBExp1 Prime_6N Target_1N mfEBAIl eCHmhla Incongruent right correct Normal 524.911
201 208 LeftLarger RTTaskBExp1 Prime_1N Target_9N Hdlfgmj mMCFKAG Incongruent left correct Normal 502.0699
201 209 LeftLarger RTTaskBExp1 Prime_4N Target_1A GHMKEla imeEgfa Congruent right correct Normal 355.9361
201 210 LeftLarger RTTaskBExp1 Prime_4N Target_6A diCbkJg GHfgKLl Incongruent left correct Normal 403.983
201 211 LeftLarger RTTaskBExp1 Prime_6N Target_4A MfkbaJK KHCmile Incongruent right correct Normal 425.0429
201 212 LeftLarger RTTaskBExp1 Prime_6A Target_6A iECdgLG AElgfaH Congruent left correct Normal 401.3421
201 213 LeftLarger RTTaskBExp1 Prime_6N Target_6A BidKDEe bKLFmBH Congruent left correct Normal 411.0071
201 214 LeftLarger RTTaskBExp1 Prime_6A Target_1A gIdMKHj iKcCfma Incongruent right correct Normal 407.3163
201 215 LeftLarger RTTaskBExp1 Prime_1A Target_1N kADbJHl kmlGCHB Congruent right correct Normal 497.7787
201 216 LeftLarger RTTaskBExp1 Prime_4A Target_1N eJiIlAC DaljACb Congruent right correct Normal 494.5115
201 217 LeftLarger RTTaskBExp1 Prime_9A Target_9N jDJAMFg MdlDkcE Congruent left correct Normal 469.6247
201 218 LeftLarger RTTaskBExp1 Prime_1A Target_4A iKkeLaC iIhBDJk Congruent right correct Normal 398.1929
201 219 LeftLarger RTTaskBExp1 Prime_9A Target_4N dfeFGMb HeJfGDi Incongruent right correct Normal 552.7416
201 220 LeftLarger RTTaskBExp1 Prime_4A Target_4N iMDlKCB amgMcfe Congruent right correct Normal 420.7857
201 221 LeftLarger RTTaskBExp1 Prime_1A Target_6N hAGcFBb aGHFbec Incongruent left correct Normal 548.6903
201 222 LeftLarger RTTaskBExp1 Prime_6N Target_1A aCKkBbM mfebahC Incongruent right correct Normal 391.0652
201 223 LeftLarger RTTaskBExp1 Prime_4A Target_6A IJiDMfm kagGLAM Incongruent left correct Normal 482.4097
201 224 LeftLarger RTTaskBExp1 Prime_1N Target_4N CkbBhKc DfCehml Congruent right correct Normal 667.1913
201 225 LeftLarger RTTaskBExp1 Prime_1N Target_6A IMdcJgL MDHhdEA Incongruent left correct Normal 405.0125
201 226 LeftLarger RTTaskBExp1 Prime_1A Target_6A KEaFDdm afGCDMg Incongruent left correct Normal 384.6073
201 227 LeftLarger RTTaskBExp1 Prime_9A Target_4A fCGkhDI deFlDcE Incongruent right correct Normal 414.78
201 228 LeftLarger RTTaskBExp1 Prime_1A Target_4N FKJCMiH cmHaJgi Congruent right correct Normal 469.7692
201 229 LeftLarger RTTaskBExp1 Prime_9N Target_4A dIEMcmJ dKbaBIh Incongruent right correct Normal 419.0225
201 230 LeftLarger RTTaskBExp1 Prime_1A Target_9N achgHFl JEiCmfK Incongruent left correct Normal 509.2988
201 231 LeftLarger RTTaskBExp2 Prime_6N Target_4N ilbABKj jkLdgCM Incongruent right correct Normal 488.4319
201 232 LeftLarger RTTaskBExp2 Prime_6N Target_9A kDCHMli gGjeiCa Congruent left correct Normal 368.9596
201 233 LeftLarger RTTaskBExp2 Prime_1A Target_1A fjDBecm meiJCGk Congruent right correct Normal 356.8917
201 234 LeftLarger RTTaskBExp2 Prime_1N Target_6A jfghdMl fCEMKdh Incongruent right error Late 7982.057
201 235 LeftLarger RTTaskBExp2 Prime_4A Target_6A aKjilfG hFKcgGm Incongruent right error Late 10306.96
201 236 LeftLarger RTTaskBExp2 Prime_4N Target_4A hIeEbMm aMkgecb Congruent right correct Normal 493.9934
201 237 LeftLarger RTTaskBExp2 Prime_9N Target_4A LlgHEba lHKdfMB Incongruent right correct Normal 421.5217
201 238 LeftLarger RTTaskBExp2 Prime_9N Target_1N aiMjJFm MjIeAkd Incongruent right correct Normal 488.0444
201 239 LeftLarger RTTaskBExp2 Prime_9N Target_9N cfgjCGi kcBmhFl Congruent right error Late 10609.73
201 240 LeftLarger RTTaskBExp2 Prime_4N Target_9N cMGdgme hMIAklb Incongruent left correct Normal 655.5955
201 241 LeftLarger RTTaskBExp2 Prime_4N Target_6A IGEegmf ADjKHiC Incongruent left correct Late 11272.99
201 242 LeftLarger RTTaskBExp2 Prime_1N Target_4A ckeGJCH MmIEBcj Congruent right correct Normal 466.3902
201 243 LeftLarger RTTaskBExp2 Prime_9N Target_9A fHbdjga fLdBeKM Congruent left correct Normal 447.6551
201 244 LeftLarger RTTaskBExp2 Prime_6N Target_1N bcIlhmJ dEImCJF Incongruent right correct Normal 455.7096
201 245 LeftLarger RTTaskBExp2 Prime_9A Target_4N hBAedcC BgjFklH Incongruent right correct Normal 401.3528
201 246 LeftLarger RTTaskBExp2 Prime_1A Target_4N bgmjAGB lEHemBd Congruent right correct Normal 393.0523
201 247 LeftLarger RTTaskBExp2 Prime_6N Target_4A FdjcGhi hCKlMgc Incongruent right correct Normal 374.5735
201 248 LeftLarger RTTaskBExp2 Prime_4A Target_4N bClJIDm ECaBlKF Congruent right correct Normal 796.62
201 249 LeftLarger RTTaskBExp2 Prime_9A Target_9A DELFHdf lfLMiCH Congruent left correct Normal 497.797
201 250 LeftLarger RTTaskBExp2 Prime_4A Target_6N eAKahMd kKlfeAa Incongruent left correct Normal 483.5819
201 251 LeftLarger RTTaskBExp2 Prime_4N Target_1A EjIdhAl dAilhIc Congruent right correct Normal 563.2538
201 252 LeftLarger RTTaskBExp2 Prime_6N Target_9N LgDHGfM IBgiGAL Congruent left correct Normal 472.4224
201 253 LeftLarger RTTaskBExp2 Prime_4A Target_1N hCgBlHf gJDkFai Congruent right correct Normal 464.3069
201 254 LeftLarger RTTaskBExp2 Prime_4N Target_6N GEBcjdI LKmfdik Incongruent left correct Normal 518.9836
201 255 LeftLarger RTTaskBExp2 Prime_1N Target_1A eDalfhG jCLAKBE Congruent right correct Normal 451.9166
201 256 LeftLarger RTTaskBExp2 Prime_1N Target_9N DBamlCK IjkMaAh Incongruent left correct Normal 384.6887
201 257 LeftLarger RTTaskBExp2 Prime_9A Target_1A dmBeIfl CjMihGI Incongruent right correct Normal 429.372
201 258 LeftLarger RTTaskBExp2 Prime_1N Target_9A DfkHAFi kMIEmba Incongruent left correct Normal 348.6489
201 259 LeftLarger RTTaskBExp2 Prime_4N Target_6A aiILehf BJDlmME Incongruent left correct Normal 761.134
201 260 LeftLarger RTTaskBExp2 Prime_9N Target_6A lMLImAb MGkAlfd Congruent left correct Normal 463.2002
201 261 LeftLarger RTTaskBExp2 Prime_6A Target_6N KaIgDij cGBaEgf Congruent left correct Normal 455.6251
201 262 LeftLarger RTTaskBExp2 Prime_6A Target_4N FjDegfh CMFELji Incongruent right correct Normal 502.1851
201 263 LeftLarger RTTaskBExp2 Prime_4A Target_1A fHaKElh JeHEGcg Congruent right correct Normal 601.4849
201 264 LeftLarger RTTaskBExp2 Prime_1A Target_1N DIACKbl ELKMbmI Congruent right correct Normal 431.9228
201 265 LeftLarger RTTaskBExp2 Prime_6A Target_4A mHadEjc lgKDkfh Incongruent right correct Normal 604.9457
201 266 LeftLarger RTTaskBExp2 Prime_9N Target_1A lFcdgmb afiAKdB Incongruent right correct Normal 478.5989
201 267 LeftLarger RTTaskBExp2 Prime_4A Target_9A IhgMedc GELiIcK Incongruent left correct Normal 646.0211
201 268 LeftLarger RTTaskBExp2 Prime_1A Target_4A FAEbhId JbcjaKL Congruent right correct Normal 436.4245
201 269 LeftLarger RTTaskBExp2 Prime_6A Target_1A JFejlHa DhFglAB Incongruent right correct Normal 525.0558
201 270 LeftLarger RTTaskBExp2 Prime_1A Target_9N imfdFbK dHgGKAE Incongruent left correct Normal 579.5589
201 271 LeftLarger RTTaskBExp2 Prime_9N Target_9N GCLBkhd McCeBdL Congruent left correct Normal 708.686
201 272 LeftLarger RTTaskBExp2 Prime_4A Target_9N gfKcdMC hLmdgMi Incongruent left correct Late 1049.707
201 273 LeftLarger RTTaskBExp2 Prime_9A Target_1N dabAHiD LmdJMkj Incongruent right correct Normal 373.4219
201 274 LeftLarger RTTaskBExp2 Prime_1N Target_6N jacDeJE HMglfAe Incongruent left correct Normal 521.589
201 275 LeftLarger RTTaskBExp2 Prime_4N Target_9A JGlfmKg EAbkfcL Incongruent left correct Normal 489.5567
201 276 LeftLarger RTTaskBExp2 Prime_1N Target_4N MLlcjJD MHBaGcJ Congruent right correct Normal 681.2918
201 277 LeftLarger RTTaskBExp2 Prime_6N Target_1A jIKGcik FcfHbCj Incongruent right correct Normal 504.0876
201 278 LeftLarger RTTaskBExp2 Prime_1N Target_1N AmGhiLC gjaKHcG Congruent right correct Normal 426.4842
201 279 LeftLarger RTTaskBExp2 Prime_9A Target_6A BJblaLC cIJjdeK Congruent left correct Late 3951.642
201 280 LeftLarger RTTaskBExp2 Prime_6N Target_6N JicBeHg IbAmdcj Congruent right error Late 8258.517
201 281 LeftLarger RTTaskBExp2 Prime_6A Target_9A hBbALai DBmlLbK Congruent left correct Normal 435.0961
201 282 LeftLarger RTTaskBExp2 Prime_1A Target_6A HgiKdkm AbMjhGC Incongruent left correct Normal 464.6645
201 283 LeftLarger RTTaskBExp2 Prime_6N Target_6A MlGkKLf bhaKLkI Congruent left correct Normal 398.9478
201 284 LeftLarger RTTaskBExp2 Prime_9N Target_6N LDcglKk FIAMEik Congruent left correct Normal 437.7373
201 285 LeftLarger RTTaskBExp2 Prime_1A Target_9A gjicBfI LeckEMA Incongruent left correct Normal 369.0264
201 286 LeftLarger RTTaskBExp2 Prime_6A Target_9N ADgmKcj FCidhgK Congruent left correct Normal 388.7692
201 287 LeftLarger RTTaskBExp2 Prime_4N Target_4N diekjch filIFHA Congruent right correct Normal 450.0771
201 288 LeftLarger RTTaskBExp2 Prime_1A Target_6N flILabH dHeMDjc Incongruent left correct Normal 617.8734
201 289 LeftLarger RTTaskBExp2 Prime_9A Target_6A aCgEmfl eGdiElA Congruent left correct Normal 405.2542
201 290 LeftLarger RTTaskBExp2 Prime_1N Target_6A JBKlfLM laCchjD Incongruent left correct Normal 493.2121
201 291 LeftLarger RTTaskBExp2 Prime_4A Target_9N JMchfek MIDkchL Incongruent left correct Normal 682.1402
201 292 LeftLarger RTTaskBExp2 Prime_9A Target_9N aDFdEfH hAkbHML Congruent left correct Normal 441.3149
201 293 LeftLarger RTTaskBExp2 Prime_6A Target_6A CklfELm BkIhdKl Congruent left correct Normal 451.7186
201 294 LeftLarger RTTaskBExp2 Prime_6A Target_1N LjKDfkd GfelgmA Incongruent right correct Normal 589.8724
201 295 LeftLarger RTTaskBExp2 Prime_4A Target_4A LCJaMeh bFchaDK Congruent right correct Normal 569.5287
201 296 LeftLarger RTTaskBExp2 Prime_4N Target_1N jAmHfEJ FeDhCGj Congruent right correct Normal 532.2032
201 297 LeftLarger RTTaskBExp2 Prime_4A Target_6A IdfjBaJ eFCcgGi Incongruent left correct Normal 579.0065
201 298 LeftLarger RTTaskBExp2 Prime_6N Target_6N elbHkhi JMGmdDC Congruent left correct Normal 563.7466
201 299 LeftLarger RTTaskBExp2 Prime_9N Target_4N LFiCIcK eALGcHE Incongruent right correct Normal 556.3561
201 300 LeftLarger RTTaskBExp2 Prime_9A Target_4A dLajiBl ELdgAfc Incongruent right correct Normal 431.2292
201 301 LeftLarger RTTaskBExp2 Prime_9A Target_6N IiahMDl HMmjFbg Congruent left correct Normal 541.0371
202 1 LeftSmaller RTTaskAPrac Prime_6N Target_9A ibhEjIB EkhMHmf Congruent right correct Normal 881.3688
202 2 LeftSmaller RTTaskAPrac Prime_6N Target_4N kJjhKEb GKjdEbJ Incongruent right error Late 18601.08
202 3 LeftSmaller RTTaskAPrac Prime_6N Target_6A LdjBiMe MHgFlfa Congruent right correct Normal 906.2702
202 4 LeftSmaller RTTaskAPrac Prime_6A Target_4N jBAhmHb BdLhCaE Incongruent right error Late 11853.59
202 5 LeftSmaller RTTaskAPrac Prime_9N Target_6N dacCBjK DcKLmhl Congruent right correct Normal 602.025
202 6 LeftSmaller RTTaskAPrac Prime_6A Target_4A AkhCieF GamkdBE Incongruent left correct Normal 687.1634
202 7 LeftSmaller RTTaskAPrac Prime_4A Target_6A FMkAKjd eKmBbHg Incongruent right correct Normal 421.6099
202 8 LeftSmaller RTTaskAPrac Prime_4N Target_4A gJjcKih KgMEdjL Congruent left correct Normal 368.502
202 9 LeftSmaller RTTaskAPrac Prime_6A Target_9N CLaeJAi hGkjaEd Congruent right correct Normal 490.4311
202 10 LeftSmaller RTTaskAPrac Prime_4A Target_9A ABCimhK kbHEmcM Incongruent right correct Normal 464.5761
202 11 LeftSmaller RTTaskAPrac Prime_4N Target_1A cElIKDa LgMGKDi Congruent left correct Normal 530.7482
202 12 LeftSmaller RTTaskAPrac Prime_4N Target_1N cblehkI GBchKlF Congruent left correct Normal 739.2813
202 13 LeftSmaller RTTaskAPrac Prime_4N Target_9N FKlhAkD jakdebJ Incongruent right correct Normal 457.3408
202 14 LeftSmaller RTTaskAPrac Prime_9A Target_1A FjGlgbC BbjFEdA Incongruent left correct Normal 633.0216
202 15 LeftSmaller RTTaskAPrac Prime_6N Target_4N BHaGJFh dkBlLFA Incongruent left correct Late 3159.625
202 16 LeftSmaller RTTaskAPrac Prime_6N Target_1A DaBMHCh KceCGEk Incongruent left correct Normal 510.7901
202 17 LeftSmaller RTTaskAPrac Prime_6N Target_4N gjhJKcF hgmEfJC Incongruent left correct Normal 576.3062
202 18 LeftSmaller RTTaskAPrac Prime_1A Target_1A gFIhCGL CeLdJKl Congruent left correct Normal 435.641
202 19 LeftSmaller RTTaskAPrac Prime_6A Target_4N LMaKBFE abIHELh Incongruent left correct Normal 473.6466
202 20 LeftSmaller RTTaskAExp1 Prime_6N Target_4N idlEbDf eMGEmLk Incongruent left correct Normal 471.1033
202 21 LeftSmaller RTTaskAExp1 Prime_4N Target_4A EBfGecC aHKjlCc Congruent left correct Normal 377.2615
202 22 LeftSmaller RTTaskAExp1 Prime_6N Target_6N fIDChbL JlkAIHC Congruent right correct Normal 564.4202
202 23 LeftSmaller RTTaskAExp1 Prime_6N Target_9N FfciJke GABhFHa Congruent right correct Normal 538.5956
202 24 LeftSmaller RTTaskAExp1 Prime_1N Target_9N HJaGljK KdCifDG Incongruent right correct Normal 472.4087
202 25 LeftSmaller RTTaskAExp1 Prime_6A Target_1A hkmljFa bAMIeBh Incongruent left correct Normal 425.5707
202 26 LeftSmaller RTTaskAExp1 Prime_4N Target_6N bfBLchD AJdIekM Incongruent right correct Normal 411.9222
202 27 LeftSmaller RTTaskAExp1 Prime_1A Target_4N beJiMkL eHGcCFg Congruent left correct Normal 442.2661
202 28 LeftSmaller RTTaskAExp1 Prime_4A Target_4N HLdkhCg FcfliGd Congruent left correct Normal 382.9439
202 29 LeftSmaller RTTaskAExp1 Prime_4A Target_1N gMcbhJd CibLGkF Congruent left correct Normal 409.9848
202 30 LeftSmaller RTTaskAExp1 Prime_1A Target_1A HAihdaJ cajhkbL Congruent left correct Normal 402.7498
202 31 LeftSmaller RTTaskAExp1 Prime_4N Target_6A khGMeEf FJKiMfe Incongruent right correct Normal 463.18
202 32 LeftSmaller RTTaskAExp1 Prime_9N Target_4A MHGDjid abMEiFf Incongruent left correct Normal 399.5345
202 33 LeftSmaller RTTaskAExp1 Prime_6A Target_9A CmecfGa lehgkLC Congruent right correct Normal 474.6517
202 34 LeftSmaller RTTaskAExp1 Prime_6A Target_4A bdafBIL BaKMkCD Incongruent left correct Normal 439.5641
202 35 LeftSmaller RTTaskAExp1 Prime_6N Target_4A JdCIFkf FCgkHEc Incongruent left correct Normal 358.8449
202 36 LeftSmaller RTTaskAExp1 Prime_4A Target_6N IgKbFjE IAkgjeh Incongruent right correct Normal 433.2609
202 37 LeftSmaller RTTaskAExp1 Prime_9A Target_4A miECDde DGImEel Incongruent left correct Normal 421.1948
202 38 LeftSmaller RTTaskAExp1 Prime_6N Target_6A KGaEJHk GFajBki Congruent right correct Normal 495.46
202 39 LeftSmaller RTTaskAExp1 Prime_4N Target_9N aBhfGjg fLHbBCI Incongruent right correct Normal 508.0235
202 40 LeftSmaller RTTaskAExp1 Prime_6A Target_6A JfECmlM CGBieHJ Congruent right correct Normal 489.9074
202 41 LeftSmaller RTTaskAExp1 Prime_4N Target_1A BGADlek AbaJKfe Congruent left correct Normal 369.9608
202 42 LeftSmaller RTTaskAExp1 Prime_9A Target_6N IBGhlmL GHjmFlf Congruent right correct Normal 474.8628
202 43 LeftSmaller RTTaskAExp1 Prime_1A Target_9A heGFBHg gDeMJja Incongruent right correct Normal 472.1574
202 44 LeftSmaller RTTaskAExp1 Prime_1N Target_4N cadhIim cBFjhAL Congruent left correct Normal 544.0414
202 45 LeftSmaller RTTaskAExp1 Prime_1N Target_4A CdFmhMi IdfgDAB Congruent left correct Normal 352.7256
202 46 LeftSmaller RTTaskAExp1 Prime_1A Target_6N beHDEBG lAGBKJI Incongruent right correct Normal 449.6025
202 47 LeftSmaller RTTaskAExp1 Prime_4N Target_1N iMkmHgb CLKFihG Congruent left correct Normal 463.6783
202 48 LeftSmaller RTTaskAExp1 Prime_1N Target_6A feliHAM MDAdBFG Incongruent right correct Normal 479.5302
202 49 LeftSmaller RTTaskAExp1 Prime_4A Target_1A hCIfbGK GfBJALg Congruent left correct Normal 392.5086
202 50 LeftSmaller RTTaskAExp1 Prime_9A Target_6A LbMBFcm dlAEfmg Congruent left error Normal 360.306
202 51 LeftSmaller RTTaskAExp1 Prime_4A Target_9N GlDKaLh ihmLjke Incongruent right correct Normal 594.2917
202 52 LeftSmaller RTTaskAExp1 Prime_9N Target_6A KJbmgCj CabiAmc Congruent right correct Normal 405.9233
202 53 LeftSmaller RTTaskAExp1 Prime_9N Target_1A kMIfmbE bkiJchC Incongruent left correct Normal 462.9599
202 54 LeftSmaller RTTaskAExp1 Prime_1A Target_9N LemgHDE bkJiAEe Incongruent right correct Normal 439.9874
202 55 LeftSmaller RTTaskAExp1 Prime_9N Target_4N GBhKaLH CfiAFkG Incongruent left correct Normal 476.1445
202 56 LeftSmaller RTTaskAExp1 Prime_4N Target_9A JEDMbdC AFkachG Incongruent right correct Normal 400.5728
202 57 LeftSmaller RTTaskAExp1 Prime_6A Target_9N AIKgGJa JAmCEhf Congruent right correct Normal 497.4739
202 58 LeftSmaller RTTaskAExp1 Prime_1A Target_4A djGJhMD kMDAdKf Congruent left correct Normal 402.9033
202 59 LeftSmaller RTTaskAExp1 Prime_9N Target_6N FLDiACh FBJHEID Congruent right correct Normal 500.6946
202 60 LeftSmaller RTTaskAExp1 Prime_4N Target_4N eEcLDaG LbMdBgK Congruent left correct Normal 545.358
202 61 LeftSmaller RTTaskAExp1 Prime_4A Target_9A AlkheGf fKbahcj Incongruent right correct Normal 479.6044
202 62 LeftSmaller RTTaskAExp1 Prime_9A Target_6A KAiCJfe gJdDflF Congruent right correct Normal 434.0329
202 63 LeftSmaller RTTaskAExp1 Prime_1N Target_6N hCdfADm gHDBeJK Incongruent right correct Normal 407.0574
202 64 LeftSmaller RTTaskAExp1 Prime_6A Target_6N HBELjfi DfbKdae Congruent right correct Normal 392.7588
202 65 LeftSmaller RTTaskAExp1 Prime_9A Target_1N bBcaFlj ajLdiAB Incongruent left correct Normal 471.1709
202 66 LeftSmaller RTTaskAExp1 Prime_6A Target_1N kAdlfBh CDgjHbk Incongruent left correct Normal 416.2269
202 67 LeftSmaller RTTaskAExp1 Prime_9N Target_1N Jigmfdk akMLibE Incongruent left correct Normal 347.5164
202 68 LeftSmaller RTTaskAExp1 Prime_9A Target_9N IbEhdeg AbKeLHG Congruent right correct Normal 472.0212
202 69 LeftSmaller RTTaskAExp1 Prime_6N Target_9A mHaEBGK JkEjciI Congruent right correct Normal 500.6905
202 70 LeftSmaller RTTaskAExp1 Prime_9A Target_9A dEmMGKC GIMfhlb Congruent right correct Normal 372.3257
202 71 LeftSmaller RTTaskAExp1 Prime_1A Target_1N DEfhegG fmElBaj Congruent left correct Normal 425.3985
202 72 LeftSmaller RTTaskAExp1 Prime_6N Target_1N lfDmcIK jlHmhKG Incongruent left correct Normal 357.3247
202 73 LeftSmaller RTTaskAExp1 Prime_1N Target_1N idgCLfa HkBlEbc Congruent left correct Normal 311.9731
202 74 LeftSmaller RTTaskAExp1 Prime_4A Target_6A BkCFMAD BEcChJG Incongruent right correct Normal 357.2779
202 75 LeftSmaller RTTaskAExp1 Prime_9N Target_9N JbIfDKH HeLdEah Congruent left error Normal 326.5536
202 76 LeftSmaller RTTaskAExp1 Prime_4A Target_4A MfmcijF HahEmgC Congruent left correct Normal 548.2291
202 77 LeftSmaller RTTaskAExp1 Prime_1N Target_1A lCjBecF HcLIghA Congruent left correct Normal 523.2616
202 78 LeftSmaller RTTaskAExp1 Prime_9A Target_4N BfIhLGE IHfJgcC Incongruent left correct Normal 641.7993
202 79 LeftSmaller RTTaskAExp1 Prime_1N Target_9A iaFDeIC meMKHif Incongruent right correct Normal 477.4788
202 80 LeftSmaller RTTaskAExp1 Prime_6A Target_4N GgBmfDF IGgaFbL Incongruent left correct Normal 492.1271
202 81 LeftSmaller RTTaskAExp1 Prime_1A Target_6A FhkJidA lMICGjB Incongruent right correct Normal 499.4295
202 82 LeftSmaller RTTaskAExp1 Prime_6N Target_1A DBLgcej eHKlFdJ Incongruent left correct Normal 386.8581
202 83 LeftSmaller RTTaskAExp1 Prime_9A Target_1A LHajFgI jHLlCfI Incongruent left correct Normal 362.6079
202 84 LeftSmaller RTTaskAExp1 Prime_9N Target_9A EJMfKLD hfcmJaL Congruent right correct Normal 493.4347
202 85 LeftSmaller RTTaskAExp1 Prime_9N Target_9N DfiCBML DLKdmhG Congruent right correct Normal 504.8393
202 86 LeftSmaller RTTaskAExp2 Prime_1A Target_9A aMHlieF DEfLMKa Incongruent right correct Normal 463.9749
202 87 LeftSmaller RTTaskAExp2 Prime_6A Target_4N DbFjMaH DKJIEia Incongruent left correct Normal 405.1423
202 88 LeftSmaller RTTaskAExp2 Prime_1N Target_6N jeIkFld MJgmKEc Incongruent right correct Normal 454.1726
202 89 LeftSmaller RTTaskAExp2 Prime_6N Target_6A kdDEcgL cjDaegC Congruent right correct Normal 427.4754
202 90 LeftSmaller RTTaskAExp2 Prime_1N Target_4N LfBlkgC lkBmcfK Congruent left correct Normal 466.6292
202 91 LeftSmaller RTTaskAExp2 Prime_4N Target_1N bgHDjFC lBdAmkL Congruent left correct Normal 649.6206
202 92 LeftSmaller RTTaskAExp2 Prime_1N Target_9N fEBlgFG FDCMBla Incongruent right correct Normal 479.7052
202 93 LeftSmaller RTTaskAExp2 Prime_6N Target_4A MfEjmGF LHdbKDe Incongruent left correct Normal 422.4602
202 94 LeftSmaller RTTaskAExp2 Prime_9N Target_9N KfmeEML KDfhCHd Congruent right correct Normal 423.0394
202 95 LeftSmaller RTTaskAExp2 Prime_9A Target_4N AbhFgdC aBegcAm Incongruent left correct Normal 535.4586
202 96 LeftSmaller RTTaskAExp2 Prime_9N Target_1N hcaIFMd aLMeHjI Incongruent left correct Normal 493.045
202 97 LeftSmaller RTTaskAExp2 Prime_9A Target_6A MCkIDim MaDliAL Congruent right correct Normal 402.423
202 98 LeftSmaller RTTaskAExp2 Prime_4A Target_6A FBaGKIj hgMBLai Incongruent right correct Normal 562.7254
202 99 LeftSmaller RTTaskAExp2 Prime_9A Target_9N iehAfcB GlEkMmi Congruent right correct Normal 409.6069
202 100 LeftSmaller RTTaskAExp2 Prime_1A Target_4N HGaLEcA HFacCgj Congruent left correct Normal 713.6354
202 101 LeftSmaller RTTaskAExp2 Prime_9N Target_1A hmbegMC FghbcfG Incongruent left correct Normal 374.9242
202 102 LeftSmaller RTTaskAExp2 Prime_1A Target_1N lMHFDBi BlhEbcA Congruent left correct Normal 380.2428
202 103 LeftSmaller RTTaskAExp2 Prime_9A Target_9A kmhCjBE gcJjkLd Congruent right correct Normal 390.787
202 104 LeftSmaller RTTaskAExp2 Prime_4A Target_6N CALjdEg bEhDdJH Incongruent right correct Normal 604.0625
202 105 LeftSmaller RTTaskAExp2 Prime_9A Target_4A ckAbhLj gFlKdJj Incongruent left correct Normal 474.4039
202 106 LeftSmaller RTTaskAExp2 Prime_4A Target_9A gHlAaKC AKmCaJl Incongruent right correct Normal 435.1591
202 107 LeftSmaller RTTaskAExp2 Prime_4N Target_6N GleIkcF IjKfJLC Incongruent right correct Normal 424.4411
202 108 LeftSmaller RTTaskAExp2 Prime_4N Target_1A CLJheMk FbEeafg Congruent left correct Normal 427.3539
202 109 LeftSmaller RTTaskAExp2 Prime_4N Target_9N iHedMac FaIdefJ Incongruent right correct Normal 367.6497
202 110 LeftSmaller RTTaskAExp2 Prime_4N Target_4N biGmcJH iFDaKeL Congruent left correct Normal 427.7344
202 111 LeftSmaller RTTaskAExp2 Prime_6A Target_1A KbCkIaE iFDmfJb Incongruent left correct Normal 443.712
202 112 LeftSmaller RTTaskAExp2 Prime_9A Target_1A bGIJmFA bCgImLk Incongruent left correct Normal 383.2728
202 113 LeftSmaller RTTaskAExp2 Prime_6A Target_9N hfKmEIe AclaKbM Congruent right correct Normal 536.2892
202 114 LeftSmaller RTTaskAExp2 Prime_4N Target_6A JIEgDaB mKfklIF Incongruent right correct Normal 394.468
202 115 LeftSmaller RTTaskAExp2 Prime_9N Target_4A KIbiMAl LfBICGK Incongruent left correct Normal 448.7454
202 116 LeftSmaller RTTaskAExp2 Prime_9N Target_6N fLHCMFb bmGIcAg Congruent right correct Normal 543.2493
202 117 LeftSmaller RTTaskAExp2 Prime_4N Target_4A dDgcakj LAMdiag Congruent left correct Normal 422.0922
202 118 LeftSmaller RTTaskAExp2 Prime_4A Target_1A hHJeDcK gafMhKF Congruent left correct Normal 432.7427
202 119 LeftSmaller RTTaskAExp2 Prime_9N Target_9A JAecbGM lbcaHEF Congruent right correct Normal 314.4332
202 120 LeftSmaller RTTaskAExp2 Prime_4N Target_9A ECiMmAb hJlgkDd Incongruent right correct Normal 384.0665
202 121 LeftSmaller RTTaskAExp2 Prime_4A Target_1N KbFkaLg kcemCiG Congruent left correct Normal 521.3717
202 122 LeftSmaller RTTaskAExp2 Prime_1N Target_1N DBjLCMb JlfgHiK Congruent left correct Normal 352.5348
202 123 LeftSmaller RTTaskAExp2 Prime_6N Target_1A ELiFmgk fJDgKBG Incongruent left correct Normal 402.9472
202 124 LeftSmaller RTTaskAExp2 Prime_6N Target_4N GCFiHcJ KBGmFHl Incongruent left correct Normal 335.8559
202 125 LeftSmaller RTTaskAExp2 Prime_6N Target_6N gehAKGM adKhDif Congruent right correct Normal 479.5741
202 126 LeftSmaller RTTaskAExp2 Prime_6A Target_1N ClBbagc HKAjiBg Incongruent left correct Normal 466.5573
202 127 LeftSmaller RTTaskAExp2 Prime_1N Target_1A aelhFMC iCFJhKe Congruent left correct Normal 389.0461
202 128 LeftSmaller RTTaskAExp2 Prime_6N Target_1N EIjiDkK dkCEgBJ Incongruent left correct Normal 251.4008
202 129 LeftSmaller RTTaskAExp2 Prime_6N Target_9A HKfEIei gMHmjJB Congruent right correct Normal 480.9208
202 130 LeftSmaller RTTaskAExp2 Prime_1A Target_4A mAHcDjg FCHMdkB Congruent left correct Normal 369.0942
202 131 LeftSmaller RTTaskAExp2 Prime_9A Target_1N abeJClK CMHKDGf Incongruent left correct Normal 415.253
202 132 LeftSmaller RTTaskAExp2 Prime_4A Target_4N hfMliIH ECJMIGF Congruent left correct Normal 436.4246
202 133 LeftSmaller RTTaskAExp2 Prime_4A Target_4A flKLdbC bEcfHak Congruent left correct Normal 448.8399
202 134 LeftSmaller RTTaskAExp2 Prime_9A Target_6N CmclBaj jLfhbag Congruent left error Normal 343.2475
202 135 LeftSmaller RTTaskAExp2 Prime_1A Target_6N hCmbJGa Jaicfje Incongruent right correct Normal 509.629
202 136 LeftSmaller RTTaskAExp2 Prime_9A Target_6N Aakebfi HebgGLm Congruent right correct Normal 371.8359
202 137 LeftSmaller RTTaskAExp2 Prime_1N Target_9A LIDbKEh mCelhaB Incongruent right correct Normal 443.3985
202 138 LeftSmaller RTTaskAExp2 Prime_1A Target_6A LHgaFkj bDKLlFf Incongruent right correct Normal 355.691
202 139 LeftSmaller RTTaskAExp2 Prime_9N Target_6A giHhbCJ lcaFeHK Congruent right correct Normal 391.9848
202 140 LeftSmaller RTTaskAExp2 Prime_6A Target_6A JhAmbEf HEfgkKl Congruent right correct Normal 328.8605
202 141 LeftSmaller RTTaskAExp2 Prime_1A Target_9N fFcAHki lCMiIKE Incongruent right correct Normal 539.9059
202 142 LeftSmaller RTTaskAExp2 Prime_4A Target_9N LfHmKJc cbBIfFj Incongruent right correct Normal 439.0827
202 143 LeftSmaller RTTaskAExp2 Prime_1A Target_1A EDBAhIc JfiaGjg Congruent left correct Normal 425.1162
202 144 LeftSmaller RTTaskAExp2 Prime_6N Target_9N hMecJgd hIFJCmB Congruent right correct Normal 414.5309
202 145 LeftSmaller RTTaskAExp2 Prime_6A Target_9A BbfcDgM LfkJaIH Congruent right correct Normal 451.1535
202 146 LeftSmaller RTTaskAExp2 Prime_6A Target_6N fLJDCEg JeaHbEC Congruent right correct Normal 459.6217
202 147 LeftSmaller RTTaskAExp2 Prime_1N Target_6A fmFBHEC eKHbCLD Incongruent right correct Normal 396.4397
202 148 LeftSmaller RTTaskAExp2 Prime_9N Target_4N EGeLCIm bBhjDHC Incongruent right error Normal 350.8029
202 149 LeftSmaller RTTaskAExp2 Prime_1N Target_4A GdjfLhm EFkICGc Congruent left correct Normal 472.7186
202 150 LeftSmaller RTTaskAExp2 Prime_6A Target_4A IilEAFG eHkKbBA Incongruent left correct Normal 382.8926
202 151 LeftSmaller RTTaskAExp2 Prime_9N Target_4N ghAKimI AmlHcBL Incongruent left correct Normal 390.0094
202 152 LeftLarger RTTaskBPrac Prime_4N Target_9N gbkFHlD kDMAJLf Incongruent left correct Normal 912.924
202 153 LeftLarger RTTaskBPrac Prime_4A Target_9A bHgLGMk cmieMAl Incongruent left correct Normal 675.1289
202 154 LeftLarger RTTaskBPrac Prime_6N Target_4N miFcMKB JlLamDe Incongruent right correct Normal 655.3137
202 155 LeftLarger RTTaskBPrac Prime_1A Target_6A GLIFJkm eclJkbf Incongruent left correct Normal 559.7073
202 156 LeftLarger RTTaskBPrac Prime_1N Target_6A JbEKjlC IkeamFE Incongruent left correct Normal 645.3084
202 157 LeftLarger RTTaskBPrac Prime_9A Target_1N FCiEbDa akMHdeA Incongruent right correct Normal 733.3463
202 158 LeftLarger RTTaskBPrac Prime_9A Target_6A LgkDdeh dlhbmfL Congruent left correct Normal 630.9452
202 159 LeftLarger RTTaskBPrac Prime_6N Target_1N cKmlAJG IDgdhFk Incongruent right correct Normal 874.8035
202 160 LeftLarger RTTaskBPrac Prime_4N Target_4N GMaEbHF ciEFAbG Congruent left error Normal 687.9714
202 161 LeftLarger RTTaskBPrac Prime_9N Target_9A GDjLIgF GagljFc Congruent left correct Normal 738.2768
202 162 LeftLarger RTTaskBPrac Prime_6A Target_4A aeJmBMC kcGCfIF Incongruent right correct Normal 650.9343
202 163 LeftLarger RTTaskBPrac Prime_6N Target_4A hkdLajA ekjElGI Incongruent right correct Normal 683.8645
202 164 LeftLarger RTTaskBPrac Prime_9N Target_1N hCbEJcl lGeaLCm Incongruent right correct Normal 629.7901
202 165 LeftLarger RTTaskBPrac Prime_4A Target_6N bAheGaj aDMBJHI Incongruent left correct Normal 652.9887
202 166 LeftLarger RTTaskBPrac Prime_9A Target_6N kIGiEdB FaJbhdf Congruent left correct Normal 541.7366
202 167 LeftLarger RTTaskBPrac Prime_4N Target_4N KJFcjAm fedBMmb Congruent right correct Normal 529.8985
202 168 LeftLarger RTTaskBPrac Prime_1A Target_4A IKmbkLe mbIiacj Congruent right correct Normal 523.9201
202 169 LeftLarger RTTaskBExp1 Prime_1A Target_9A LfclIGM GaEcmlA Incongruent left correct Normal 774.9325
202 170 LeftLarger RTTaskBExp1 Prime_1A Target_9N BgcjMLG KDhliGd Incongruent left correct Normal 524.2369
202 171 LeftLarger RTTaskBExp1 Prime_1N Target_1N cmHgCjM aHAmBGj Congruent right correct Normal 494.8588
202 172 LeftLarger RTTaskBExp1 Prime_6N Target_9N LBHjKgi FbIjGLc Congruent left correct Normal 587.7048
202 173 LeftLarger RTTaskBExp1 Prime_6N Target_6N leCmjcM JcGBHMC Congruent left correct Normal 494.1719
202 174 LeftLarger RTTaskBExp1 Prime_4A Target_6N EdBCmaH DcGJLiM Incongruent left correct Normal 428.1148
202 175 LeftLarger RTTaskBExp1 Prime_4A Target_9N eEIhmFl iMeBHGc Incongruent right error Normal 602.0522
202 176 LeftLarger RTTaskBExp1 Prime_6A Target_4A EbgLclj GDjgLHe Incongruent left error Normal 521.5871
202 177 LeftLarger RTTaskBExp1 Prime_9A Target_1N aLClEhg HALEJBI Incongruent left error Normal 681.8452
202 178 LeftLarger RTTaskBExp1 Prime_9N Target_4N kibjamK aIDgeGc Incongruent right correct Normal 835.4739
202 179 LeftLarger RTTaskBExp1 Prime_6N Target_1N ELlbice HaedgFM Incongruent right correct Normal 488.2589
202 180 LeftLarger RTTaskBExp1 Prime_6N Target_1A hGdHaeA IMfiAEC Incongruent right correct Normal 511.9717
202 181 LeftLarger RTTaskBExp1 Prime_9A Target_6N lbMLKiH LbmJACK Congruent left correct Normal 533.24
202 182 LeftLarger RTTaskBExp1 Prime_4N Target_4N biDEdmJ EBgjJhD Congruent right correct Normal 537.8742
202 183 LeftLarger RTTaskBExp1 Prime_4N Target_6N CHAmDJI LMAJiFK Incongruent left correct Normal 879.1219
202 184 LeftLarger RTTaskBExp1 Prime_9A Target_6A FjhJBfL gICkBAm Congruent left correct Normal 554.6451
202 185 LeftLarger RTTaskBExp1 Prime_6N Target_9A amfjJKB jidmakC Congruent left correct Normal 428.919
202 186 LeftLarger RTTaskBExp1 Prime_9A Target_9A kMKJiLl CjdMLia Congruent left correct Normal 358.7164
202 187 LeftLarger RTTaskBExp1 Prime_1N Target_6A BAijHCb JgbmdHe Incongruent left correct Normal 457.5151
202 188 LeftLarger RTTaskBExp1 Prime_9N Target_9N GfAmaFh CFgMcaK Congruent left correct Normal 545.9027
202 189 LeftLarger RTTaskBExp1 Prime_6N Target_4A GgEAFBm flCEcAJ Incongruent right correct Normal 544.4664
202 190 LeftLarger RTTaskBExp1 Prime_6A Target_4N bgDiEAm mMEbKAa Incongruent right correct Late 1050.989
202 191 LeftLarger RTTaskBExp1 Prime_1A Target_1N JBFLbMG McjdJIB Congruent right correct Normal 558.7952
202 192 LeftLarger RTTaskBExp1 Prime_4N Target_6A JhHEjeA fiILhBC Incongruent right error Normal 461.4772
202 193 LeftLarger RTTaskBExp1 Prime_6A Target_1N EcjDmil EBagMJd Incongruent right correct Normal 691.8742
202 194 LeftLarger RTTaskBExp1 Prime_6A Target_6N CdHjhkI AcjgHdJ Congruent left correct Normal 511.3388
202 195 LeftLarger RTTaskBExp1 Prime_6N Target_6A CdMEgBJ bFDdiaB Congruent left correct Normal 414.8387
202 196 LeftLarger RTTaskBExp1 Prime_6N Target_4N AEJMIGC LiDebJC Incongruent right correct Normal 549.0307
202 197 LeftLarger RTTaskBExp1 Prime_4A Target_9A BiJHDAm bJDEeIi Incongruent left correct Normal 999.8181
202 198 LeftLarger RTTaskBExp1 Prime_9A Target_4A cLiJlgj daighcB Incongruent right correct Normal 496.2466
202 199 LeftLarger RTTaskBExp1 Prime_9A Target_4N hMCkFHm ACLbDMe Incongruent right correct Normal 484.9171
202 200 LeftLarger RTTaskBExp1 Prime_4N Target_1N HcaKjbg IDFEbBe Congruent right correct Normal 411.2838
202 201 LeftLarger RTTaskBExp1 Prime_1N Target_1A bdKlHJE dhDJmba Congruent right correct Normal 388.3468
202 202 LeftLarger RTTaskBExp1 Prime_4A Target_1A KCFeGjD lkGIeac Congruent right correct Normal 306.3816
202 203 LeftLarger RTTaskBExp1 Prime_9A Target_1N MHIkBmE hFiAlEa Incongruent right correct Normal 354.4403
202 204 LeftLarger RTTaskBExp1 Prime_6A Target_9N giJCABk BciaAMk Congruent left correct Normal 460.1023
202 205 LeftLarger RTTaskBExp1 Prime_1A Target_1A eILaGjb kDlHIbf Congruent right correct Normal 413.3975
202 206 LeftLarger RTTaskBExp1 Prime_4A Target_4A dLBFIhE EIKGLcH Congruent right correct Normal 458.6944
202 207 LeftLarger RTTaskBExp1 Prime_4A Target_9N AgBfhbl dMlJFEb Incongruent left correct Normal 537.5196
202 208 LeftLarger RTTaskBExp1 Prime_1N Target_6N CAgDBmh FiHaeEL Incongruent left correct Normal 530.7557
202 209 LeftLarger RTTaskBExp1 Prime_6A Target_4N LkfEGbj LKHFjge Incongruent right correct Normal 439.7654
202 210 LeftLarger RTTaskBExp1 Prime_9N Target_6N gLiMKlk BhdkJDm Congruent left correct Normal 676.7992
202 211 LeftLarger RTTaskBExp1 Prime_1N Target_4A JhEedHa AIdBjfC Congruent right correct Normal 502.9525
202 212 LeftLarger RTTaskBExp1 Prime_4N Target_1A miGKBbe gGDadmM Congruent right correct Normal 363.6969
202 213 LeftLarger RTTaskBExp1 Prime_9N Target_4A fMDbBCd DEfeCjH Incongruent right correct Normal 387.8549
202 214 LeftLarger RTTaskBExp1 Prime_4N Target_4A kGbiKca EHBLchk Congruent right correct Normal 332.579
202 215 LeftLarger RTTaskBExp1 Prime_6A Target_4A bglBIhA MiGdJDC Incongruent right correct Normal 411.6367
202 216 LeftLarger RTTaskBExp1 Prime_6A Target_9A MBGIFli eAFcmgE Congruent left correct Normal 522.7811
202 217 LeftLarger RTTaskBExp1 Prime_1A Target_4N DAialIm IfGEBaL Congruent right correct Normal 450.2691
202 218 LeftLarger RTTaskBExp1 Prime_9N Target_1A FmHMdJi fLDAmMg Incongruent right correct Normal 498.9124
202 219 LeftLarger RTTaskBExp1 Prime_4N Target_6A eDIghdk HeGBmbg Incongruent left correct Normal 546.5785
202 220 LeftLarger RTTaskBExp1 Prime_9N Target_9A kbjLfID IFLiCka Congruent left correct Normal 492.7458
202 221 LeftLarger RTTaskBExp1 Prime_1A Target_6A mhdCHkJ lgcEhif Incongruent left correct Normal 399.1532
202 222 LeftLarger RTTaskBExp1 Prime_4A Target_6A fcjFBkH JkLBhGc Incongruent left correct Normal 346.5891
202 223 LeftLarger RTTaskBExp1 Prime_4A Target_1N GkHEDlM dfClimk Congruent right correct Normal 460.5165
202 224 LeftLarger RTTaskBExp1 Prime_1N Target_9N HfGJecD DIJBfia Incongruent left correct Normal 488.6578
202 225 LeftLarger RTTaskBExp1 Prime_9A Target_1A KciadEI LImadhB Incongruent left error Normal 432.9482
202 226 LeftLarger RTTaskBExp1 Prime_9A Target_1A cIgKlLA IdLiAcD Incongruent right correct Normal 572.4094
202 227 LeftLarger RTTaskBExp1 Prime_6A Target_1A AKDaGef cGliagJ Incongruent right correct Normal 350.9071
202 228 LeftLarger RTTaskBExp1 Prime_4N Target_9A BGgHCiF hJEdCGe Incongruent left correct Normal 403.5727
202 229 LeftLarger RTTaskBExp1 Prime_1A Target_6N Eiefagk akKilgL Incongruent right error Normal 381.9768
202 230 LeftLarger RTTaskBExp1 Prime_1N Target_9A ilAfceH JcfFeDl Incongruent left correct Normal 658.1286
202 231 LeftLarger RTTaskBExp1 Prime_6A Target_6A ceEDCmM AEkBabj Congruent left correct Normal 480.323
202 232 LeftLarger RTTaskBExp1 Prime_4N Target_9N kfKFAeH EBmHfAl Incongruent left correct Normal 545.4634
202 233 LeftLarger RTTaskBExp1 Prime_4A Target_4N aJfjiAh JjdkMmC Congruent right correct Normal 556.2929
202 234 LeftLarger RTTaskBExp1 Prime_1N Target_4N JFAhMIe aKbkiIf Congruent right correct Normal 463.0891
202 235 LeftLarger RTTaskBExp1 Prime_1A Target_4A hKAICMf aLHEjfh Congruent left error Late 2268.726
202 236 LeftLarger RTTaskBExp1 Prime_1A Target_6N JIlDaeA fDhIEHa Incongruent left correct Normal 919.9693
202 237 LeftLarger RTTaskBExp1 Prime_9N Target_6A imeghDL Madkglm Congruent right error Late 1054.865
202 238 LeftLarger RTTaskBExp1 Prime_1A Target_4A LkeaAbJ HDCgjJb Congruent right correct Normal 984.4716
202 239 LeftLarger RTTaskBExp1 Prime_9N Target_6A cJklgBL kMjmidD Congruent left correct Normal 647.5067
202 240 LeftLarger RTTaskBExp1 Prime_9A Target_9N khAIaCJ DKiGgfh Congruent left correct Normal 479.8037
202 241 LeftLarger RTTaskBExp1 Prime_9N Target_1N LlIbgDe aDHeikF Incongruent right correct Normal 561.6748
202 242 LeftLarger RTTaskBExp2 Prime_4N Target_1A lbjmhBF BlbFcgd Congruent right correct Normal 657.3749
202 243 LeftLarger RTTaskBExp2 Prime_6A Target_4A cmMaCIh kifFAdC Incongruent right correct Normal 415.1832
202 244 LeftLarger RTTaskBExp2 Prime_1N Target_1N eigkjLA mKMlfHE Congruent right correct Normal 351.8312
202 245 LeftLarger RTTaskBExp2 Prime_4A Target_1A HDEAghJ aLJgMbd Congruent right correct Normal 332.1844
202 246 LeftLarger RTTaskBExp2 Prime_4N Target_6A fACkcFa MgjfbCK Incongruent left correct Normal 463.1672
202 247 LeftLarger RTTaskBExp2 Prime_9N Target_1A CkJILhg JjdLFkI Incongruent right correct Normal 665.8331
202 248 LeftLarger RTTaskBExp2 Prime_9A Target_9N iJeILaA abkCdjL Congruent left correct Normal 546.1027
202 249 LeftLarger RTTaskBExp2 Prime_9N Target_9N jDHGbce CFkiDbg Congruent left correct Normal 488.0271
202 250 LeftLarger RTTaskBExp2 Prime_4A Target_9A cEHBLIJ GLldHme Incongruent left correct Normal 502.806
202 251 LeftLarger RTTaskBExp2 Prime_6A Target_9A MFJmjlb aMlDcGk Congruent right error Late 3716.819
202 252 LeftLarger RTTaskBExp2 Prime_6N Target_9N dHkmgMG MDjhbik Congruent left correct Normal 469.8036
202 253 LeftLarger RTTaskBExp2 Prime_9A Target_6N LlGbgaK mIAhaFM Congruent left correct Normal 378.8514
202 254 LeftLarger RTTaskBExp2 Prime_4N Target_4N BHFhjJG mjlMhHg Congruent right correct Normal 542.8089
202 255 LeftLarger RTTaskBExp2 Prime_4A Target_1N bdaKmLf jeMFgLE Congruent right correct Normal 422.9519
202 256 LeftLarger RTTaskBExp2 Prime_6A Target_4N EGJCcej gbJMlKc Incongruent right correct Normal 427.0055
202 257 LeftLarger RTTaskBExp2 Prime_6N Target_1N HMIGmej DlmgHCG Incongruent right correct Normal 353.0806
202 258 LeftLarger RTTaskBExp2 Prime_6N Target_6A heFjdHg kdlhajC Congruent left correct Normal 643.7134
202 259 LeftLarger RTTaskBExp2 Prime_9A Target_6A JFeBfbc giMhlme Congruent left correct Normal 383.5089
202 260 LeftLarger RTTaskBExp2 Prime_9N Target_4A fKHJbeM CcdAGfF Incongruent right correct Normal 509.2851
202 261 LeftLarger RTTaskBExp2 Prime_9A Target_9A kiIFmMK EmafBID Congruent left correct Normal 446.4559
202 262 LeftLarger RTTaskBExp2 Prime_9A Target_1A eajgdIC HDlkhBG Incongruent right correct Normal 759.6571
202 263 LeftLarger RTTaskBExp2 Prime_9N Target_9A bgAKklJ fKkCADb Congruent left correct Normal 407.7991
202 264 LeftLarger RTTaskBExp2 Prime_6N Target_1A lKGAcbL BjJlCaA Incongruent right correct Normal 396.658
202 265 LeftLarger RTTaskBExp2 Prime_6A Target_9N JlFCKdf Abifgal Congruent left correct Normal 603.0922
202 266 LeftLarger RTTaskBExp2 Prime_9N Target_6N dJjgkAl bIGhgFJ Congruent left correct Normal 471.3094
202 267 LeftLarger RTTaskBExp2 Prime_6N Target_4N mkDHGeh gdAILiC Incongruent right correct Normal 507.1505
202 268 LeftLarger RTTaskBExp2 Prime_4N Target_6N hGdijHK BfeIgEa Incongruent left correct Normal 455.3228
202 269 LeftLarger RTTaskBExp2 Prime_6A Target_6A Klmhiea hHciADL Congruent left correct Normal 464.038
202 270 LeftLarger RTTaskBExp2 Prime_1N Target_6N CleIGHa kKibMgJ Incongruent left correct Normal 423.3151
202 271 LeftLarger RTTaskBExp2 Prime_9A Target_4N aiMkAjb ekjlIHC Incongruent right correct Normal 539.3614
202 272 LeftLarger RTTaskBExp2 Prime_1N Target_1A chfLKFb IhMCDBf Congruent right correct Normal 456.4114
202 273 LeftLarger RTTaskBExp2 Prime_9N Target_4N kJbdKFa FMEhaJI Incongruent right correct Normal 335.6876
202 274 LeftLarger RTTaskBExp2 Prime_1A Target_6A DfJGjKi ejdBfLM Incongruent left correct Normal 483.852
202 275 LeftLarger RTTaskBExp2 Prime_4A Target_6N bMeilGd BkEJHli Incongruent left correct Normal 420.1535
202 276 LeftLarger RTTaskBExp2 Prime_1A Target_1A alFKEGe MGaEDfF Congruent right correct Normal 842.1418
202 277 LeftLarger RTTaskBExp2 Prime_6A Target_1A hBDLiFb DcbdlAM Incongruent right correct Normal 367.8163
202 278 LeftLarger RTTaskBExp2 Prime_6A Target_9A cLgFekh eBLACmG Congruent left correct Normal 415.2143
202 279 LeftLarger RTTaskBExp2 Prime_4A Target_4A eHfjFJd aJkgKFf Congruent right correct Normal 476.5581
202 280 LeftLarger RTTaskBExp2 Prime_9A Target_4A CfJKaIL mBcblHJ Incongruent right correct Normal 432.9706
202 281 LeftLarger RTTaskBExp2 Prime_1N Target_4A EmKCGiI IafHjJD Congruent right correct Normal 418.4002
202 282 LeftLarger RTTaskBExp2 Prime_4A Target_4N cgiDjmC eAkFMBG Congruent right correct Normal 343.1769
202 283 LeftLarger RTTaskBExp2 Prime_6N Target_9A LDmbgkl HjJledG Congruent left correct Normal 417.8031
202 284 LeftLarger RTTaskBExp2 Prime_9N Target_6A FBkAjgE mBiIaKj Congruent left correct Normal 403.6245
202 285 LeftLarger RTTaskBExp2 Prime_1A Target_9N GIhKJFE mCHAJif Incongruent left correct Normal 604.2689
202 286 LeftLarger RTTaskBExp2 Prime_4N Target_1N lhdjEHD bcCLDli Congruent right correct Normal 520.2066
202 287 LeftLarger RTTaskBExp2 Prime_1A Target_6N MAgkibJ CkbEGeK Incongruent left correct Normal 506.701
202 288 LeftLarger RTTaskBExp2 Prime_9A Target_1N dCgBLEF MEAIbFl Incongruent right correct Normal 431.0322
202 289 LeftLarger RTTaskBExp2 Prime_4A Target_6A KacjAFk fACGFid Incongruent left correct Normal 475.3387
202 290 LeftLarger RTTaskBExp2 Prime_6A Target_6N AGbKJHC CFMLBDg Congruent left correct Normal 506.3757
202 291 LeftLarger RTTaskBExp2 Prime_6A Target_1N MEKHhaD cdMiAFD Incongruent right correct Normal 595.3646
202 292 LeftLarger RTTaskBExp2 Prime_1A Target_9A AabICEM fFhElJe Incongruent left correct Normal 448.5441
202 293 LeftLarger RTTaskBExp2 Prime_1N Target_6A AjmiJMf KheEAgf Incongruent left correct Normal 399.2353
202 294 LeftLarger RTTaskBExp2 Prime_6N Target_6N ihKkFAL lkbegcM Congruent left correct Normal 443.4056
202 295 LeftLarger RTTaskBExp2 Prime_4N Target_4A BGLDAEk MigdKCa Congruent right correct Normal 448.4588
202 296 LeftLarger RTTaskBExp2 Prime_6N Target_4A lMLIKmE KmgMiGI Incongruent right correct Normal 370.6075
202 297 LeftLarger RTTaskBExp2 Prime_1N Target_9A iIKCDMg AmIaKci Incongruent left correct Normal 414.896
202 298 LeftLarger RTTaskBExp2 Prime_4N Target_9N IfDbjkG IMBaDdb Incongruent right error Normal 346.5196
202 299 LeftLarger RTTaskBExp2 Prime_1N Target_9N KceFBhj dEmbcjA Incongruent left correct Normal 446.1285
202 300 LeftLarger RTTaskBExp2 Prime_1A Target_1N GJHFDfk eBbGcjL Congruent right correct Normal 490.2862
202 301 LeftLarger RTTaskBExp2 Prime_1A Target_4N LdHkabJ CHBihaj Congruent right correct Normal 531.8716
202 302 LeftLarger RTTaskBExp2 Prime_4N Target_9N kJKBFCI kCflejg Incongruent left correct Normal 496.8843
202 303 LeftLarger RTTaskBExp2 Prime_1A Target_4A dAHIkEm ijmbBcL Congruent right correct Normal 386.3794
202 304 LeftLarger RTTaskBExp2 Prime_4N Target_9A MigkaEL aFCGcBe Incongruent left correct Normal 372.1895
202 305 LeftLarger RTTaskBExp2 Prime_9N Target_1N hIiHlag EGjKLJb Incongruent right correct Normal 405.228
202 306 LeftLarger RTTaskBExp2 Prime_1N Target_4N cmHbCMI aeEgjHC Congruent right correct Normal 513.6995
202 307 LeftLarger RTTaskBExp2 Prime_4A Target_9N KjkHIih FDACcmM Incongruent left correct Normal 545.4176
203 1 LeftLarger RTTaskAPrac Prime_9N Target_9N GEIMedf EcalgKC Congruent left correct Late 2089.686
203 2 LeftLarger RTTaskAPrac Prime_6N Target_9N LeBhDFm lfMeEcm Congruent left correct Normal 600.595
203 3 LeftLarger RTTaskAPrac Prime_4A Target_4N ClLeIDk dghCLKH Congruent right correct Normal 465.6378
203 4 LeftLarger RTTaskAPrac Prime_1N Target_9N fLMGCaE kjJGAIB Incongruent left correct Normal 561.2773
203 5 LeftLarger RTTaskAPrac Prime_4A Target_6N DflBKGc jlgMGJf Incongruent right error Normal 510.8554
203 6 LeftLarger RTTaskAPrac Prime_9N Target_9N iKkCMBm AcKBEJF Congruent left correct Normal 512.7517
203 7 LeftLarger RTTaskAPrac Prime_1A Target_4A IcLiBle cbALCef Congruent left error Normal 744.0429
203 8 LeftLarger RTTaskAPrac Prime_6N Target_1N BejIfkc kbfgHJC Incongruent left error Normal 620.7589
203 9 LeftLarger RTTaskAPrac Prime_4A Target_6N kiLHECe dheHKLb Incongruent left correct Late 1132.054
203 10 LeftLarger RTTaskAPrac Prime_6A Target_6A BfdCHGg gefLHlj Congruent right error Late 6717.166
203 11 LeftLarger RTTaskAPrac Prime_6N Target_1N GfdCAgE AFIlija Incongruent right correct Normal 772.3852
203 12 LeftLarger RTTaskAPrac Prime_1A Target_4N dCeMaLj eFmIfkb Congruent right correct Normal 539.3489
203 13 LeftLarger RTTaskAPrac Prime_6A Target_6A aKFLcBH IEdJCaH Congruent right error Late 3107.237
203 14 LeftLarger RTTaskAPrac Prime_6A Target_9A bkKafcG gfcmiHl Congruent left correct Normal 775.3237
203 15 LeftLarger RTTaskAPrac Prime_6A Target_6A bMAHFJD JbkACdi Congruent right error Late 6869.827
203 16 LeftLarger RTTaskAPrac Prime_4A Target_6N kdfFleG lechGJE Incongruent left correct Normal 627.5955
203 17 LeftLarger RTTaskAPrac Prime_1A Target_1N lmHAjJk IhHBbAm Congruent right correct Normal 665.4589
203 18 LeftLarger RTTaskAPrac Prime_6N Target_4A LhcJeiE fLmIJHA Incongruent right correct Normal 639.0666
203 19 LeftLarger RTTaskAPrac Prime_4N Target_1A aLfbeAM eHGIEAc Congruent right correct Normal 541.6729
203 20 LeftLarger RTTaskAPrac Prime_6N Target_6A lbgBHKh keCfFdA Congruent right error Normal 472.7687
203 21 LeftLarger RTTaskAPrac Prime_1A Target_4A jLiIbfl eDidGgE Congruent right correct Normal 554.6961
203 22 LeftLarger RTTaskAPrac Prime_9A Target_4A fcHKJIB BcajekA Incongruent right correct Normal 520.8777
203 23 LeftLarger RTTaskAPrac Prime_6N Target_6A LEGDjCc gaBdkbJ Congruent right error Late 4038.129
203 24 LeftLarger RTTaskAPrac Prime_6N Target_6A MacHLei iIedHJD Congruent right error Late 4931.864
203 25 LeftLarger RTTaskAPrac Prime_6A Target_6A gCkKGmJ CfMbDKE Congruent right error Late 1696.041
203 26 LeftLarger RTTaskAPrac Prime_6N Target_6A LFGDMdk mdKGFCc Congruent left correct Normal 556.2547
203 27 LeftLarger RTTaskAPrac Prime_6A Target_6A mGHhKJI hdeblDM Congruent left correct Normal 673.1685
203 28 LeftLarger RTTaskAPrac Prime_6A Target_6N cCLGBie ebJjgAI Congruent left correct Normal 582.5884
203 29 LeftLarger RTTaskAExp1 Prime_1N Target_9N ailLBcf HMlcfek Incongruent right error Late 4464.634
203 30 LeftLarger RTTaskAExp1 Prime_4A Target_4N jgKIfei JhHlKGj Congruent right correct Normal 617.7382
203 31 LeftLarger RTTaskAExp1 Prime_9A Target_1A fCgMiHB DegfcKd Incongruent right correct Normal 478.0743
203 32 LeftLarger RTTaskAExp1 Prime_4N Target_4N KiMBgLH IJDkecH Congruent right correct Normal 531.4192
203 33 LeftLarger RTTaskAExp1 Prime_9N Target_6N iCMHFac GjBhAFa Congruent left correct Normal 587.552
203 34 LeftLarger RTTaskAExp1 Prime_6N Target_6A DCdMKmJ jIbLAfk Congruent left correct Normal 853.6138
203 35 LeftLarger RTTaskAExp1 Prime_1A Target_1A dDaGgHh GgbieDB Congruent right correct Normal 555.3291
203 36 LeftLarger RTTaskAExp1 Prime_1A Target_6A fGkcdAI fHgiedC Incongruent left correct Normal 548.2125
203 37 LeftLarger RTTaskAExp1 Prime_4A Target_6A ghmGIeF fMiAdBH Incongruent left correct Normal 571.2593
203 38 LeftLarger RTTaskAExp1 Prime_9A Target_4A BDAamGg ELgaklC Incongruent right correct Late 1702.357
203 39 LeftLarger RTTaskAExp1 Prime_6A Target_4N GIekHCJ EdeaGLA Incongruent right correct Normal 491.1498
203 40 LeftLarger RTTaskAExp1 Prime_6N Target_1N jmIJhiK hAimGFe Incongruent right correct Normal 762.5645
203 41 LeftLarger RTTaskAExp1 Prime_1N Target_9N AHiKgfl jGKhLHb Incongruent left correct Normal 722.4792
203 42 LeftLarger RTTaskAExp1 Prime_4N Target_9A kLiFKhb HKMAmfl Incongruent left correct Normal 641.3716
203 43 LeftLarger RTTaskAExp1 Prime_9A Target_9A HgAfiFe eAdCiKI Congruent right error Late 2544.93
203 44 LeftLarger RTTaskAExp1 Prime_1N Target_4A hfgalAH KkLhJAC Congruent right correct Late 1006.657
203 45 LeftLarger RTTaskAExp1 Prime_6N Target_4N amilgKb EkAJgdC Incongruent right correct Normal 435.6169
203 46 LeftLarger RTTaskAExp1 Prime_1N Target_6N HKClaeA fFamKHl Incongruent right error Normal 466.5125
203 47 LeftLarger RTTaskAExp1 Prime_1A Target_1N fEmedbk AGilmJd Congruent right correct Normal 483.2023
203 48 LeftLarger RTTaskAExp1 Prime_9N Target_4A GkeKLCF lJjaALI Incongruent right correct Normal 447.119
203 49 LeftLarger RTTaskAExp1 Prime_6A Target_6N HEijdgF ihAkabH Congruent right error Late 3949.925
203 50 LeftLarger RTTaskAExp1 Prime_9N Target_4N JkbFhaD KgLmFcA Incongruent right correct Normal 608.1434
203 51 LeftLarger RTTaskAExp1 Prime_4A Target_1N IhiGJkd JADgKae Congruent right correct Normal 572.0645
203 52 LeftLarger RTTaskAExp1 Prime_4N Target_1N AkfDEMG mhcgJlF Congruent right correct Normal 478.9845
203 53 LeftLarger RTTaskAExp1 Prime_6A Target_1A DhEgbeI LDGjbeE Incongruent right correct Normal 443.2893
203 54 LeftLarger RTTaskAExp1 Prime_4A Target_1A BLJFghD DHEJmGh Congruent right correct Normal 387.6432
203 55 LeftLarger RTTaskAExp1 Prime_1A Target_9N hjbMFCm fBhdEaH Incongruent left correct Late 2119.704
203 56 LeftLarger RTTaskAExp1 Prime_6A Target_9N eCjHIBm deMaHmF Congruent left correct Normal 521.0687
203 57 LeftLarger RTTaskAExp1 Prime_4A Target_4A IdhJcBE MEBemaK Congruent right correct Normal 522.8549
203 58 LeftLarger RTTaskAExp1 Prime_4N Target_9N lBKkAEJ alMHBKJ Incongruent left correct Normal 461.8186
203 59 LeftLarger RTTaskAExp1 Prime_6A Target_1N bhEBMiF akfJjBb Incongruent right correct Normal 567.1787
203 60 LeftLarger RTTaskAExp1 Prime_4N Target_6A fLJEbKl lJeIFEB Incongruent left correct Normal 539.7073
203 61 LeftLarger RTTaskAExp1 Prime_4N Target_4A kclHbGg eadhbgl Congruent right correct Normal 575.9051
203 62 LeftLarger RTTaskAExp1 Prime_1A Target_9N iJmBGgK CLkjcAI Incongruent left correct Normal 437.9354
203 63 LeftLarger RTTaskAExp1 Prime_4N Target_6N LKjgkJf AJKIEbM Incongruent left correct Normal 567.6646
203 64 LeftLarger RTTaskAExp1 Prime_9N Target_1N MKCLkFH dieDhlG Incongruent right correct Normal 775.6492
203 65 LeftLarger RTTaskAExp1 Prime_4N Target_1A HideGIg eAfKIBk Congruent right correct Normal 477.7004
203 66 LeftLarger RTTaskAExp1 Prime_9N Target_1A JcEgkem EhABCgi Incongruent right correct Normal 303.1044
203 67 LeftLarger RTTaskAExp1 Prime_6N Target_1A EMFfelC CgbDHJc Incongruent right correct Normal 439.5888
203 68 LeftLarger RTTaskAExp1 Prime_1N Target_6A Jgdaclm IbHlGLD Incongruent left correct Normal 400.1839
203 69 LeftLarger RTTaskAExp1 Prime_9A Target_6A ghmlIHc beFLfCI Congruent left correct Normal 394.6719
203 70 LeftLarger RTTaskAExp1 Prime_4A Target_9A ekGaKmj delEjaJ Incongruent left correct Normal 512.4099
203 71 LeftLarger RTTaskAExp1 Prime_9N Target_9A flcGbeE HIbfmCj Congruent left correct Normal 366.1076
203 72 LeftLarger RTTaskAExp1 Prime_9A Target_6N aDkIcAf ckBIEdL Congruent left correct Normal 543.7243
203 73 LeftLarger RTTaskAExp1 Prime_9A Target_4A mCgFfje AEcMFIg Incongruent right correct Normal 521.3519
203 74 LeftLarger RTTaskAExp1 Prime_1A Target_6N HdjMcAB dGMfhlm Incongruent left correct Normal 562.1707
203 75 LeftLarger RTTaskAExp1 Prime_6N Target_4A lAbjCkJ cDhKkLJ Incongruent left error Normal 614.7869
203 76 LeftLarger RTTaskAExp1 Prime_6A Target_6N dEefkJh MAchmLH Congruent left correct Normal 566.5395
203 77 LeftLarger RTTaskAExp1 Prime_6A Target_4A gGAEmaF KbMFgaj Incongruent right correct Normal 498.2367
203 78 LeftLarger RTTaskAExp1 Prime_1A Target_4N fbgDKMj mjBJikl Congruent right correct Normal 451.339
203 79 LeftLarger RTTaskAExp1 Prime_1N Target_1A LDcfeKG lDKfigH Congruent right correct Normal 344.6298
203 80 LeftLarger RTTaskAExp1 Prime_6A Target_9A JlICAmD mbHheAd Congruent left correct Normal 516.0649
203 81 LeftLarger RTTaskAExp1 Prime_1A Target_4A hFdeLbI eILCaDj Congruent right correct Normal 549.5289
203 82 LeftLarger RTTaskAExp1 Prime_1N Target_6N GLhgmIF EjILhCJ Incongruent left correct Normal 535.7544
203 83 LeftLarger RTTaskAExp1 Prime_6N Target_9A kJiaMhb ighdkKF Congruent left correct Late 1818.267
203 84 LeftLarger RTTaskAExp1 Prime_1N Target_9A AJHCkja GelMcEa Incongruent left correct Normal 419.4305
203 85 LeftLarger RTTaskAExp1 Prime_6N Target_6N EFeIBmh JhgfALG Congruent left correct Normal 494.306
203 86 LeftLarger RTTaskAExp1 Prime_6A Target_6A eDMBkbE IFedMcB Congruent left correct Normal 336.6006
203 87 LeftLarger RTTaskAExp1 Prime_1N Target_1N lbMFgIL kAhaBDF Congruent right correct Normal 530.5107
203 88 LeftLarger RTTaskAExp1 Prime_9N Target_6A ADeKcCj EiLBMlC Congruent right error Normal 422.5364
203 89 LeftLarger RTTaskAExp1 Prime_6N Target_9N eMkJmhA aleJFcH Congruent left correct Normal 494.5607
203 90 LeftLarger RTTaskAExp1 Prime_4A Target_9N JbgljDL kEJMGcf Incongruent left correct Normal 384.8974
203 91 LeftLarger RTTaskAExp1 Prime_9A Target_9N gjCkmBL aIkbGCE Congruent left correct Normal 415.311
203 92 LeftLarger RTTaskAExp1 Prime_1N Target_4A HmgJDLc FckajdM Congruent right correct Normal 482.8405
203 93 LeftLarger RTTaskAExp1 Prime_4A Target_6N DJBeFcf HmkCAaj Incongruent left correct Normal 889.1268
203 94 LeftLarger RTTaskAExp1 Prime_1N Target_4N hjALKIF iLBlgje Congruent right correct Normal 499.4307
203 95 LeftLarger RTTaskAExp1 Prime_9A Target_1N lBHdjeG JkdAHcF Incongruent left error Normal 352.4568
203 96 LeftLarger RTTaskAExp1 Prime_6N Target_4A idJgCfA mFGcJDb Incongruent right correct Normal 757.7797
203 97 LeftLarger RTTaskAExp1 Prime_9A Target_4N bljdMGE cbKLDhI Incongruent right correct Normal 352.9786
203 98 LeftLarger RTTaskAExp1 Prime_9A Target_1N AFdfliL LCcJEdg Incongruent right correct Normal 579.2288
203 99 LeftLarger RTTaskAExp1 Prime_9N Target_9N ciCMlja lEdAhec Congruent left correct Normal 522.8921
203 100 LeftLarger RTTaskAExp1 Prime_6N Target_9A LgjimHa gFikKGc Congruent left correct Normal 410.6949
203 101 LeftLarger RTTaskAExp1 Prime_9N Target_6A KIJdmAG dAMLhfg Congruent left correct Normal 346.2389
203 102 LeftLarger RTTaskAExp1 Prime_9A Target_9A fjkihag eEKMJaI Congruent right error Normal 403.145
203 103 LeftLarger RTTaskAExp1 Prime_1A Target_9A fbJmEBe CbdjAGM Incongruent left correct Normal 374.5867
203 104 LeftLarger RTTaskAExp1 Prime_9A Target_9A kCKMFgJ IiajfHd Congruent left correct Normal 282.3671
203 105 LeftLarger RTTaskAExp2 Prime_4A Target_1N CmfkMgE hfgLiCJ Congruent right correct Normal 512.7789
203 106 LeftLarger RTTaskAExp2 Prime_9N Target_9N lmFkhEg GMIADdC Congruent left correct Normal 481.7701
203 107 LeftLarger RTTaskAExp2 Prime_9A Target_6A iCdBmHI jdAHFDk Congruent right error Normal 395.0534
203 108 LeftLarger RTTaskAExp2 Prime_6N Target_6N dcCImFg HFAJCDi Congruent left correct Normal 614.0538
203 109 LeftLarger RTTaskAExp2 Prime_4A Target_6N cDgjdib IGbLACc Incongruent left correct Normal 399.6163
203 110 LeftLarger RTTaskAExp2 Prime_6A Target_9N LmdAegk mKFbjeA Congruent left correct Normal 488.0802
203 111 LeftLarger RTTaskAExp2 Prime_9A Target_1N gKBLhaf IekGLlf Incongruent right correct Normal 597.3913
203 112 LeftLarger RTTaskAExp2 Prime_9A Target_6A IdACcEL ACLjIDE Congruent right error Normal 359.2973
203 113 LeftLarger RTTaskAExp2 Prime_6N Target_1N GKDekBm IdbJhcB Incongruent right correct Normal 583.0655
203 114 LeftLarger RTTaskAExp2 Prime_1N Target_6A LCIhEfD kHmJFba Incongruent left correct Normal 434.3401
203 115 LeftLarger RTTaskAExp2 Prime_1N Target_4A CfghKkd kmHLIGg Congruent right correct Normal 405.2978
203 116 LeftLarger RTTaskAExp2 Prime_9A Target_9A Ihamekj HbEjkAG Congruent left correct Normal 443.0895
203 117 LeftLarger RTTaskAExp2 Prime_1N Target_9A MEgJjeC ijLKgda Incongruent left correct Normal 388.2532
203 118 LeftLarger RTTaskAExp2 Prime_4A Target_1A CmcIGMj HCEiDGJ Congruent right correct Normal 441.3127
203 119 LeftLarger RTTaskAExp2 Prime_4A Target_4N MLJIkKD EmGbgMC Congruent right correct Normal 904.1588
203 120 LeftLarger RTTaskAExp2 Prime_6A Target_6N FaCMkgK LiFmgka Congruent left correct Normal 545.2053
203 121 LeftLarger RTTaskAExp2 Prime_6A Target_1A ciFEADf begJIlD Incongruent right correct Normal 643.1608
203 122 LeftLarger RTTaskAExp2 Prime_9A Target_6N GBiAcjE BbcmLAH Congruent left correct Normal 551.6919
203 123 LeftLarger RTTaskAExp2 Prime_4N Target_4A hMIJiBl JaDFgAm Congruent right correct Normal 395.7419
203 124 LeftLarger RTTaskAExp2 Prime_6A Target_1N ACmLfFH aFdkEjL Incongruent right correct Normal 530.6965
203 125 LeftLarger RTTaskAExp2 Prime_1A Target_6N DAfBGgM feKcJLg Incongruent left correct Normal 540.4605
203 126 LeftLarger RTTaskAExp2 Prime_1A Target_9A hIDLBJf GKamMJb Incongruent left correct Normal 752.3522
203 127 LeftLarger RTTaskAExp2 Prime_1A Target_9N aLDFmKl GIilfjg Incongruent left correct Normal 428.0604
203 128 LeftLarger RTTaskAExp2 Prime_4A Target_6A dcGCMaB AijmhDM Incongruent left correct Normal 345.2121
203 129 LeftLarger RTTaskAExp2 Prime_1N Target_9N JDCMIae EKejdhG Incongruent left correct Normal 440.4868
203 130 LeftLarger RTTaskAExp2 Prime_6N Target_1A HgmLIfl FJhMaLg Incongruent right correct Normal 488.1674
203 131 LeftLarger RTTaskAExp2 Prime_4A Target_9A IJjELkB GMCbhga Incongruent left correct Normal 512.7059
203 132 LeftLarger RTTaskAExp2 Prime_4A Target_4A IcMbhij gJdDhIf Congruent right correct Normal 520.7413
203 133 LeftLarger RTTaskAExp2 Prime_1A Target_1A LgfdEkA jFIMkbC Congruent right correct Normal 653.3466
203 134 LeftLarger RTTaskAExp2 Prime_9N Target_9A eglmAfL mJAdKEc Congruent right error Normal 491.1994
203 135 LeftLarger RTTaskAExp2 Prime_6A Target_6A IhHkbDl EkmKDiI Congruent left correct Normal 527.385
203 136 LeftLarger RTTaskAExp2 Prime_1N Target_6N JBbkImd fkGaiEm Incongruent left correct Normal 465.8093
203 137 LeftLarger RTTaskAExp2 Prime_1A Target_4A DmLgkHb DLeiEmI Congruent left error Normal 478.8301
203 138 LeftLarger RTTaskAExp2 Prime_9N Target_6A aAICLGJ BAjhbJc Congruent left correct Normal 677.3494
203 139 LeftLarger RTTaskAExp2 Prime_6A Target_4A fjlAiDJ LjeDagB Incongruent right correct Normal 516.6188
203 140 LeftLarger RTTaskAExp2 Prime_1A Target_4N hLJKgaB JEGBcIL Congruent right correct Normal 510.2298
203 141 LeftLarger RTTaskAExp2 Prime_1N Target_4N hLDHidA BMCIAkd Congruent right correct Normal 364.5368
203 142 LeftLarger RTTaskAExp2 Prime_1A Target_6A bakGHDi AhkjlGb Incongruent left correct Normal 489.4404
203 143 LeftLarger RTTaskAExp2 Prime_9A Target_4A AgdLBfK FdEjGma Incongruent right correct Normal 466.5891
203 144 LeftLarger RTTaskAExp2 Prime_1A Target_1N FcbBdgK AhldcFD Congruent right correct Normal 505.4771
203 145 LeftLarger RTTaskAExp2 Prime_4A Target_9N EMfAHDg GbcjAia Incongruent left correct Normal 535.4941
203 146 LeftLarger RTTaskAExp2 Prime_4N Target_1A ckghdli KhJiaLF Congruent right correct Normal 446.0937
203 147 LeftLarger RTTaskAExp2 Prime_6A Target_9A hgBAjme GmDILCF Congruent left correct Normal 426.2543
203 148 LeftLarger RTTaskAExp2 Prime_9N Target_4A MIDdBhm DmegjFJ Incongruent right correct Normal 359.4284
203 149 LeftLarger RTTaskAExp2 Prime_6N Target_4A bcMEFIe HhAeLdG Incongruent right correct Normal 329.7009
203 150 LeftLarger RTTaskAExp2 Prime_4N Target_1N MDFEgJH AjkMeJL Congruent right correct Normal 450.3229
203 151 LeftLarger RTTaskAExp2 Prime_6N Target_4N mGLFDIf FedkMGH Incongruent right correct Normal 337.8006
203 152 LeftLarger RTTaskAExp2 Prime_9A Target_4N CmcagEB dAlbDmh Incongruent right correct Normal 373.7817
203 153 LeftLarger RTTaskAExp2 Prime_6N Target_6A kgeHLmd cmElhaC Congruent left correct Normal 326.3716
203 154 LeftLarger RTTaskAExp2 Prime_6A Target_4N HiAfcgk dFEGaJI Incongruent right correct Normal 417.1767
203 155 LeftLarger RTTaskAExp2 Prime_6N Target_9A MLCibED LfbKahe Congruent left correct Normal 675.9344
203 156 LeftLarger RTTaskAExp2 Prime_4N Target_6A hljBkDF iELJDfg Incongruent left correct Normal 466.6299
203 157 LeftLarger RTTaskAExp2 Prime_4N Target_4N LlkghJI ejihKfA Congruent right correct Normal 456.7759
203 158 LeftLarger RTTaskAExp2 Prime_9A Target_6A lgjbHfC EilJCaF Congruent left correct Normal 271.3109
203 159 LeftLarger RTTaskAExp2 Prime_9N Target_1N BcAkalj lMGFBck Incongruent right correct Normal 364.4891
203 160 LeftLarger RTTaskAExp2 Prime_4N Target_6N DadCKjf cKFHdEk Incongruent left correct Normal 503.52
203 161 LeftLarger RTTaskAExp2 Prime_9N Target_6N elIBLmM FHgDlie Congruent left correct Normal 444.8268
203 162 LeftLarger RTTaskAExp2 Prime_1A Target_4A FfBkdeH hBacbgm Congruent right correct Normal 527.5054
203 163 LeftLarger RTTaskAExp2 Prime_4N Target_9N bmAghdF iBbldEA Incongruent left correct Normal 496.7653
203 164 LeftLarger RTTaskAExp2 Prime_6N Target_9N fLDbCjK cCFKaIg Congruent left correct Normal 445.7519
203 165 LeftLarger RTTaskAExp2 Prime_9N Target_9A HblkAKd LHKiGEf Congruent left correct Normal 479.9488
203 166 LeftLarger RTTaskAExp2 Prime_9N Target_1A FfEdgbm jgFfEbi Incongruent right correct Normal 411.6368
203 167 LeftLarger RTTaskAExp2 Prime_9A Target_1A dejDmCf LGHJjdm Incongruent right correct Normal 394.8026
203 168 LeftLarger RTTaskAExp2 Prime_9N Target_4N mcCgKJM JKhGjaf Incongruent right correct Normal 455.8344
203 169 LeftLarger RTTaskAExp2 Prime_1N Target_1A MKDegmb BbhkdeD Congruent right correct Normal 350.2435
203 170 LeftLarger RTTaskAExp2 Prime_1N Target_1N DKmBjHA JLKkAje Congruent right correct Normal 472.2811
203 171 LeftLarger RTTaskAExp2 Prime_9A Target_9N aIJhHDm mBeDFKL Congruent left correct Normal 433.5943
203 172 LeftLarger RTTaskAExp2 Prime_4N Target_9A ECkMLli DMbgcLB Incongruent right error Normal 401.7481
203 173 LeftLarger RTTaskAExp2 Prime_4N Target_9A EhkFlCK eahmilA Incongruent left correct Normal 473.4334
203 174 LeftSmaller RTTaskBPrac Prime_6N Target_6A bGlJcIF LdCAGDM Congruent right correct Normal 563.5871
203 175 LeftSmaller RTTaskBPrac Prime_9A Target_4A HGekCcF JcfBmMI Incongruent left correct Normal 372.2962
203 176 LeftSmaller RTTaskBPrac Prime_9A Target_9A kEiLCGg DCmLFGI Congruent right correct Normal 372.5758
203 177 LeftSmaller RTTaskBPrac Prime_1A Target_1N fLgmAbH gHlIfjB Congruent left correct Normal 412.3229
203 178 LeftSmaller RTTaskBPrac Prime_1N Target_9N KfdmclD aLDchHf Incongruent right correct Normal 600.2487
203 179 LeftSmaller RTTaskBPrac Prime_1A Target_6N dFhefjb ICljKJh Incongruent right correct Normal 524.9549
203 180 LeftSmaller RTTaskBPrac Prime_4N Target_1N lMKLDdh fEFkdgm Congruent left correct Normal 419.1319
203 181 LeftSmaller RTTaskBPrac Prime_1N Target_9A JjBdmCD eFJgkhi Incongruent right correct Normal 375.0031
203 182 LeftSmaller RTTaskBPrac Prime_9A Target_6A KldmIkJ Kjaklge Congruent right correct Normal 450.6903
203 183 LeftSmaller RTTaskBPrac Prime_4A Target_9A kfmcGhA FGbAcHf Incongruent right correct Normal 363.7286
203 184 LeftSmaller RTTaskBPrac Prime_9N Target_1A CkhEeKB BLKFIcb Incongruent left correct Normal 385.1382
203 185 LeftSmaller RTTaskBPrac Prime_4N Target_4A hjLemAB AkJgcbi Congruent left correct Normal 391.0563
203 186 LeftSmaller RTTaskBPrac Prime_9A Target_1A mEliGBb hHjmLfE Incongruent left correct Normal 457.562
203 187 LeftSmaller RTTaskBPrac Prime_9N Target_6A DHKjckM DGJkILa Congruent right correct Normal 369.8389
203 188 LeftSmaller RTTaskBPrac Prime_6N Target_9A iAmaCBe cDJBjAf Congruent right correct Normal 469.13
203 189 LeftSmaller RTTaskBPrac Prime_1N Target_6N jbJDGkE jaCKEld Incongruent right correct Normal 394.7134
203 190 LeftSmaller RTTaskBExp1 Prime_1A Target_1A CLBjAik CcAiaMm Congruent left correct Normal 521.2037
203 191 LeftSmaller RTTaskBExp1 Prime_9N Target_6N EAJKFmd BbFjCGm Congruent right correct Normal 631.324
203 192 LeftSmaller RTTaskBExp1 Prime_6A Target_4N BJjAfGC BLKlhjH Incongruent right error Normal 483.2885
203 193 LeftSmaller RTTaskBExp1 Prime_9A Target_6N gGaJCAd kMDICcE Congruent left error Normal 500.3293
203 194 LeftSmaller RTTaskBExp1 Prime_6A Target_4A ilFCLkI jhALJDI Incongruent left correct Normal 617.4074
203 195 LeftSmaller RTTaskBExp1 Prime_1A Target_9N abjcFAI ifjIalb Incongruent right correct Normal 400.8088
203 196 LeftSmaller RTTaskBExp1 Prime_4N Target_4A hGBiKHm abABdke Congruent left correct Normal 408.9842
203 197 LeftSmaller RTTaskBExp1 Prime_6N Target_4N flmaDCB maeCfKD Incongruent left correct Normal 449.0136
203 198 LeftSmaller RTTaskBExp1 Prime_1A Target_6N cIfeKBH jEIKmfb Incongruent right correct Normal 471.8114
203 199 LeftSmaller RTTaskBExp1 Prime_9N Target_9A LEaKAhH famjhCb Congruent right correct Normal 527.95
203 200 LeftSmaller RTTaskBExp1 Prime_4A Target_4N hlkdMLI kEdBMaL Congruent left correct Normal 633.9982
203 201 LeftSmaller RTTaskBExp1 Prime_6A Target_4N FBkdiCD LMKbFAB Incongruent left correct Normal 575.4297
203 202 LeftSmaller RTTaskBExp1 Prime_4N Target_6N jKFcmdD JbfKigh Incongruent right correct Normal 471.854
203 203 LeftSmaller RTTaskBExp1 Prime_9A Target_6N EIhlcem jeDdEmF Congruent right correct Normal 405.9028
203 204 LeftSmaller RTTaskBExp1 Prime_6A Target_1A mldjKJH gfiCLbH Incongruent left correct Normal 358.1818
203 205 LeftSmaller RTTaskBExp1 Prime_4N Target_9N LBCjJlK cJFhikB Incongruent right correct Normal 310.2053
203 206 LeftSmaller RTTaskBExp1 Prime_1A Target_6A mDjegFi hegIMFd Incongruent right correct Normal 539.7449
203 207 LeftSmaller RTTaskBExp1 Prime_6N Target_4A icJFgHD BegLdji Incongruent left correct Normal 390.6786
203 208 LeftSmaller RTTaskBExp1 Prime_9N Target_4N cFJLIfE ecLbMlj Incongruent right error Normal 284.4465
203 209 LeftSmaller RTTaskBExp1 Prime_9A Target_1N hMajdmI ibKmcMB Incongruent left correct Normal 472.1344
203 210 LeftSmaller RTTaskBExp1 Prime_6N Target_6N EAjmJLi BKljLMh Congruent left error Normal 372.6361
203 211 LeftSmaller RTTaskBExp1 Prime_6N Target_6A LaKHAEh chKdbak Congruent right correct Normal 549.0932
203 212 LeftSmaller RTTaskBExp1 Prime_6N Target_6N LajgkME eAMadhL Congruent right correct Normal 390.0663
203 213 LeftSmaller RTTaskBExp1 Prime_9N Target_1N ClIEgMc EKaghJM Incongruent left correct Normal 480.2717
203 214 LeftSmaller RTTaskBExp1 Prime_6N Target_1N mgGIjJM hlkCLMj Incongruent left correct Normal 419.6341
203 215 LeftSmaller RTTaskBExp1 Prime_9A Target_6A FCGLelg hHKcdMB Congruent right correct Normal 336.1628
203 216 LeftSmaller RTTaskBExp1 Prime_9N Target_6A HbKGEkf Cjlcdmb Congruent right correct Normal 563.8172
203 217 LeftSmaller RTTaskBExp1 Prime_4N Target_1A mDCAilg mjFLgHE Congruent left correct Normal 393.2734
203 218 LeftSmaller RTTaskBExp1 Prime_6A Target_6N EFbkmGH bcjIfGK Congruent right correct Normal 309.9158
203 219 LeftSmaller RTTaskBExp1 Prime_4A Target_1N LBfjHhC BEkhmjb Congruent left correct Normal 485.1308
203 220 LeftSmaller RTTaskBExp1 Prime_1A Target_1N eFGkhjA GEIiCJL Congruent left correct Normal 394.0902
203 221 LeftSmaller RTTaskBExp1 Prime_6A Target_9N dHLMEkA MjEBaCD Congruent left error Normal 376.2517
203 222 LeftSmaller RTTaskBExp1 Prime_4A Target_9A lgLDGEa kMgjGLE Incongruent right correct Normal 661.303
203 223 LeftSmaller RTTaskBExp1 Prime_9N Target_4A gEbLiIA LcbGdkC Incongruent left correct Normal 480.5021
203 224 LeftSmaller RTTaskBExp1 Prime_1A Target_9A mcAkiaE giLCMhF Incongruent right correct Normal 368.1203
203 225 LeftSmaller RTTaskBExp1 Prime_1A Target_4N GKLhaBd fLKHbjB Congruent left correct Normal 376.3045
203 226 LeftSmaller RTTaskBExp1 Prime_4A Target_6N mFLDajg LDAadcF Incongruent right correct Normal 358.3522
203 227 LeftSmaller RTTaskBExp1 Prime_4N Target_9A AjfJihg eBafFmj Incongruent right correct Normal 435.7443
203 228 LeftSmaller RTTaskBExp1 Prime_1N Target_1N dEeCjmh BkhJGFf Congruent left correct Normal 410.1579
203 229 LeftSmaller RTTaskBExp1 Prime_9A Target_4N kfAadcG jdMcfgB Incongruent left correct Normal 573.3008
203 230 LeftSmaller RTTaskBExp1 Prime_4N Target_6A cLmKhDi DamjgKC Incongruent right correct Normal 729.5424
203 231 LeftSmaller RTTaskBExp1 Prime_4A Target_4A HJKAijB EBIGHLD Congruent left correct Normal 421.0676
203 232 LeftSmaller RTTaskBExp1 Prime_1N Target_6A gCAhBam ILFDcCg Incongruent right correct Normal 477.3476
203 233 LeftSmaller RTTaskBExp1 Prime_1A Target_4A GbhiJFc eFhGdLC Congruent left correct Normal 369.7269
203 234 LeftSmaller RTTaskBExp1 Prime_4A Target_9N aHKliBk lckeiJf Incongruent right correct Normal 342.0499
203 235 LeftSmaller RTTaskBExp1 Prime_1N Target_4N AgDclIH AGkJCif Congruent left correct Normal 585.711
203 236 LeftSmaller RTTaskBExp1 Prime_9A Target_9N jmiklbC BklMjiE Congruent right correct Normal 433.8694
203 237 LeftSmaller RTTaskBExp1 Prime_6N Target_1A MECBIfD hgIKEjm Incongruent left correct Normal 498.3958
203 238 LeftSmaller RTTaskBExp1 Prime_4N Target_1N IALdila kJlGgKf Congruent left correct Normal 499.5695
203 239 LeftSmaller RTTaskBExp1 Prime_4N Target_4N BJGFLki cACLadl Congruent right error Normal 511.1161
203 240 LeftSmaller RTTaskBExp1 Prime_1N Target_1A GgmBICj KjahgCE Congruent left correct Normal 418.0121
203 241 LeftSmaller RTTaskBExp1 Prime_1N Target_9A kDGELmh EJeligj Incongruent right correct Normal 391.4646
203 242 LeftSmaller RTTaskBExp1 Prime_6A Target_9N lkLjECm mHKjEBD Congruent right correct Normal 659.738
203 243 LeftSmaller RTTaskBExp1 Prime_9N Target_1A CJfGcmb LMgklaI Incongruent left correct Normal 445.9094
203 244 LeftSmaller RTTaskBExp1 Prime_4A Target_1A dFhlcbj mIMdHAD Congruent left correct Normal 501.4431
203 245 LeftSmaller RTTaskBExp1 Prime_9N Target_9N DIAJiBj bfDhMAE Congruent right correct Normal 426.2431
203 246 LeftSmaller RTTaskBExp1 Prime_6A Target_1N egkdMfm iaCfEbk Incongruent left correct Normal 481.1599
203 247 LeftSmaller RTTaskBExp1 Prime_9A Target_4A CfKdcBb FfmkeLM Incongruent left correct Normal 568.3334
203 248 LeftSmaller RTTaskBExp1 Prime_1N Target_6N AeEMDml hDBKFef Incongruent right correct Normal 478.0058
203 249 LeftSmaller RTTaskBExp1 Prime_1N Target_4A CiBbMEG hfKjBeH Congruent left correct Normal 319.618
203 250 LeftSmaller RTTaskBExp1 Prime_9A Target_9A GlMbecH jEBeDGK Congruent right correct Normal 378.555
203 251 LeftSmaller RTTaskBExp1 Prime_9A Target_1A bHhjadl BAGhEab Incongruent left correct Normal 297.3574
203 252 LeftSmaller RTTaskBExp1 Prime_9N Target_4N IgeajEC EJImhDA Incongruent right error Normal 368.3874
203 253 LeftSmaller RTTaskBExp1 Prime_6A Target_6A HiJIDEG AGgklja Congruent right correct Normal 551.1874
203 254 LeftSmaller RTTaskBExp1 Prime_6N Target_9N CMjLkgH GjcbFeK Congruent right correct Normal 522.3513
203 255 LeftSmaller RTTaskBExp1 Prime_6N Target_9A fKkedAL LiMBjfF Congruent right correct Normal 438.3377
203 256 LeftSmaller RTTaskBExp1 Prime_4N Target_4N ikhbGef bHMedjm Congruent left correct Normal 387.0827
203 257 LeftSmaller RTTaskBExp1 Prime_1N Target_9N HhGfaFd eBLGikI Incongruent right correct Normal 511.3601
203 258 LeftSmaller RTTaskBExp1 Prime_9N Target_4N AeMjiHb kFgAJch Incongruent left correct Normal 446.2926
203 259 LeftSmaller RTTaskBExp1 Prime_4A Target_6A bMKLHEh LHKaDFl Incongruent right correct Normal 544.5817
203 260 LeftSmaller RTTaskBExp1 Prime_6A Target_9A JEiIegh LCilGhM Congruent right correct Normal 319.8505
203 261 LeftSmaller RTTaskBExp2 Prime_6N Target_1A BHGJMgm GejHidc Incongruent left correct Normal 440.1897
203 262 LeftSmaller RTTaskBExp2 Prime_4N Target_4N Bamklfb EAFCKmc Congruent right error Normal 699.1232
203 263 LeftSmaller RTTaskBExp2 Prime_6A Target_1N djJDIkb AdJjmaE Incongruent left correct Normal 432.1492
203 264 LeftSmaller RTTaskBExp2 Prime_6N Target_1N lFafbHe cjlFmIi Incongruent left correct Normal 381.7228
203 265 LeftSmaller RTTaskBExp2 Prime_9A Target_9A MAbkigD IfceiLH Congruent right correct Normal 474.1261
203 266 LeftSmaller RTTaskBExp2 Prime_1N Target_6A bghaMiD jIfLaBD Incongruent left error Normal 397.2988
203 267 LeftSmaller RTTaskBExp2 Prime_9A Target_6A EKkhAMa KGDAbBM Congruent right correct Normal 510.8102
203 268 LeftSmaller RTTaskBExp2 Prime_4N Target_6N ChMeDfL egFbkBl Incongruent right correct Normal 448.3412
203 269 LeftSmaller RTTaskBExp2 Prime_9N Target_6A IKJaLeB kehaDGE Congruent right correct Normal 333.4335
203 270 LeftSmaller RTTaskBExp2 Prime_1N Target_4A KiLJIah FhEGmHf Congruent right error Normal 253.5821
203 271 LeftSmaller RTTaskBExp2 Prime_9A Target_1N jfLJiCg BkGijgb Incongruent left correct Normal 456.7938
203 272 LeftSmaller RTTaskBExp2 Prime_6A Target_6N BLGAchJ BGcjgKI Congruent right correct Normal 520.6731
203 273 LeftSmaller RTTaskBExp2 Prime_1N Target_4A iEbLhaf GALHBIC Congruent left correct Normal 498.4775
203 274 LeftSmaller RTTaskBExp2 Prime_9N Target_1A iebdCMJ FaeCAfi Incongruent left correct Normal 501.3931
203 275 LeftSmaller RTTaskBExp2 Prime_1N Target_4N LKIiJCm HAGECbm Congruent left correct Normal 605.2581
203 276 LeftSmaller RTTaskBExp2 Prime_6A Target_9A LlGfCFm JdhFlfg Congruent right correct Normal 407.2919
203 277 LeftSmaller RTTaskBExp2 Prime_6N Target_4N mADcbjk CdiKHMJ Incongruent left correct Normal 529.143
203 278 LeftSmaller RTTaskBExp2 Prime_6N Target_4A JbclDIf MaIGiHj Incongruent right error Normal 488.7496
203 279 LeftSmaller RTTaskBExp2 Prime_4A Target_1N JdfHiFA GADfbih Congruent left correct Normal 462.9908
203 280 LeftSmaller RTTaskBExp2 Prime_9N Target_4A dcmMagK bDkLhJj Incongruent left correct Normal 697.6418
203 281 LeftSmaller RTTaskBExp2 Prime_1A Target_6A KfcGghH jBCMJEL Incongruent right correct Normal 327.1854
203 282 LeftSmaller RTTaskBExp2 Prime_1A Target_1A dHLAbha eafEIbh Congruent left correct Normal 414.0977
203 283 LeftSmaller RTTaskBExp2 Prime_9N Target_1N dgHihLl CjBAamJ Incongruent left correct Normal 432.8843
203 284 LeftSmaller RTTaskBExp2 Prime_6A Target_4N CbgdKJG JCkBaIe Incongruent left correct Normal 486.0566
203 285 LeftSmaller RTTaskBExp2 Prime_6A Target_9N kgAIFbB mEkfAhl Congruent right correct Normal 336.3613
203 286 LeftSmaller RTTaskBExp2 Prime_4A Target_6N MbElmak eLghHAm Incongruent left error Normal 385.5364
203 287 LeftSmaller RTTaskBExp2 Prime_9A Target_1A IMaGefb HLkdClG Incongruent left correct Normal 368.1629
203 288 LeftSmaller RTTaskBExp2 Prime_9A Target_9N eJgbBlD EcIhbJG Congruent right correct Normal 614.9888
203 289 LeftSmaller RTTaskBExp2 Prime_9N Target_9N bBAiCjg jcbmLha Congruent left error Normal 458.1561
203 290 LeftSmaller RTTaskBExp2 Prime_6N Target_9N kHAdmKg JhbiBMK Congruent right correct Normal 557.9436
203 291 LeftSmaller RTTaskBExp2 Prime_4A Target_6N DMAmhkl aekdLfD Incongruent left error Normal 533.6316
203 292 LeftSmaller RTTaskBExp2 Prime_1N Target_6N BJgLbEh ekEgfKD Incongruent right correct Normal 601.4049
203 293 LeftSmaller RTTaskBExp2 Prime_6N Target_6A eKJacid MCkEmba Congruent right correct Normal 395.9831
203 294 LeftSmaller RTTaskBExp2 Prime_6A Target_6A CHbKAMa kiEeBfh Congruent right correct Normal 353.3837
203 295 LeftSmaller RTTaskBExp2 Prime_4N Target_4A HhkcCjm CMhbBil Congruent left correct Normal 402.4226
203 296 LeftSmaller RTTaskBExp2 Prime_1N Target_6A LEmjJag AgkKGcl Incongruent right correct Normal 458.2479
203 297 LeftSmaller RTTaskBExp2 Prime_1N Target_9N kijJEGC ifBIJhj Incongruent right correct Normal 489.7068
203 298 LeftSmaller RTTaskBExp2 Prime_4N Target_6A BHhGjDL ELlIcmC Incongruent right correct Normal 772.9074
203 299 LeftSmaller RTTaskBExp2 Prime_1N Target_1N kbBeIAi ijFLcCH Congruent right error Normal 356.2225
203 300 LeftSmaller RTTaskBExp2 Prime_1N Target_1A AbLHMla ghjILED Congruent left correct Normal 498.1507
203 301 LeftSmaller RTTaskBExp2 Prime_4N Target_9A meJcgil cJhKGLg Incongruent right correct Normal 510.4428
203 302 LeftSmaller RTTaskBExp2 Prime_1N Target_9A AigMKdJ kAeGEhm Incongruent right correct Normal 430.3718
203 303 LeftSmaller RTTaskBExp2 Prime_1A Target_9N ALlJbkm BCkGbjd Incongruent right correct Normal 393.7581
203 304 LeftSmaller RTTaskBExp2 Prime_1A Target_4N KIafEBA JlGjMFA Congruent left correct Normal 489.5704
203 305 LeftSmaller RTTaskBExp2 Prime_1A Target_6N CMKILEm lFfDmAb Incongruent right correct Normal 352.2168
203 306 LeftSmaller RTTaskBExp2 Prime_6N Target_9A ABlgaJb CLmhHiM Congruent right correct Normal 436.7809
203 307 LeftSmaller RTTaskBExp2 Prime_4N Target_4N cdgGiHF BElmCfk Congruent left correct Normal 503.5382
203 308 LeftSmaller RTTaskBExp2 Prime_4N Target_1N MfGDAbC mHgEhac Congruent left correct Normal 500.4677
203 309 LeftSmaller RTTaskBExp2 Prime_9N Target_6N AiMgDhc HagJjfB Congruent right correct Normal 493.8809
203 310 LeftSmaller RTTaskBExp2 Prime_6A Target_1A ekhlmKg JKjAFlm Incongruent left correct Normal 455.8038
203 311 LeftSmaller RTTaskBExp2 Prime_4A Target_4A dMKGkgA bCiAJIh Congruent left correct Normal 470.2222
203 312 LeftSmaller RTTaskBExp2 Prime_4A Target_9A dcDBAFG GeBgIic Incongruent right correct Normal 405.7322
203 313 LeftSmaller RTTaskBExp2 Prime_1N Target_1N ihFbEBm miDfEJd Congruent left correct Normal 444.8907
203 314 LeftSmaller RTTaskBExp2 Prime_1A Target_4A JDHAKIh HAhlGeg Congruent left correct Normal 454.57
203 315 LeftSmaller RTTaskBExp2 Prime_4A Target_1A EgIkGbi liakAcm Congruent left correct Normal 451.6211
203 316 LeftSmaller RTTaskBExp2 Prime_9N Target_9N fCLidke mEjMgcB Congruent right correct Normal 628.2119
203 317 LeftSmaller RTTaskBExp2 Prime_9A Target_6N kbIaDKH fJKMiGe Congruent right correct Normal 390.5372
203 318 LeftSmaller RTTaskBExp2 Prime_4N Target_9N JmadLFi GIaeKmh Incongruent right correct Normal 608.5534
203 319 LeftSmaller RTTaskBExp2 Prime_4A Target_4N GBalDEm JaFEkdm Congruent left correct Normal 682.865
203 320 LeftSmaller RTTaskBExp2 Prime_4A Target_6N GJEjlDm GeCKdmj Incongruent right correct Normal 459.434
203 321 LeftSmaller RTTaskBExp2 Prime_6N Target_4A mjlGKFE dhMgBij Incongruent left correct Normal 405.4884
203 322 LeftSmaller RTTaskBExp2 Prime_9A Target_4N DBMbmla lGjIEam Incongruent left correct Normal 452.9143
203 323 LeftSmaller RTTaskBExp2 Prime_4A Target_9N HkBgGmc cdmCjbF Incongruent right correct Normal 557.41
203 324 LeftSmaller RTTaskBExp2 Prime_4N Target_1A IfKlaLA JgMciGm Congruent left correct Normal 385.1072
203 325 LeftSmaller RTTaskBExp2 Prime_9N Target_9A MLgJhAB FEjhMmg Congruent right correct Normal 396.9609
203 326 LeftSmaller RTTaskBExp2 Prime_6A Target_4A CJBfeKG fchAHkD Incongruent left correct Normal 386.32
203 327 LeftSmaller RTTaskBExp2 Prime_4A Target_6A LfiacEK JBFKDIm Incongruent right correct Normal 326.4796
203 328 LeftSmaller RTTaskBExp2 Prime_6N Target_6N ECgDbjJ MHCkcaj Congruent right correct Normal 501.3655
203 329 LeftSmaller RTTaskBExp2 Prime_9A Target_4A kaeiHIJ JCejfcA Incongruent left correct Normal 431.1946
203 330 LeftSmaller RTTaskBExp2 Prime_1A Target_1N jBGKFka GBfKbEh Congruent left correct Normal 450.8419
203 331 LeftSmaller RTTaskBExp2 Prime_9N Target_4N bJeAKFi GJIDELd Incongruent left correct Normal 469.2701
