sub trial_no group_type block_type prime target mask1 mask2 congruency key_press key_error time_error RT
302 1 LeftLarger PercIAPrac Prime_4N Target_1N DCgHEKd LgfAEiJ Congruent left error Normal 767.8009
302 2 LeftLarger PercIAPrac Prime_9N Target_1N DlihJAH AFBHhjd Incongruent right error Normal 515.8385
302 3 LeftLarger PercIAPrac Prime_9A Target_9N jDIkabG aBmkHiC Congruent left correct Normal 667.2715
302 4 LeftLarger PercIAPrac Prime_1A Target_4N JEfCmed EDFgJKH Congruent right correct Normal 204.1798
302 5 LeftLarger PercIAPrac Prime_1N Target_6N LfeBlmg DMchFbg Incongruent left error Normal 391.6069
302 6 LeftLarger PercIAPrac Prime_9N Target_9N MFhdfGC BcHbMID Congruent left correct Normal 248.2562
302 7 LeftLarger PercIAPrac Prime_9A Target_6A FihLJcK DmhielA Congruent left correct Normal 291.8016
302 8 LeftLarger PercIAPrac Prime_9N Target_6A idKacMg KMjCBim Congruent left correct Normal 283.696
302 9 LeftLarger PercIAPrac Prime_4N Target_1A mhDFfLd AIfFBKC Congruent right correct Normal 202.4986
302 10 LeftLarger PercIAPrac Prime_9N Target_4A hLkClbf MjHFGDE Incongruent right error Normal 211.1612
302 11 LeftLarger PercIAPrac Prime_9A Target_1N mAckEDb geEFcIM Incongruent right error Normal 102.3241
302 12 LeftLarger PercIAPrac Prime_4A Target_6N gcDkCKa KmIafce Incongruent right correct Early 50.17472
302 13 LeftLarger PercIAPrac Prime_1A Target_1A lcjAEhf HfbCKld Congruent left error Early 95.77471
302 14 LeftLarger PercIAPrac Prime_6A Target_4A KLfImla gCKiIbm Incongruent left correct Normal 323.5568
302 15 LeftLarger PercIAPrac Prime_1A Target_4A jiDglMK gDkJihe Congruent right correct Normal 108.3495
302 16 LeftLarger PercIAPrac Prime_1N Target_6A EglGamk eCKdmbj Incongruent right correct Normal 355.8343
302 17 LeftLarger PercIAExp1 Prime_1N Target_1A ebKlGHj hIjHiaA Congruent left error Normal 398.1609
302 18 LeftLarger PercIAExp1 Prime_6N Target_4A iEhbaMK lBKdjFk Incongruent right error Normal 3490.508
302 19 LeftLarger PercIAExp1 Prime_9N Target_6A jKeBGLH hHGblam Congruent right error Normal 403.2947
302 20 LeftLarger PercIAExp1 Prime_4N Target_9A ckgBhLe ICgimKc Incongruent left error Normal 394.4771
302 21 LeftLarger PercIAExp1 Prime_6A Target_9N LdMBaEi mjMgKIJ Congruent left correct Normal 152.2477
302 22 LeftLarger PercIAExp1 Prime_1A Target_6A DIjKhkB KEDGlke Incongruent left error Normal 140.7087
302 23 LeftLarger PercIAExp1 Prime_9A Target_4N fGcbCIJ CIefhcM Incongruent left correct Normal 338.7284
302 24 LeftLarger PercIAExp1 Prime_6N Target_4N IGLhjlF GIFCmHA Incongruent right error Normal 221.753
302 25 LeftLarger PercIAExp1 Prime_4A Target_9A bcMHAad gMcfEdH Incongruent left error Normal 150.6559
302 26 LeftLarger PercIAExp1 Prime_4A Target_4N bhdALEl EiKlmge Congruent left error Normal 171.4214
302 27 LeftLarger PercIAExp1 Prime_6N Target_1N dDAGCJb CfgceBI Incongruent right error Normal 283.5525
302 28 LeftLarger PercIAExp1 Prime_4A Target_4A FihAcBg madFLIi Congruent right correct Normal 262.5834
302 29 LeftLarger PercIAExp1 Prime_4N Target_6A eCMABHL kFfGLbd Incongruent right correct Early 58.6379
302 30 LeftLarger PercIAExp1 Prime_9A Target_6A mfBIkjD dehlEMf Congruent right error Normal 188.9633
302 31 LeftLarger PercIAExp1 Prime_1A Target_4N eBjHbDl ElJdMgH Congruent right correct Normal 220.0776
302 32 LeftLarger PercIAExp1 Prime_9N Target_9N EeKaBMb lHhMJmG Congruent left correct Normal 125.7725
302 33 LeftLarger PercIAExp1 Prime_4N Target_9N hgdIGeK jikchaf Incongruent right correct Normal 3167.738
302 34 LeftLarger PercIAExp1 Prime_1A Target_9A fmJjgMA BmAgDGh Incongruent right correct Normal 440.5305
302 35 LeftLarger PercIAExp1 Prime_6A Target_1A eLBCKdD meCcJid Incongruent right error Normal 758.0319
302 36 LeftLarger PercIAExp1 Prime_1N Target_6N MAEiFDJ EdJIFaM Incongruent left error Normal 222.4851
302 37 LeftLarger PercIAExp1 Prime_6N Target_1A kHMFLGB CLMiBHI Incongruent left correct Normal 178.0502
302 38 LeftLarger PercIAExp1 Prime_9A Target_6N BMbKFlf gFGcEkd Congruent left correct Normal 695.809
302 39 LeftLarger PercIAExp1 Prime_1N Target_9N cAFgkle MiLAImF Incongruent left error Normal 504.3624
302 40 LeftLarger PercIAExp1 Prime_9A Target_9N kDflieC MjCLGKF Congruent right error Normal 694.834
302 41 LeftLarger PercIAExp1 Prime_1N Target_1N EKmljIg AkeLbKH Congruent right correct Normal 342.6884
302 42 LeftLarger PercIAExp1 Prime_6N Target_9N FLJKGfC KcdjbDl Congruent right error Normal 180.8208
302 43 LeftLarger PercIAExp1 Prime_4A Target_1A aHGmLCB IEekLMG Congruent right correct Early 98.21041
302 44 LeftLarger PercIAExp1 Prime_6A Target_1N JeIiHKb LGEHFKg Incongruent right error Normal 101.3906
302 45 LeftLarger PercIAExp1 Prime_9N Target_6N keDBcij bkBgHJF Congruent right error Normal 3589.384
302 46 LeftLarger PercIAExp1 Prime_1A Target_1N JjKhBcL FjdMBIA Congruent left error Normal 485.6672
302 47 LeftLarger PercIAExp1 Prime_6N Target_6N EbmGBec HmfcDGM Congruent right error Normal 403.709
302 48 LeftLarger PercIAExp1 Prime_4N Target_6N kbjhIaC bMhdlkj Incongruent right correct Normal 486.866
302 49 LeftLarger PercIAExp1 Prime_9A Target_1N gCeDkLI mdjCKak Incongruent right error Normal 311.4059
302 50 LeftLarger PercIAExp1 Prime_1N Target_6A lGkFdMc dKADIji Incongruent right correct Normal 185.8257
302 51 LeftLarger PercIAExp1 Prime_9N Target_9A DJmkeFg jIJLdlF Congruent left correct Normal 332.1203
302 52 LeftLarger PercIAExp1 Prime_6A Target_6A giAjBbI iLjJDlC Congruent left correct Normal 437.8957
302 53 LeftLarger PercIAExp1 Prime_1N Target_4N ABIGgbE HfmiaeG Congruent left error Normal 356.3213
302 54 LeftLarger PercIAExp1 Prime_4A Target_6N KMjbfkH jkmecfg Incongruent left error Normal 112.0822
302 55 LeftLarger PercIAExp1 Prime_1A Target_6N JbgEBAi iIdjelK Incongruent left error Normal 693.8962
302 56 LeftLarger PercIAExp1 Prime_9N Target_4N kMdGIhK dMicega Incongruent right error Normal 373.4186
302 57 LeftLarger PercIAExp1 Prime_1A Target_1A LaBchgm IGDCLgM Congruent right correct Normal 303.9658
302 58 LeftLarger PercIAExp1 Prime_4A Target_6A eEcHmgd kcEiKFB Incongruent right correct Normal 195.1196
302 59 LeftLarger PercIAExp1 Prime_9A Target_4A DAMFICj cAHJejC Incongruent right error Normal 333.8483
302 60 LeftLarger PercIAExp1 Prime_9N Target_1A mlbIhMc feJhbEk Incongruent right error Normal 1124.175
302 61 LeftLarger PercIAExp1 Prime_6A Target_4N FJdBhDI lHAiCfb Incongruent right error Normal 639.3345
302 62 LeftLarger PercIAExp1 Prime_1A Target_9N gjdlDJb gCFDLGm Incongruent right correct Normal 684.6706
302 63 LeftLarger PercIAExp1 Prime_9N Target_1N aHgdheB defiKFC Incongruent right error Normal 511.3317
302 64 LeftLarger PercIAExp1 Prime_9N Target_4A FBDmadc IfFMEhe Incongruent right error Normal 687.7621
302 65 LeftLarger PercIAExp1 Prime_6N Target_6A HeAkgiD IHKGfjm Congruent left correct Normal 429.8162
302 66 LeftLarger PercIAExp1 Prime_9A Target_1A gfGhjKd jFJBHdg Incongruent left correct Normal 675.582
302 67 LeftLarger PercIAExp1 Prime_6A Target_9A BmhHMbD dGiJmKj Congruent left correct Normal 316.4992
302 68 LeftLarger PercIAExp1 Prime_6A Target_6N FjhLfeB FBAcbhk Congruent left correct Normal 450.6257
302 69 LeftLarger PercIAExp1 Prime_4A Target_9N GLFlEde hmFCHMB Incongruent left error Normal 377.0921
302 70 LeftLarger PercIAExp1 Prime_1A Target_4A aCMiFEj gMAFcGa Congruent right correct Normal 448.3956
302 71 LeftLarger PercIAExp1 Prime_4A Target_1N lbEBdJj bdCAIBK Congruent right correct Normal 195.673
302 72 LeftLarger PercIAExp1 Prime_6A Target_4A ClcGeAB dFieLDm Incongruent right error Normal 110.8448
302 73 LeftLarger PercIAExp1 Prime_1N Target_4A JlbIBFG kHJAIBi Congruent right correct Early 82.49892
302 74 LeftLarger PercIAExp1 Prime_4N Target_4A cAFDMgj HLdhKGD Congruent right correct Normal 281.2776
302 75 LeftLarger PercIAExp1 Prime_4N Target_1A IMEgaDd akDIicA Congruent right correct Normal 400.5277
302 76 LeftLarger PercIAExp1 Prime_6N Target_9A Biklcmj hJGaCHe Congruent left correct Early 93.49108
302 77 LeftLarger PercIAExp1 Prime_4N Target_1N JECmdgi KiCmJFa Congruent left error Normal 115.3875
302 78 LeftLarger PercIAExp1 Prime_9A Target_9A cAekdGJ HGcLgFI Congruent left correct Normal 111.5482
302 79 LeftLarger PercIAExp1 Prime_4N Target_4N MiJgfae kDIJifj Congruent left error Early 45.59825
302 80 LeftLarger PercIAExp1 Prime_1N Target_9A KFDMLBd aBcADHm Incongruent left error Normal 137.5066
302 81 LeftSmaller PercIBPrac Prime_6A Target_4N HKleaJM fdFEbmA Incongruent right correct Normal 267.6157
302 82 LeftSmaller PercIBPrac Prime_1A Target_1A GckeAEb EheGmLk Congruent right error Early 25.65595
302 83 LeftSmaller PercIBPrac Prime_1A Target_9A AaHclFj EAhdlHe Incongruent right error Early 35.07147
302 84 LeftSmaller PercIBPrac Prime_9A Target_9A lJfihjb mbJfkBM Congruent right correct Normal 1938.665
302 85 LeftSmaller PercIBPrac Prime_4N Target_9A eKhakBH CGLlFMm Incongruent right error Normal 149.2649
302 86 LeftSmaller PercIBPrac Prime_6A Target_4A cmELebC BFikAEJ Incongruent right correct Early 16.19956
302 87 LeftSmaller PercIBPrac Prime_4A Target_9N iBbeImJ gEFClhk Incongruent left correct Normal 135.842
302 88 LeftSmaller PercIBPrac Prime_1A Target_6N ekcgACi lIJmMHh Incongruent left correct Normal 210.7395
302 89 LeftSmaller PercIBPrac Prime_6A Target_9A fFLhjBl HCeFkKM Congruent left error Normal 335.2707
302 90 LeftSmaller PercIBPrac Prime_1N Target_4A HjbgfKG CaGIiDA Congruent right error Early 47.23088
302 91 LeftSmaller PercIBPrac Prime_1N Target_6A FEIbGli gJbIdam Incongruent right error Normal 1324.604
302 92 LeftSmaller PercIBPrac Prime_9N Target_6A IGlAMLJ fBKFAEM Congruent right correct Normal 3478.607
302 93 LeftSmaller PercIBPrac Prime_6A Target_1N eHGjaLJ egIalmH Incongruent right correct Normal 112.5194
302 94 LeftSmaller PercIBPrac Prime_9N Target_4A bJecLda dMCJbKG Incongruent right correct Normal 121.1655
302 95 LeftSmaller PercIBPrac Prime_4N Target_1A KfHhLAG FIcLCdE Congruent right error Normal 150.2633
302 96 LeftSmaller PercIBPrac Prime_4A Target_6N lIhiCMe mAgDKlJ Incongruent left correct Normal 454.789
302 97 LeftSmaller PercIBExp1 Prime_6A Target_1A IBDakLe dblhJIf Incongruent right correct Normal 358.2825
302 98 LeftSmaller PercIBExp1 Prime_9N Target_9A AEjlLJb lMjefdL Congruent left error Normal 109.4532
302 99 LeftSmaller PercIBExp1 Prime_9A Target_1N bdeFjDL ehKEHbC Incongruent right correct Early 63.39532
302 100 LeftSmaller PercIBExp1 Prime_6A Target_4A IGDdCFa HkAMdLF Incongruent right correct Early 84.76822
302 101 LeftSmaller PercIBExp1 Prime_9A Target_9A EbIlead Afelick Congruent right correct Early 66.95788
302 102 LeftSmaller PercIBExp1 Prime_9A Target_1A LclhKgb cDAEiMd Incongruent right correct Normal 121.0863
302 103 LeftSmaller PercIBExp1 Prime_4A Target_4A bBgJhEd BgLiblC Congruent right error Early 55.70051
302 104 LeftSmaller PercIBExp1 Prime_4A Target_9N FGEdJfb IaedGHk Incongruent right error Normal 124.9994
302 105 LeftSmaller PercIBExp1 Prime_4N Target_1A DcMmAIJ GDaFjMd Congruent right error Normal 230.1972
302 106 LeftSmaller PercIBExp1 Prime_4A Target_1N caCBiGb IjebkhE Congruent left correct Normal 131.2161
302 107 LeftSmaller PercIBExp1 Prime_6N Target_6A IFJcEgD ihmcHbj Congruent left error Normal 349.3385
302 108 LeftSmaller PercIBExp1 Prime_6N Target_1N kALjKGc kBeJLlI Incongruent left error Early 37.06916
302 109 LeftSmaller PercIBExp1 Prime_6A Target_1N ciEeIBl KdFkCei Incongruent right correct Normal 230.697
302 110 LeftSmaller PercIBExp1 Prime_4A Target_1A BHdFMCf dGCfkAc Congruent left correct Normal 413.8119
302 111 LeftSmaller PercIBExp1 Prime_6N Target_6N ILFjJBh lmdfbBM Congruent right correct Normal 386.4274
302 112 LeftSmaller PercIBExp1 Prime_4A Target_9A dGIgBDL HBEMJfb Incongruent left correct Normal 1105.696
302 113 LeftSmaller PercIBExp1 Prime_4A Target_4N fckKCGj LBjgfDF Congruent left correct Normal 239.876
302 114 LeftSmaller PercIBExp1 Prime_6N Target_9N ElAIgbe eijGBgc Congruent left error Early 82.92336
302 115 LeftSmaller PercIBExp1 Prime_4N Target_4A deGCbfJ lkKDCjc Congruent left correct Normal 219.0712
302 116 LeftSmaller PercIBExp1 Prime_1N Target_4A DKgHJcL aiglHMG Congruent right error Normal 118.8636
302 117 LeftSmaller PercIBExp1 Prime_6A Target_9A dmgKEAM IALJKgl Congruent right correct Normal 104.8203
302 118 LeftSmaller PercIBExp1 Prime_6N Target_1A fdEhHIi HDcCdja Incongruent right correct Early 46.62698
302 119 LeftSmaller PercIBExp1 Prime_1N Target_1N iBCfEga EjGkHLJ Congruent left correct Normal 130.5932
302 120 LeftSmaller PercIBExp1 Prime_1N Target_9A hjaHeDf MiadIkg Incongruent left correct Normal 226.2678
302 121 LeftSmaller PercIBExp1 Prime_9A Target_4N GeAMKDI FlmiHMa Incongruent left error Normal 264.7945
302 122 LeftSmaller PercIBExp1 Prime_4N Target_6A JhlDAfk GkgcICb Incongruent left correct Early 48.36674
302 123 LeftSmaller PercIBExp1 Prime_1A Target_9A KkegGJc kjeJEdK Incongruent left correct Early 88.51086
302 124 LeftSmaller PercIBExp1 Prime_4N Target_6N AEbeKCm ijHLabE Incongruent left correct Early 81.65438
302 125 LeftSmaller PercIBExp1 Prime_6A Target_6N KCblFMa KfHehkB Congruent left error Normal 480.1935
302 126 LeftSmaller PercIBExp1 Prime_9N Target_4A gEbILFA bdmLlAC Incongruent right correct Early 72.7615
302 127 LeftSmaller PercIBExp1 Prime_1N Target_1A KbJHciI ekIilFA Congruent right error Normal 1556.754
302 128 LeftSmaller PercIBExp1 Prime_9A Target_6N edaclkJ ImkLcDf Congruent right correct Normal 175.7586
302 129 LeftSmaller PercIBExp1 Prime_6A Target_9N HkbjDEd jbhamEK Congruent right correct Normal 445.2312
302 130 LeftSmaller PercIBExp1 Prime_6A Target_6A EhdFAKD FbhckLM Congruent left error Normal 207.5148
302 131 LeftSmaller PercIBExp1 Prime_6N Target_4A aFbKDMI AlMFCbh Incongruent left error Normal 2069.221
302 132 LeftSmaller PercIBExp1 Prime_1A Target_4N maKhBbD lGKmLFe Congruent left correct Normal 1739.715
302 133 LeftSmaller PercIBExp1 Prime_1N Target_9N mgAiDJC fMLJmbk Incongruent left correct Normal 949.412
302 134 LeftSmaller PercIBExp1 Prime_1N Target_6A IeafCDh KjlDhAf Incongruent left correct Normal 1211.231
302 135 LeftSmaller PercIBExp1 Prime_9N Target_1A cHiJmCE eiGhakL Incongruent left error Normal 2327.853
302 136 LeftSmaller PercIBExp1 Prime_1A Target_6A EdJAHei BDidLhC Incongruent right error Normal 604.2957
302 137 LeftSmaller PercIBExp1 Prime_4A Target_6A jGidLhJ AGLhbJM Incongruent right error Normal 379.6119
302 138 LeftSmaller PercIBExp1 Prime_9A Target_6A CEDLKAg mFChMlf Congruent right correct Early 16.18225
302 139 LeftSmaller PercIBExp1 Prime_6N Target_4N fLgFcAH AcMDlgH Incongruent left error Normal 1506.045
302 140 LeftSmaller PercIBExp1 Prime_9N Target_6N MBgjIAC KlCbHEL Congruent left error Normal 374.2365
302 141 LeftSmaller PercIBExp1 Prime_6N Target_9A lCehMjc bCkacEl Congruent left error Normal 126.8299
302 142 LeftSmaller PercIBExp1 Prime_1A Target_6N GeBfLkD kKILmiF Incongruent left correct Normal 512.9776
302 143 LeftSmaller PercIBExp1 Prime_1N Target_4N faCMAEH gcMCLkh Congruent left correct Normal 219.5609
302 144 LeftSmaller PercIBExp1 Prime_9N Target_9N EFMKmjI MIdiFfj Congruent right correct Early 93.19851
302 145 LeftSmaller PercIBExp1 Prime_9N Target_6A ILglkEc DFgACai Congruent right correct Early 90.12682
302 146 LeftSmaller PercIBExp1 Prime_9A Target_4A BlKdAbg fmIdFAH Incongruent right correct Early 65.39223
302 147 LeftSmaller PercIBExp1 Prime_4N Target_1N HGMADje BjMDClm Congruent right error Early 34.54001
302 148 LeftSmaller PercIBExp1 Prime_9N Target_1N gACHJLM lLmghfA Incongruent right correct Early 27.28341
302 149 LeftSmaller PercIBExp1 Prime_9A Target_9N gliFMhd KhegLfE Congruent right correct Early 75.14524
302 150 LeftSmaller PercIBExp1 Prime_1A Target_1N FgBEbhi FbiGhaM Congruent left correct Early 89.28607
302 151 LeftSmaller PercIBExp1 Prime_1N Target_6N DkhBAgJ AidlkHb Incongruent left correct Early 88.69006
302 152 LeftSmaller PercIBExp1 Prime_4N Target_9A fhbClEA gbijLkH Incongruent left correct Normal 321.8256
302 153 LeftSmaller PercIBExp1 Prime_4N Target_9N fjiGACg fAGdeKb Incongruent right error Normal 3114.572
302 154 LeftSmaller PercIBExp1 Prime_1A Target_9N gKECfBM FDCabGA Incongruent right error Normal 3867.742
302 155 LeftSmaller PercIBExp1 Prime_4N Target_4N mKkCGLa KMFgcDI Congruent left correct Normal 549.9412
302 156 LeftSmaller PercIBExp1 Prime_6A Target_4N hIkdCDF IhlCeAk Incongruent right correct Normal 664.0862
302 157 LeftSmaller PercIBExp1 Prime_9N Target_4N GAiFBhM gHlacie Incongruent right correct Normal 194.7884
302 158 LeftSmaller PercIBExp1 Prime_1A Target_1A HJbikef EIKfDGF Congruent right error Normal 290.0815
302 159 LeftSmaller PercIBExp1 Prime_4A Target_6N aDeEBJL mcdeahL Incongruent right error Normal 506.8364
302 160 LeftSmaller PercIBExp1 Prime_1A Target_4A GdcjHak mBkiDLF Congruent right error Normal 352.8883
303 1 LeftLarger PercIAPrac Prime_4A Target_4A LlAFbDf fgIcbLm Congruent left error Normal 874.6108
303 2 LeftLarger PercIAPrac Prime_1N Target_1N IBkcHal mdKElac Congruent right correct Normal 596.2481
303 3 LeftLarger PercIAPrac Prime_9N Target_6N iIhfHDb KMFmBkE Congruent right error Normal 767.4762
303 4 LeftLarger PercIAPrac Prime_4N Target_6N CeKEkbg dgmCAlG Incongruent right correct Normal 812.3683
303 5 LeftLarger PercIAPrac Prime_4A Target_9A cHeBdma gGicEFl Incongruent left error Normal 565.6649
303 6 LeftLarger PercIAPrac Prime_1A Target_1N JlKbjDH bjlfJiK Congruent right correct Normal 1084.316
303 7 LeftLarger PercIAPrac Prime_1N Target_6N HhLjBKA biGjLem Incongruent right correct Normal 708.1543
303 8 LeftLarger PercIAPrac Prime_4N Target_6A bHImBjJ eECAmMa Incongruent left error Normal 1136.916
303 9 LeftLarger PercIAPrac Prime_1N Target_6A gfDhBdM clMFiLk Incongruent left error Normal 711.2491
303 10 LeftLarger PercIAPrac Prime_6A Target_6A JDIHFKb gIKaHLG Congruent left correct Normal 834.2656
303 11 LeftLarger PercIAPrac Prime_6A Target_1N aGDdbFh FhCAMmE Incongruent left correct Normal 753.4491
303 12 LeftLarger PercIAPrac Prime_1A Target_1A gkJEdcj BafgLEF Congruent left error Normal 768.4367
303 13 LeftLarger PercIAPrac Prime_4A Target_9N EBMejcK kMlhLEK Incongruent right correct Normal 490.0421
303 14 LeftLarger PercIAPrac Prime_9N Target_4A FlACmcJ fDlEkhG Incongruent right error Normal 831.8109
303 15 LeftLarger PercIAPrac Prime_9N Target_9A BAJcaik MkKlgLb Congruent right error Normal 774.2523
303 16 LeftLarger PercIAPrac Prime_9A Target_1N bkMfHGi aGfCjBM Incongruent left correct Normal 768.1518
303 17 LeftLarger PercIAExp1 Prime_4A Target_4N MgekBFE gjAKGkl Congruent right correct Normal 847.5782
303 18 LeftLarger PercIAExp1 Prime_6N Target_9N HkfAeLb idCGhbF Congruent left correct Normal 838.169
303 19 LeftLarger PercIAExp1 Prime_1A Target_6N JImKFhj FhDBAaI Incongruent left error Normal 891.1125
303 20 LeftLarger PercIAExp1 Prime_1A Target_1A BLGgEkj lfIKLad Congruent right correct Normal 853.2394
303 21 LeftLarger PercIAExp1 Prime_9N Target_4N BbMfeED afghCkj Incongruent right error Normal 840.6832
303 22 LeftLarger PercIAExp1 Prime_9N Target_1A DckHdhf mIjdflL Incongruent left correct Normal 659.2326
303 23 LeftLarger PercIAExp1 Prime_4N Target_9N CLaiKce DfHiFhB Incongruent left error Normal 842.0201
303 24 LeftLarger PercIAExp1 Prime_9A Target_6N lEJGDLf GlADdFC Congruent left correct Normal 722.7973
303 25 LeftLarger PercIAExp1 Prime_6A Target_4N KLBaMjd fIeaiDB Incongruent left correct Normal 727.4891
303 26 LeftLarger PercIAExp1 Prime_1N Target_6N laDAKgi IAaiEKd Incongruent right correct Normal 624.7899
303 27 LeftLarger PercIAExp1 Prime_1A Target_1N lhgmDBb eigAldJ Congruent right correct Normal 643.8432
303 28 LeftLarger PercIAExp1 Prime_6N Target_4N ieLGAjh bAiakfl Incongruent left correct Normal 643.727
303 29 LeftLarger PercIAExp1 Prime_9A Target_9A HJcjkIe aiFIMcm Congruent left correct Normal 860.5499
303 30 LeftLarger PercIAExp1 Prime_9A Target_6A ImLlAda cjClbHJ Congruent left correct Normal 770.0802
303 31 LeftLarger PercIAExp1 Prime_1A Target_4N DLlAaFj iGKdleJ Congruent right correct Normal 756.6374
303 32 LeftLarger PercIAExp1 Prime_4A Target_6A IjeDhBA LfBgiGc Incongruent left error Normal 675.924
303 33 LeftLarger PercIAExp1 Prime_4N Target_6A gjeDGIE cDCedfh Incongruent right correct Normal 533.0804
303 34 LeftLarger PercIAExp1 Prime_6N Target_1A ALbMcEl jfebgim Incongruent right error Normal 735.8351
303 35 LeftLarger PercIAExp1 Prime_1A Target_6A dKcAJkF BIGjdbA Incongruent right correct Normal 1136.028
303 36 LeftLarger PercIAExp1 Prime_4N Target_9A KgeEkiC CkcEAMe Incongruent right correct Normal 751.7267
303 37 LeftLarger PercIAExp1 Prime_6A Target_4A kmjMcAl mKDFbgL Incongruent left correct Normal 746.2374
303 38 LeftLarger PercIAExp1 Prime_4A Target_6N kiMEBAH mgIAldD Incongruent left error Normal 813.8172
303 39 LeftLarger PercIAExp1 Prime_1N Target_4N bAeMhGd DKeBJhl Congruent left error Normal 675.831
303 40 LeftLarger PercIAExp1 Prime_6N Target_1N bkDFgCL lbJfgjL Incongruent left correct Normal 529.7852
303 41 LeftLarger PercIAExp1 Prime_4A Target_1A geCfKBA licEADg Congruent left error Normal 888.1928
303 42 LeftLarger PercIAExp1 Prime_9N Target_9A bBJGlci jDIGaFA Congruent left correct Normal 782.3494
303 43 LeftLarger PercIAExp1 Prime_4A Target_1N kdhlCHG FcehCgM Congruent right correct Normal 1082.661
303 44 LeftLarger PercIAExp1 Prime_9A Target_1N DmMAHiF KlGcHCL Incongruent right error Normal 1101.81
303 45 LeftLarger PercIAExp1 Prime_4A Target_4A ilKCfcm EjBgHGc Congruent left error Normal 744.8884
303 46 LeftLarger PercIAExp1 Prime_4A Target_9N DKbkAdh amdEkeB Incongruent right correct Normal 1060.137
303 47 LeftLarger PercIAExp1 Prime_1N Target_9A Lcgahfd DJmcMfb Incongruent left error Normal 1048.223
303 48 LeftLarger PercIAExp1 Prime_4N Target_4A HILcghJ hbJKLka Congruent left error Normal 735.389
303 49 LeftLarger PercIAExp1 Prime_9A Target_4N mhJGCAj AmFdIcM Incongruent left correct Normal 492.7697
303 50 LeftLarger PercIAExp1 Prime_9N Target_1N DHfekCc hdfgbLl Incongruent right error Normal 1032.14
303 51 LeftLarger PercIAExp1 Prime_1A Target_4A EjIbBLF kaGDJiK Congruent right correct Normal 793.688
303 52 LeftLarger PercIAExp1 Prime_1N Target_4A AMiFjEg AdKhILJ Congruent right correct Normal 889.1654
303 53 LeftLarger PercIAExp1 Prime_6N Target_9A iaemHkg cCljJdD Congruent left correct Normal 1194.031
303 54 LeftLarger PercIAExp1 Prime_6N Target_6A KfgaBIb kHBemcl Congruent right error Normal 1416.627
303 55 LeftLarger PercIAExp1 Prime_9N Target_4A cheMdLg FmghMjK Incongruent left correct Normal 696.5349
303 56 LeftLarger PercIAExp1 Prime_9A Target_1A cmEJbgk gjEDBkA Incongruent left correct Normal 769.1065
303 57 LeftLarger PercIAExp1 Prime_4A Target_9A EhDMlbC CejGbfd Incongruent right correct Normal 864.8676
303 58 LeftLarger PercIAExp1 Prime_6A Target_1N lgaCDfK IlJFmgB Incongruent left correct Normal 1664.256
303 59 LeftLarger PercIAExp1 Prime_4N Target_1N gjJIFLe LegKmjD Congruent right correct Normal 1061.322
303 60 LeftLarger PercIAExp1 Prime_4N Target_1A kCADlLh ALIiFGa Congruent right correct Normal 950.6433
303 61 LeftLarger PercIAExp1 Prime_1N Target_1N IieKCLf icbelCd Congruent left error Normal 845.8236
303 62 LeftLarger PercIAExp1 Prime_6A Target_9N gDaCeLi jhiLHkD Congruent left correct Normal 1126.864
303 63 LeftLarger PercIAExp1 Prime_6N Target_4A BFkfliE BMDiKbG Incongruent right error Normal 1323.147
303 64 LeftLarger PercIAExp1 Prime_1N Target_1A EJFedCa GdJgEmB Congruent left error Normal 511.3647
303 65 LeftLarger PercIAExp1 Prime_6A Target_1A bAlEGiL gjDLAaB Incongruent left correct Normal 608.9922
303 66 LeftLarger PercIAExp1 Prime_1A Target_9N ibkLIJA GfeLiKb Incongruent right correct Normal 810.815
303 67 LeftLarger PercIAExp1 Prime_9N Target_6N mcHGCBk lLCechA Congruent left correct Normal 616.484
303 68 LeftLarger PercIAExp1 Prime_4N Target_4N gEjkhBC AFGgmIe Congruent left error Normal 780.5895
303 69 LeftLarger PercIAExp1 Prime_9N Target_9N JIcLBaA eGIFlam Congruent left correct Normal 976.66
303 70 LeftLarger PercIAExp1 Prime_9N Target_6A hLiKICH JmHELDi Congruent left correct Normal 964.957
303 71 LeftLarger PercIAExp1 Prime_6A Target_6N miKbcef aBjIhgE Congruent left correct Normal 493.675
303 72 LeftLarger PercIAExp1 Prime_1N Target_9N beDhIiK fbEAmdl Incongruent right correct Normal 637.7141
303 73 LeftLarger PercIAExp1 Prime_4N Target_6N eMaDAkL dFkcHja Incongruent right correct Normal 830.1425
303 74 LeftLarger PercIAExp1 Prime_9A Target_4A fbjiLHA jKHLFIm Incongruent left correct Normal 901.296
303 75 LeftLarger PercIAExp1 Prime_6N Target_6N EIdghGm kdIfgLj Congruent left correct Normal 1139.489
303 76 LeftLarger PercIAExp1 Prime_1A Target_9A BMjfEDI KEaDdBm Incongruent right correct Normal 663.7607
303 77 LeftLarger PercIAExp1 Prime_6A Target_9A AgIHjGh jJLeKam Congruent right error Normal 904.9304
303 78 LeftLarger PercIAExp1 Prime_6A Target_6A CGaJFlM JgakGKE Congruent left correct Normal 1048.228
303 79 LeftLarger PercIAExp1 Prime_1N Target_6A GhKMkeJ GJhMcBf Incongruent left error Normal 828.1649
303 80 LeftLarger PercIAExp1 Prime_9A Target_9N ELMfkBh iDMbEAk Congruent left correct Normal 787.5862
303 81 LeftSmaller PercIBPrac Prime_9A Target_4N jliGeDm JhMGDFe Incongruent right correct Normal 957.6418
303 82 LeftSmaller PercIBPrac Prime_4A Target_9N iCeBaFl KCMJadI Incongruent left correct Normal 773.6359
303 83 LeftSmaller PercIBPrac Prime_6A Target_6N ElKGDdL LJeAdlE Congruent left error Normal 457.8482
303 84 LeftSmaller PercIBPrac Prime_1N Target_6A AhMIFCj CkcalHG Incongruent left correct Normal 668.3177
303 85 LeftSmaller PercIBPrac Prime_6N Target_9N fiGhLBA FCjAGfh Congruent left error Normal 699.841
303 86 LeftSmaller PercIBPrac Prime_4A Target_1N BLJAbDc ImBMcHb Congruent right error Normal 710.889
303 87 LeftSmaller PercIBPrac Prime_6N Target_1A mEeHFcJ KBGkidD Incongruent right correct Normal 931.4112
303 88 LeftSmaller PercIBPrac Prime_1A Target_6A FLeikgK CBGiLjg Incongruent left correct Normal 775.0132
303 89 LeftSmaller PercIBPrac Prime_1N Target_1N ClEKghd HDBIiAd Congruent left correct Normal 1081.529
303 90 LeftSmaller PercIBPrac Prime_1N Target_9A KBCjMFm FfHIhLm Incongruent right error Normal 868.1824
303 91 LeftSmaller PercIBPrac Prime_4N Target_1N GEgJilj fIAehjM Congruent right error Normal 1588.845
303 92 LeftSmaller PercIBPrac Prime_9N Target_4A JjHBKhE AiLcbGD Incongruent right correct Normal 775.8101
303 93 LeftSmaller PercIBPrac Prime_6A Target_9A GbBLmck gamFcMA Congruent right correct Normal 754.2359
303 94 LeftSmaller PercIBPrac Prime_1N Target_1A aEJHlfc IeFmKDH Congruent right error Normal 652.4091
303 95 LeftSmaller PercIBPrac Prime_1A Target_6N IAHLkDj DAjgMJL Incongruent left correct Normal 801.3214
303 96 LeftSmaller PercIBPrac Prime_6A Target_1A hmcHFlJ cMkGgCB Incongruent right correct Normal 1176.292
303 97 LeftSmaller PercIBExp1 Prime_1A Target_1A hfjgeAK kCMKced Congruent right error Normal 562.7771
303 98 LeftSmaller PercIBExp1 Prime_4N Target_1A dJlFBLE cEiJakb Congruent left correct Normal 963.7955
303 99 LeftSmaller PercIBExp1 Prime_6A Target_6A IdmjGel mhkKaGE Congruent right correct Normal 730.2171
303 100 LeftSmaller PercIBExp1 Prime_6N Target_6A iabeIjd GgaFIbB Congruent left error Normal 766.2525
303 101 LeftSmaller PercIBExp1 Prime_4A Target_6N KgDfBAJ gKhcDmJ Incongruent left correct Normal 635.0388
303 102 LeftSmaller PercIBExp1 Prime_9N Target_6N LiKFDld AKmMflI Congruent left error Normal 1275.424
303 103 LeftSmaller PercIBExp1 Prime_9A Target_9A kHDImJj aMbfDBA Congruent right correct Normal 1083.588
303 104 LeftSmaller PercIBExp1 Prime_4A Target_9A gmIeKbL AhjcLGi Incongruent left correct Normal 1439.646
303 105 LeftSmaller PercIBExp1 Prime_6A Target_4A CDikGhF CkdAfMj Incongruent right correct Normal 598.5114
303 106 LeftSmaller PercIBExp1 Prime_6N Target_4A dHJhCmk ImChjLd Incongruent left error Normal 695.2645
303 107 LeftSmaller PercIBExp1 Prime_9N Target_9N lAeKFgL Ifamkjg Congruent right correct Normal 1274.073
303 108 LeftSmaller PercIBExp1 Prime_4A Target_1N AgldKiM IfEhmiK Congruent left correct Normal 912.5587
303 109 LeftSmaller PercIBExp1 Prime_6N Target_9A JhmFGgj jfimdHD Congruent right correct Normal 827.5635
303 110 LeftSmaller PercIBExp1 Prime_1N Target_9N CmKAGfM keCJclI Incongruent right error Normal 1108.611
303 111 LeftSmaller PercIBExp1 Prime_4A Target_6A ACekMFG hMIJFEK Incongruent left correct Normal 742.27
303 112 LeftSmaller PercIBExp1 Prime_6A Target_6N LIGbaFe maecdiM Congruent right correct Normal 896.4706
303 113 LeftSmaller PercIBExp1 Prime_1A Target_1N FmaiAfl fhdEDCB Congruent left correct Normal 1241.764
303 114 LeftSmaller PercIBExp1 Prime_9N Target_4A aFKHJjl MDHEFGB Incongruent right correct Normal 1260.43
303 115 LeftSmaller PercIBExp1 Prime_1A Target_6A AbKMBeg iDdMJhj Incongruent right error Normal 794.4921
303 116 LeftSmaller PercIBExp1 Prime_1A Target_4A HGlbkJF jlAdgaC Congruent right error Normal 720.802
303 117 LeftSmaller PercIBExp1 Prime_1N Target_1A mMaAFCf JmcelBg Congruent right error Normal 727.7036
303 118 LeftSmaller PercIBExp1 Prime_6N Target_9N gaKEhGI KHbdmek Congruent right correct Normal 1011.702
303 119 LeftSmaller PercIBExp1 Prime_9A Target_4N BkgEjhI hgfFLAm Incongruent right correct Normal 1157.537
303 120 LeftSmaller PercIBExp1 Prime_1N Target_4N kmbEBAJ mhlGceH Congruent right error Normal 1147.938
303 121 LeftSmaller PercIBExp1 Prime_6N Target_1N heEJjli JEjeFhH Incongruent right correct Normal 731.0488
303 122 LeftSmaller PercIBExp1 Prime_9A Target_1N EIjgLKm edKliEb Incongruent right correct Normal 998.5376
303 123 LeftSmaller PercIBExp1 Prime_4A Target_1A McGHJdg FdBkbhi Congruent right error Normal 1834.992
303 124 LeftSmaller PercIBExp1 Prime_6A Target_9A MDjgBaL lbIDMAf Congruent right correct Normal 864.0183
303 125 LeftSmaller PercIBExp1 Prime_1A Target_4N jmIhMCf LIMCHlb Congruent right error Normal 1275.221
303 126 LeftSmaller PercIBExp1 Prime_6A Target_1N fBDALdF bgHfECd Incongruent left error Normal 880.569
303 127 LeftSmaller PercIBExp1 Prime_1N Target_6A aCkFKAd eKgDadG Incongruent left correct Normal 593.3541
303 128 LeftSmaller PercIBExp1 Prime_1N Target_1N gjmGMJa lMcmfka Congruent right error Normal 818.6386
303 129 LeftSmaller PercIBExp1 Prime_9N Target_1N KkMcjEh HIEldjJ Incongruent left error Normal 898.3372
303 130 LeftSmaller PercIBExp1 Prime_9A Target_4A hcMHebI lJBAbec Incongruent right correct Normal 663.2325
303 131 LeftSmaller PercIBExp1 Prime_9N Target_6A jHlBEmh CdiLMFk Congruent right correct Normal 1702.757
303 132 LeftSmaller PercIBExp1 Prime_6A Target_4N fdDMiAI mlKBjbJ Incongruent right correct Normal 795.962
303 133 LeftSmaller PercIBExp1 Prime_4N Target_4N JkBIebF HagKimJ Congruent left correct Normal 910.8318
303 134 LeftSmaller PercIBExp1 Prime_4N Target_1N jIADgBG EegfIkH Congruent right error Normal 826.8531
303 135 LeftSmaller PercIBExp1 Prime_9A Target_1A gbGkLcd fEbILmc Incongruent right correct Normal 592.8748
303 136 LeftSmaller PercIBExp1 Prime_6A Target_1A MhcKJDl bFcLfGh Incongruent right correct Normal 670.5233
303 137 LeftSmaller PercIBExp1 Prime_4N Target_4A cKEfLAl hDcHdlA Congruent right error Normal 716.313
303 138 LeftSmaller PercIBExp1 Prime_9N Target_9A MefLdgB dbMlchj Congruent left error Normal 958.2383
303 139 LeftSmaller PercIBExp1 Prime_6N Target_4N HafkMJE KEcDeCL Incongruent right correct Normal 1436.671
303 140 LeftSmaller PercIBExp1 Prime_1A Target_6N mBMAJjh lcjFJik Incongruent right error Normal 730.9802
303 141 LeftSmaller PercIBExp1 Prime_1A Target_9A gdmFhAE IECFcHi Incongruent right error Normal 893.0077
303 142 LeftSmaller PercIBExp1 Prime_9A Target_9N FAfLdGi LilKbfk Congruent left error Normal 740.2123
303 143 LeftSmaller PercIBExp1 Prime_4N Target_6A FeImgHD fEeKiAD Incongruent left correct Normal 918.4793
303 144 LeftSmaller PercIBExp1 Prime_9N Target_4N CEbIBci bJlKigA Incongruent right correct Normal 775.4174
303 145 LeftSmaller PercIBExp1 Prime_9N Target_1A GfLMaKC bhEJKgC Incongruent right correct Normal 688.1795
303 146 LeftSmaller PercIBExp1 Prime_1N Target_6N EJMfhCG BDIGEJA Incongruent right error Normal 996.159
303 147 LeftSmaller PercIBExp1 Prime_6N Target_1A BADFace JGCBELg Incongruent right correct Normal 811.3987
303 148 LeftSmaller PercIBExp1 Prime_1N Target_4A aeMldkE fMFlCbG Congruent left correct Normal 819.358
303 149 LeftSmaller PercIBExp1 Prime_4N Target_6N lMcegjI lKAdiDh Incongruent left correct Normal 908.1469
303 150 LeftSmaller PercIBExp1 Prime_9A Target_6A idkhlcM LcFbMGm Congruent left error Normal 765.5801
303 151 LeftSmaller PercIBExp1 Prime_6N Target_6N EgKedJG JfFGHie Congruent right correct Normal 1073.215
303 152 LeftSmaller PercIBExp1 Prime_9A Target_6N HKljECG KMhEbGD Congruent right correct Normal 615.9229
303 153 LeftSmaller PercIBExp1 Prime_6A Target_9N hiEAcml FekgIiB Congruent right correct Normal 907.7652
303 154 LeftSmaller PercIBExp1 Prime_4A Target_4A JdmIaEi AeEhjMH Congruent left correct Normal 1198.62
303 155 LeftSmaller PercIBExp1 Prime_1A Target_9N fMgkHbm HbCBjkD Incongruent right error Normal 814.5656
303 156 LeftSmaller PercIBExp1 Prime_4N Target_9N ifADamC FjeEcJD Incongruent left correct Normal 2022.09
303 157 LeftSmaller PercIBExp1 Prime_4A Target_4N efmLckl lJfcgjB Congruent right error Normal 657.0544
303 158 LeftSmaller PercIBExp1 Prime_1N Target_9A LimJcAB iLAGfmD Incongruent left correct Normal 575.82
303 159 LeftSmaller PercIBExp1 Prime_4A Target_9N jDaMmJl DHcjLiC Incongruent left correct Normal 892.6208
303 160 LeftSmaller PercIBExp1 Prime_4N Target_9A biFmkDE mglfiJD Incongruent right error Normal 749.5959
304 1 LeftLarger PercIAPrac Prime_4N Target_6A CdfcKaM LlaJHCj Incongruent right correct Normal 1249.405
304 2 LeftLarger PercIAPrac Prime_1N Target_6A hgkmAfF jFgIhmC Incongruent left error Normal 2430.692
304 3 LeftLarger PercIAPrac Prime_6N Target_1N aeGBhDi bfLHAej Incongruent left correct Normal 976.419
304 4 LeftLarger PercIAPrac Prime_9N Target_4A lBEDgki FbEfBhC Incongruent left correct Normal 900.218
304 5 LeftLarger PercIAPrac Prime_4A Target_9N gGDICHe DIJHBei Incongruent left error Normal 979.2544
304 6 LeftLarger PercIAPrac Prime_6N Target_9N djhglmD JLKbahg Congruent left correct Normal 683.9601
304 7 LeftLarger PercIAPrac Prime_9N Target_1N KdMgcaj keKJjHc Incongruent right error Normal 752.3369
304 8 LeftLarger PercIAPrac Prime_4A Target_4A DkIKdcF kKDLdCF Congruent right correct Normal 817.3617
304 9 LeftLarger PercIAPrac Prime_4A Target_1N DfjIhbE ECjmLDh Congruent right correct Normal 563.3333
304 10 LeftLarger PercIAPrac Prime_6N Target_9A EckDKCB JfLhKcB Congruent left correct Normal 826.3563
304 11 LeftLarger PercIAPrac Prime_9A Target_4N Jhjmkib aDjdFHM Incongruent left correct Normal 712.5375
304 12 LeftLarger PercIAPrac Prime_9A Target_9N iekgIMj CLHGEaF Congruent left correct Normal 670.7134
304 13 LeftLarger PercIAPrac Prime_1A Target_6A jfMdgAI GAlCLea Incongruent right correct Normal 746.882
304 14 LeftLarger PercIAPrac Prime_4N Target_4N mhBGDIg eDElkHd Congruent left error Normal 623.6557
304 15 LeftLarger PercIAPrac Prime_4N Target_6N cBfHIDi KhfBbMg Incongruent left error Normal 633.0886
304 16 LeftLarger PercIAPrac Prime_9N Target_6N lFbAeLB GKICHdi Congruent left correct Normal 592.6556
304 17 LeftLarger PercIAExp1 Prime_6N Target_4N MgGbDif kcFlAEJ Incongruent left correct Normal 816.4404
304 18 LeftLarger PercIAExp1 Prime_9N Target_1N hMDJkeL ihjHGdc Incongruent right error Normal 540.7652
304 19 LeftLarger PercIAExp1 Prime_6A Target_6N dCfgLEh lLhDBdE Congruent left correct Normal 549.3003
304 20 LeftLarger PercIAExp1 Prime_4A Target_4A fJibdcI GEIAMjH Congruent left error Normal 1414.451
304 21 LeftLarger PercIAExp1 Prime_9A Target_6N EbMKdDe IGafMhm Congruent left correct Normal 713.0812
304 22 LeftLarger PercIAExp1 Prime_1A Target_6N bjIeAhC faDgMLl Incongruent right correct Normal 651.2985
304 23 LeftLarger PercIAExp1 Prime_4A Target_4N KGEmgcH giajhEm Congruent right correct Normal 525.9821
304 24 LeftLarger PercIAExp1 Prime_4A Target_6A hMHJlFi fcHlJmg Incongruent left error Normal 730.7295
304 25 LeftLarger PercIAExp1 Prime_9A Target_4N fMjAagL MDAebJC Incongruent left correct Normal 866.3147
304 26 LeftLarger PercIAExp1 Prime_9N Target_9A EleJFIg ekhgdIc Congruent right error Normal 731.0945
304 27 LeftLarger PercIAExp1 Prime_6N Target_6N IlBigdC fdjlibc Congruent left correct Normal 679.7827
304 28 LeftLarger PercIAExp1 Prime_1A Target_1N hgDiFIe DmdKibf Congruent left error Normal 543.9552
304 29 LeftLarger PercIAExp1 Prime_1N Target_1A liecAdB GhjDiaf Congruent left error Normal 1011.115
304 30 LeftLarger PercIAExp1 Prime_1N Target_6N mLIjGgh DdIeCgM Incongruent right correct Normal 567.3214
304 31 LeftLarger PercIAExp1 Prime_1N Target_4A cJkCfKd laDMhLd Congruent left error Normal 709.8604
304 32 LeftLarger PercIAExp1 Prime_6A Target_9A eacGBMj aCcGHdI Congruent left correct Normal 670.2448
304 33 LeftLarger PercIAExp1 Prime_1A Target_1A Gfjgmea FIMbLmB Congruent right correct Normal 1347.911
304 34 LeftLarger PercIAExp1 Prime_9N Target_4N lDFJcGM IihjglG Incongruent left correct Normal 1466.718
304 35 LeftLarger PercIAExp1 Prime_1N Target_4N mBdgiLK bcfEjJg Congruent left error Normal 784.4174
304 36 LeftLarger PercIAExp1 Prime_9N Target_6N KIagAiC BgGELbf Congruent left correct Normal 671.0598
304 37 LeftLarger PercIAExp1 Prime_9N Target_1A CghLmKc DjMlgLi Incongruent right error Normal 681.2346
304 38 LeftLarger PercIAExp1 Prime_6N Target_9N fLjmbeH DAgKLhl Congruent left correct Normal 614.0469
304 39 LeftLarger PercIAExp1 Prime_9A Target_1N hdHJDfc JCIEMlk Incongruent left correct Normal 566.1035
304 40 LeftLarger PercIAExp1 Prime_4A Target_9A MCHLdma LmgkGeI Incongruent left error Normal 778.2763
304 41 LeftLarger PercIAExp1 Prime_1N Target_9N hLJbmIE CdJKklF Incongruent right correct Normal 776.1998
304 42 LeftLarger PercIAExp1 Prime_9A Target_6A JidIehG fJCDicg Congruent left correct Normal 687.9754
304 43 LeftLarger PercIAExp1 Prime_4N Target_9N DLfClMh JKCeFmj Incongruent right correct Normal 718.0086
304 44 LeftLarger PercIAExp1 Prime_9A Target_1A bDehIEg mbeDHEJ Incongruent left correct Normal 1178.386
304 45 LeftLarger PercIAExp1 Prime_6A Target_9N CjbdhKI cdhIFCm Congruent left correct Normal 920.9789
304 46 LeftLarger PercIAExp1 Prime_1A Target_4N iDLFKIB mhAjKFM Congruent right correct Normal 660.4297
304 47 LeftLarger PercIAExp1 Prime_4N Target_1N BKLliIm IkdiJGg Congruent left error Normal 698.8981
304 48 LeftLarger PercIAExp1 Prime_9N Target_6A gHmILKh FigAkde Congruent left correct Normal 751.8736
304 49 LeftLarger PercIAExp1 Prime_1A Target_9A akigKMJ gcfjKEG Incongruent right correct Normal 968.0365
304 50 LeftLarger PercIAExp1 Prime_4N Target_6N fbEkhaj ILFHmah Incongruent left error Normal 530.6886
304 51 LeftLarger PercIAExp1 Prime_6A Target_4N hJIaAeF mlFKMik Incongruent left correct Normal 1005.389
304 52 LeftLarger PercIAExp1 Prime_1N Target_1N GdEiBlD jlHEAch Congruent left error Normal 1110.152
304 53 LeftLarger PercIAExp1 Prime_1A Target_4A ajmKLek FlADIjb Congruent left error Normal 948.1623
304 54 LeftLarger PercIAExp1 Prime_6N Target_6A EFkcbaB ELJmKFB Congruent left correct Normal 885.395
304 55 LeftLarger PercIAExp1 Prime_9N Target_9N alLGMAE cDjMLGE Congruent right error Normal 1007.835
304 56 LeftLarger PercIAExp1 Prime_1N Target_6A CegJiKb BAKIfjM Incongruent left error Normal 914.2735
304 57 LeftLarger PercIAExp1 Prime_9A Target_4A EgiHMmG iJmfceg Incongruent left correct Normal 867.985
304 58 LeftLarger PercIAExp1 Prime_6A Target_1N cFgjlkB CkEAhbB Incongruent left correct Normal 1093.491
304 59 LeftLarger PercIAExp1 Prime_1A Target_6A AaBIKjM AkBDHGE Incongruent left error Normal 1030.607
304 60 LeftLarger PercIAExp1 Prime_4N Target_4N EjHeKAM hfblHAF Congruent right correct Normal 671.7957
304 61 LeftLarger PercIAExp1 Prime_4N Target_9A cJKbdei LDalKik Incongruent left error Normal 4104.929
304 62 LeftLarger PercIAExp1 Prime_9A Target_9A dhFMflb gjAlEck Congruent left correct Normal 554.5984
304 63 LeftLarger PercIAExp1 Prime_9A Target_9N ekgcMKH ecLFHDB Congruent left correct Normal 649.6058
304 64 LeftLarger PercIAExp1 Prime_4N Target_4A eAdDGEc HLfhDlg Congruent left error Normal 724.0866
304 65 LeftLarger PercIAExp1 Prime_9N Target_4A gjKlCHh GiIEhdF Incongruent right error Normal 510.247
304 66 LeftLarger PercIAExp1 Prime_6N Target_1N hGifdMb GmJliHB Incongruent left correct Normal 634.1393
304 67 LeftLarger PercIAExp1 Prime_6A Target_1A dCglAIL EeKGJAF Incongruent left correct Normal 793.9446
304 68 LeftLarger PercIAExp1 Prime_1A Target_9N JamGBKh GFmIeHK Incongruent left error Normal 652.0117
304 69 LeftLarger PercIAExp1 Prime_4A Target_6N kAaFCHj eJAbFLi Incongruent left error Normal 595.6155
304 70 LeftLarger PercIAExp1 Prime_1N Target_9A bEKidkG FDGCEfc Incongruent right correct Normal 399.7973
304 71 LeftLarger PercIAExp1 Prime_4A Target_1N kjmfgEd CMGDfLA Congruent right correct Normal 349.9953
304 72 LeftLarger PercIAExp1 Prime_4N Target_1A DIfLaCb afCDJIb Congruent right correct Normal 501.7899
304 73 LeftLarger PercIAExp1 Prime_6N Target_4A eECIjGd GcjKEfM Incongruent right error Normal 462.457
304 74 LeftLarger PercIAExp1 Prime_6A Target_6A CIDKmhd iGJFacg Congruent right error Normal 449.3178
304 75 LeftLarger PercIAExp1 Prime_6A Target_4A elBEIFG mAaDiCK Incongruent left correct Normal 477.4177
304 76 LeftLarger PercIAExp1 Prime_4A Target_9N mKbBiCd bgjHfCE Incongruent right correct Normal 514.6485
304 77 LeftLarger PercIAExp1 Prime_4A Target_1A aiDbCGe JhDcfdi Congruent right correct Normal 537.2347
304 78 LeftLarger PercIAExp1 Prime_4N Target_6A MGjcFKl DFiCAHM Incongruent left error Normal 498.0186
304 79 LeftLarger PercIAExp1 Prime_6N Target_9A IgDFGHM elkmEDJ Congruent right error Normal 524.7045
304 80 LeftLarger PercIAExp1 Prime_6N Target_1A jIBCKaJ LIdlhHf Incongruent right error Normal 490.1142
304 81 LeftSmaller PercIBPrac Prime_1A Target_6A dBaKcfk DKfEFbm Incongruent left correct Normal 654.2967
304 82 LeftSmaller PercIBPrac Prime_6N Target_9A dfiEJej hkFAIgl Congruent left error Normal 658.6148
304 83 LeftSmaller PercIBPrac Prime_4A Target_1N BeHAKkC iBMGbdC Congruent right error Normal 1772.412
304 84 LeftSmaller PercIBPrac Prime_6N Target_9N hjdGEBm jmeLFBb Congruent left error Normal 610.0678
304 85 LeftSmaller PercIBPrac Prime_9N Target_1A kCALIJe GJgKDlm Incongruent left error Normal 695.7738
304 86 LeftSmaller PercIBPrac Prime_1A Target_9N djCbIam cBlhgdF Incongruent right error Normal 1144.494
304 87 LeftSmaller PercIBPrac Prime_4N Target_4N bKmhHkD dbELgJI Congruent left correct Normal 683.3906
304 88 LeftSmaller PercIBPrac Prime_9A Target_9A aBkLJMC mfkcHdG Congruent left error Normal 732.5347
304 89 LeftSmaller PercIBPrac Prime_6N Target_1A eaiAhfD malDAdM Incongruent right correct Normal 519.2274
304 90 LeftSmaller PercIBPrac Prime_4A Target_6A EIbaigc GJgCiMc Incongruent right error Normal 983.0601
304 91 LeftSmaller PercIBPrac Prime_9A Target_4A JAKIjai GeDChfM Incongruent right correct Normal 1418.927
304 92 LeftSmaller PercIBPrac Prime_1A Target_9A KlcjILi gLBadiF Incongruent left correct Normal 543.8647
304 93 LeftSmaller PercIBPrac Prime_6A Target_1A IBiefcE hEmLjaf Incongruent right correct Normal 962.2823
304 94 LeftSmaller PercIBPrac Prime_4A Target_6N JCbMkcG iDLJlgj Incongruent left correct Normal 660.0646
304 95 LeftSmaller PercIBPrac Prime_9A Target_1A ejMfLaI FgfdeLE Incongruent right correct Normal 1014.619
304 96 LeftSmaller PercIBPrac Prime_1N Target_6N DdGKjHc BaJkIFm Incongruent left correct Normal 753.271
304 97 LeftSmaller PercIBExp1 Prime_9N Target_4A fDjigal FMHLDhj Incongruent left error Normal 877.1616
304 98 LeftSmaller PercIBExp1 Prime_9A Target_9N imFLjEI aLgbGhM Congruent right correct Normal 1019.74
304 99 LeftSmaller PercIBExp1 Prime_4A Target_1N CBiHEkc HbCfAMl Congruent right error Normal 629.5553
304 100 LeftSmaller PercIBExp1 Prime_1N Target_4A lbhEALM AgcEBiI Congruent left correct Normal 1403.841
304 101 LeftSmaller PercIBExp1 Prime_9A Target_6N ciMFKgk lhCGHdD Congruent left error Normal 651.4296
304 102 LeftSmaller PercIBExp1 Prime_4A Target_9A KmgiLDd ElCLfJh Incongruent left correct Normal 707.0329
304 103 LeftSmaller PercIBExp1 Prime_9A Target_4A feHDGkF DeLchJi Incongruent left error Normal 529.9972
304 104 LeftSmaller PercIBExp1 Prime_1A Target_4N cfmeEKL kgebDma Congruent left correct Normal 448.5071
304 105 LeftSmaller PercIBExp1 Prime_9N Target_9A JbglfDa GiBgfFm Congruent right correct Normal 418.6606
304 106 LeftSmaller PercIBExp1 Prime_6A Target_1A acIDKHL eBlgDFL Incongruent right correct Normal 408.3931
304 107 LeftSmaller PercIBExp1 Prime_1N Target_1A ADIBLMl fiDkJcG Congruent left correct Normal 375.3994
304 108 LeftSmaller PercIBExp1 Prime_1N Target_9A aJKMBEg mHCgkBG Incongruent right error Normal 511.0928
304 109 LeftSmaller PercIBExp1 Prime_9N Target_9N bHgdiFk eDHBhMG Congruent left error Normal 303.3237
304 110 LeftSmaller PercIBExp1 Prime_6N Target_1A LAagDGj LMgEhAD Incongruent right correct Normal 345.7777
304 111 LeftSmaller PercIBExp1 Prime_6A Target_1N jFLIDil GjgLJim Incongruent left error Normal 654.5056
304 112 LeftSmaller PercIBExp1 Prime_4A Target_1A FJDMEIC eFcHAlC Congruent left correct Normal 655.3527
304 113 LeftSmaller PercIBExp1 Prime_6A Target_9A EiJhlBD MmHEejG Congruent right correct Normal 456.1587
304 114 LeftSmaller PercIBExp1 Prime_4A Target_9N gCLdfIa FmMblDC Incongruent right error Normal 505.6993
304 115 LeftSmaller PercIBExp1 Prime_6N Target_9A igEHmGa cAIkBKl Congruent right correct Normal 448.74
304 116 LeftSmaller PercIBExp1 Prime_4N Target_1A mDiIHLa JklgaFC Congruent right error Normal 988.3246
304 117 LeftSmaller PercIBExp1 Prime_9N Target_1A GLejMlf kblfKGF Incongruent right correct Normal 461.0772
304 118 LeftSmaller PercIBExp1 Prime_1A Target_1A mLaMiGD kCimdgM Congruent right error Normal 809.3542
304 119 LeftSmaller PercIBExp1 Prime_9N Target_6N GJfIhea FGbCADf Congruent right correct Normal 477.9664
304 120 LeftSmaller PercIBExp1 Prime_6N Target_6A KkclHGf AKfjBcm Congruent left error Normal 584.1455
304 121 LeftSmaller PercIBExp1 Prime_9A Target_4N mHFkjiM iFfgKAe Incongruent right correct Normal 597.4449
304 122 LeftSmaller PercIBExp1 Prime_4N Target_6N aIehCEf BkFJgef Incongruent right error Normal 828.6345
304 123 LeftSmaller PercIBExp1 Prime_4N Target_9N jdEbCMk lMGBEKH Incongruent right error Normal 392.2622
304 124 LeftSmaller PercIBExp1 Prime_1N Target_1N JfgkhLG gALHFla Congruent right error Normal 692.1237
304 125 LeftSmaller PercIBExp1 Prime_6N Target_4N HAdfjFC cIfkLJE Incongruent left error Normal 394.3071
304 126 LeftSmaller PercIBExp1 Prime_4N Target_4A LkMmaCK KkACagB Congruent left correct Normal 278.5896
304 127 LeftSmaller PercIBExp1 Prime_4N Target_4N JkAbeHm ieAfKGm Congruent right error Normal 757.741
304 128 LeftSmaller PercIBExp1 Prime_1A Target_9N gbMGkJi mgBHCha Incongruent left correct Normal 434.308
304 129 LeftSmaller PercIBExp1 Prime_4N Target_9A DikeMBl dBhiKAa Incongruent right error Normal 555.2197
304 130 LeftSmaller PercIBExp1 Prime_9A Target_1A KeHlhaB hibjEBl Incongruent left error Normal 643.9749
304 131 LeftSmaller PercIBExp1 Prime_6A Target_6A EgmbCFM KJILgHl Congruent right correct Normal 611.3028
304 132 LeftSmaller PercIBExp1 Prime_1A Target_6N GchmFjb kfbmgaC Incongruent right error Normal 506.9532
304 133 LeftSmaller PercIBExp1 Prime_4A Target_4N fjLHkDg CJkAGge Congruent right error Normal 428.9971
304 134 LeftSmaller PercIBExp1 Prime_9N Target_4N BCFajkL IdabGck Incongruent right correct Normal 529.7354
304 135 LeftSmaller PercIBExp1 Prime_4A Target_4A mHCcMiG HaeKfiJ Congruent left correct Normal 1031.09
304 136 LeftSmaller PercIBExp1 Prime_6N Target_4A MgHLIad EdBCAlf Incongruent right correct Normal 554.5094
304 137 LeftSmaller PercIBExp1 Prime_9A Target_9A GfKbAHI fKmbiIA Congruent right correct Normal 584.24
304 138 LeftSmaller PercIBExp1 Prime_9A Target_1N EciDlAJ aFIgJeH Incongruent left error Normal 513.7212
304 139 LeftSmaller PercIBExp1 Prime_4A Target_6A BakgFIf DHkcBEj Incongruent right error Normal 425.4818
304 140 LeftSmaller PercIBExp1 Prime_1A Target_9A hkdigaD egMAHkJ Incongruent right error Normal 348.4313
304 141 LeftSmaller PercIBExp1 Prime_6A Target_4N GgdJHFK dHhBKkL Incongruent right correct Normal 481.3141
304 142 LeftSmaller PercIBExp1 Prime_1A Target_4A GAIMlem DbichJC Congruent right error Normal 493.4909
304 143 LeftSmaller PercIBExp1 Prime_6A Target_4A CEFHDgk DaJlkAj Incongruent left error Normal 290.3365
304 144 LeftSmaller PercIBExp1 Prime_1N Target_9N BieHckm biEgCHM Incongruent right error Normal 293.1677
304 145 LeftSmaller PercIBExp1 Prime_9N Target_1N FgEcbLJ MJCmdgA Incongruent left error Normal 339.3472
304 146 LeftSmaller PercIBExp1 Prime_6N Target_9N ClKLMhB hafILlk Congruent right correct Normal 268.0444
304 147 LeftSmaller PercIBExp1 Prime_9N Target_6A hjEAblK JEMemHL Congruent right correct Normal 956.2992
304 148 LeftSmaller PercIBExp1 Prime_1A Target_1N dCbJmKl ClgFDkA Congruent left correct Normal 398.4831
304 149 LeftSmaller PercIBExp1 Prime_6N Target_1N mgACHbh mCgeaLf Incongruent right correct Normal 361.2891
304 150 LeftSmaller PercIBExp1 Prime_1N Target_6A fbCMmKA lbEDFAc Incongruent right error Normal 461.7061
304 151 LeftSmaller PercIBExp1 Prime_4A Target_6N bfhjcAJ hIfgjce Incongruent right error Normal 590.9643
304 152 LeftSmaller PercIBExp1 Prime_1A Target_6A maMGJDL ehEHCfA Incongruent right error Normal 569.1339
304 153 LeftSmaller PercIBExp1 Prime_1N Target_4N CMiFjGm EjJMckb Congruent right error Normal 737.9153
304 154 LeftSmaller PercIBExp1 Prime_6A Target_6N mIKlace cfMAgLk Congruent left error Normal 493.6077
304 155 LeftSmaller PercIBExp1 Prime_4N Target_1N KJBhiLk bMcHlhJ Congruent left correct Normal 469.6033
304 156 LeftSmaller PercIBExp1 Prime_6N Target_6N giIGfhl FfdbeMK Congruent left error Normal 542.6844
304 157 LeftSmaller PercIBExp1 Prime_9A Target_6A jIiDbEf mMJEgKj Congruent right correct Normal 651.4687
304 158 LeftSmaller PercIBExp1 Prime_6A Target_9N IfDmAkE icdLKhH Congruent right correct Normal 345.2084
304 159 LeftSmaller PercIBExp1 Prime_1N Target_6N fGICbDK AIJgbai Incongruent left correct Normal 584.5503
304 160 LeftSmaller PercIBExp1 Prime_4N Target_6A dMkBhij KbALeJd Incongruent left correct Normal 457.925
305 1 LeftLarger PercIAPrac Prime_9A Target_1A IBGMClD GmdicCg Incongruent left correct Normal 1016.967
305 2 LeftLarger PercIAPrac Prime_9A Target_4A iEbFcgm fFMBdKC Incongruent right error Normal 449.3719
305 3 LeftLarger PercIAPrac Prime_9N Target_4A kLbFMea mkjIbDH Incongruent left correct Normal 890.9385
305 4 LeftLarger PercIAPrac Prime_4N Target_1A gaGBkMF iKLkHFB Congruent left error Normal 1071.245
305 5 LeftLarger PercIAPrac Prime_9N Target_1A dkMjLcI IlGkHdE Incongruent right error Normal 569.8
305 6 LeftLarger PercIAPrac Prime_6N Target_9A jIaMGHg BimJlgK Congruent left correct Normal 2327.355
305 7 LeftLarger PercIAPrac Prime_6A Target_9N BmLjckK GBcDeMH Congruent right error Normal 1322.029
305 8 LeftLarger PercIAPrac Prime_4N Target_4A lLICMhB AkBEbKi Congruent left error Normal 1372.959
305 9 LeftLarger PercIAPrac Prime_1A Target_4N KMeCLBH FALCKGJ Congruent left error Normal 1515.523
305 10 LeftLarger PercIAPrac Prime_1N Target_1A JBdecmk kCjdAKH Congruent left error Normal 1065.703
305 11 LeftLarger PercIAPrac Prime_4A Target_4A HBhKGdm AJdIFCE Congruent right correct Normal 1092.334
305 12 LeftLarger PercIAPrac Prime_9N Target_9A IdjJkhm jlbJkCI Congruent right error Normal 720.6393
305 13 LeftLarger PercIAPrac Prime_4A Target_1N BmDGfLl GHfkAJj Congruent right correct Normal 1068.752
305 14 LeftLarger PercIAPrac Prime_1A Target_9N ckfbHEj mKlhiGa Incongruent left error Normal 944.5383
305 15 LeftLarger PercIAPrac Prime_6N Target_9N IBhgJce cLHMDKB Congruent left correct Normal 1236.446
305 16 LeftLarger PercIAPrac Prime_9A Target_9N IcibCgE dJDHmjK Congruent left correct Normal 494.1367
305 17 LeftLarger PercIAExp1 Prime_9A Target_9N fHIlFJK aBIFfej Congruent right error Normal 1050.587
305 18 LeftLarger PercIAExp1 Prime_1A Target_4A FbfBjae DkHgElF Congruent right correct Normal 1320.504
305 19 LeftLarger PercIAExp1 Prime_1N Target_4N fEajJFi gJFAmHe Congruent left error Normal 1216.09
305 20 LeftLarger PercIAExp1 Prime_6A Target_4N JMbgIEl egFAEbf Incongruent left correct Normal 1211.997
305 21 LeftLarger PercIAExp1 Prime_1A Target_4N hegIcaE IbdCDkM Congruent right correct Normal 1615.528
305 22 LeftLarger PercIAExp1 Prime_1A Target_9A HhEBfKj kamGlji Incongruent left error Normal 1078.06
305 23 LeftLarger PercIAExp1 Prime_1N Target_4A LFEcbGa gjAbEdm Congruent right correct Normal 1304.393
305 24 LeftLarger PercIAExp1 Prime_6N Target_4A jBGHcgE gafmBIh Incongruent left correct Normal 1597.083
305 25 LeftLarger PercIAExp1 Prime_9A Target_1N dljBbEI hfgdAjL Incongruent left correct Normal 894.2891
305 26 LeftLarger PercIAExp1 Prime_4A Target_6N EMlChKA ejLJmbE Incongruent left error Normal 1103.895
305 27 LeftLarger PercIAExp1 Prime_9A Target_4N kadfMbF mhKleDJ Incongruent right error Normal 1169.865
305 28 LeftLarger PercIAExp1 Prime_1N Target_9A kCajlFL ebgBMcl Incongruent right correct Normal 1520.07
305 29 LeftLarger PercIAExp1 Prime_4N Target_6A jKHlLbg biDdCJI Incongruent left error Normal 1208.253
305 30 LeftLarger PercIAExp1 Prime_6A Target_6A gmfbMAc iaFdMlb Congruent right error Normal 1423.18
305 31 LeftLarger PercIAExp1 Prime_6N Target_9A KEdBkel cjieIHk Congruent right error Normal 1201.85
305 32 LeftLarger PercIAExp1 Prime_1A Target_9N JadclDA iMfkGlB Incongruent right correct Normal 926.3141
305 33 LeftLarger PercIAExp1 Prime_6N Target_4N jAfDGmJ FcmflJe Incongruent left correct Normal 469.9696
305 34 LeftLarger PercIAExp1 Prime_9A Target_1A mfDahkG fCHMLle Incongruent left correct Normal 805.9883
305 35 LeftLarger PercIAExp1 Prime_9A Target_6N jmFfiKJ jhEKFcd Congruent left correct Normal 1252.545
305 36 LeftLarger PercIAExp1 Prime_1A Target_6N iEBdjgG dliaMmH Incongruent left error Normal 997.8321
305 37 LeftLarger PercIAExp1 Prime_4N Target_1A FlbdDiL iIjEFDB Congruent right correct Normal 504.016
305 38 LeftLarger PercIAExp1 Prime_4A Target_4N bFCgfmA BaFfEje Congruent left error Normal 873.4371
305 39 LeftLarger PercIAExp1 Prime_6A Target_9N cFKibda dckDBfl Congruent left correct Normal 774.6769
305 40 LeftLarger PercIAExp1 Prime_4N Target_9N eFdIlCM iIDbcHA Incongruent right correct Normal 1284.268
305 41 LeftLarger PercIAExp1 Prime_6A Target_4A jIgMced EKdMLjk Incongruent left correct Normal 1345.303
305 42 LeftLarger PercIAExp1 Prime_1N Target_1A lALimDd lFfedcM Congruent left error Normal 1374.763
305 43 LeftLarger PercIAExp1 Prime_6A Target_9A GMJeaLi AjchKdi Congruent left correct Normal 1696.18
305 44 LeftLarger PercIAExp1 Prime_9N Target_1N kAFheGg aJkBjib Incongruent right error Normal 604.1413
305 45 LeftLarger PercIAExp1 Prime_9N Target_9A alkifGA CkmhcLI Congruent left correct Normal 894.9945
305 46 LeftLarger PercIAExp1 Prime_9N Target_6N EjfMBHc MIgKedD Congruent left correct Normal 1017.357
305 47 LeftLarger PercIAExp1 Prime_6N Target_1N gKhMBbe MEmjhKI Incongruent right error Normal 1748.142
305 48 LeftLarger PercIAExp1 Prime_6A Target_6N cjbJmBk JkfaGbj Congruent right error Normal 1181.95
305 49 LeftLarger PercIAExp1 Prime_6A Target_1A lEeLcHM CdlFAfL Incongruent right error Normal 713.4156
305 50 LeftLarger PercIAExp1 Prime_9N Target_1A iHEMacB cIdJDKl Incongruent right error Normal 579.0428
305 51 LeftLarger PercIAExp1 Prime_4A Target_1N mIjlbCh flJADFb Congruent left error Normal 534.4754
305 52 LeftLarger PercIAExp1 Prime_1A Target_1N mJljdLb DlbLMIA Congruent right correct Normal 320.9013
305 53 LeftLarger PercIAExp1 Prime_9N Target_4N KlJBMGe Bdchafi Incongruent right error Normal 1078.492
305 54 LeftLarger PercIAExp1 Prime_6N Target_6N cEejHgL fmcjJCi Congruent right error Normal 1187.099
305 55 LeftLarger PercIAExp1 Prime_6N Target_9N AeBGjif GlkgbAc Congruent right error Normal 891.4475
305 56 LeftLarger PercIAExp1 Prime_9N Target_9N DgiAahK aFADKEe Congruent left correct Normal 1216.561
305 57 LeftLarger PercIAExp1 Prime_4N Target_6N cmDKEFh DchkgLG Incongruent right correct Normal 964.4831
305 58 LeftLarger PercIAExp1 Prime_1N Target_9N KdGbBkm GIcdBHK Incongruent right correct Normal 1308.175
305 59 LeftLarger PercIAExp1 Prime_4A Target_9A lgGFdAB FKHhBAk Incongruent right correct Normal 1303.783
305 60 LeftLarger PercIAExp1 Prime_9A Target_6A BgMAFIh haMiCmc Congruent left correct Normal 1325.295
305 61 LeftLarger PercIAExp1 Prime_1N Target_6N beaHEJd bmceEdC Incongruent left error Normal 730.103
305 62 LeftLarger PercIAExp1 Prime_4A Target_6A fkKEGeJ lbIcmDh Incongruent left error Normal 500.7609
305 63 LeftLarger PercIAExp1 Prime_1A Target_6A fmDGjaK CIKhEBM Incongruent left error Normal 747.3041
305 64 LeftLarger PercIAExp1 Prime_1A Target_1A EGCMmIl CiefKmI Congruent right correct Normal 670.4868
305 65 LeftLarger PercIAExp1 Prime_4N Target_1N mabdFkc ckLiHGm Congruent left error Normal 1446.646
305 66 LeftLarger PercIAExp1 Prime_6A Target_1N CLhcGAa fJLGEdh Incongruent left correct Normal 1265.27
305 67 LeftLarger PercIAExp1 Prime_6N Target_6A chbKEdL AjDbELJ Congruent left correct Normal 464.7528
305 68 LeftLarger PercIAExp1 Prime_9A Target_4A jCJMlDA hgAJFjd Incongruent right error Normal 640.1627
305 69 LeftLarger PercIAExp1 Prime_4N Target_4N LCFJIbi ECKakmM Congruent left error Normal 878.3481
305 70 LeftLarger PercIAExp1 Prime_1N Target_6A bHclmFe labgHKA Incongruent right correct Normal 934.522
305 71 LeftLarger PercIAExp1 Prime_4N Target_4A mHMBjaE mDgMjGa Congruent right correct Normal 1117.828
305 72 LeftLarger PercIAExp1 Prime_4A Target_4A digKjML elHMBEh Congruent left error Normal 653.7436
305 73 LeftLarger PercIAExp1 Prime_9A Target_9A CJAbEBH BAjHdEh Congruent right error Normal 396.3031
305 74 LeftLarger PercIAExp1 Prime_1N Target_1N mCegabL MbkJlgI Congruent left error Normal 224.6756
305 75 LeftLarger PercIAExp1 Prime_9N Target_4A EfmgiHa IhEBKFb Incongruent left correct Normal 334.8423
305 76 LeftLarger PercIAExp1 Prime_9N Target_6A lMeimfC aciAmbB Congruent left correct Normal 409.5638
305 77 LeftLarger PercIAExp1 Prime_4A Target_9N CalLbDG FgLlChB Incongruent right correct Normal 697.2913
305 78 LeftLarger PercIAExp1 Prime_6N Target_1A GEKmIDB CFAEklB Incongruent left correct Normal 1956.719
305 79 LeftLarger PercIAExp1 Prime_4A Target_1A fBJKhgH JmhFlBI Congruent left error Normal 1441.858
305 80 LeftLarger PercIAExp1 Prime_4N Target_9A dDAlGIH kmDhAJF Incongruent left error Normal 659.2457
305 81 LeftSmaller PercIBPrac Prime_9A Target_4N habfIEH eBEhlKF Incongruent left error Normal 763.5283
305 82 LeftSmaller PercIBPrac Prime_6N Target_6N HiLJlAF ecKHFlG Congruent right correct Normal 593.8641
305 83 LeftSmaller PercIBPrac Prime_1N Target_1N cieDfAI LmidDMc Congruent right error Normal 612.8717
305 84 LeftSmaller PercIBPrac Prime_6A Target_9N AbMKHhg HbAKejI Congruent right correct Normal 422.352
305 85 LeftSmaller PercIBPrac Prime_6A Target_6N gBDkJLM cfdhAiC Congruent right correct Normal 468.3921
305 86 LeftSmaller PercIBPrac Prime_9A Target_9A EfbLCdm HkdMlfj Congruent left error Normal 495.7963
305 87 LeftSmaller PercIBPrac Prime_1A Target_6A lECdHjJ ckhLblm Incongruent left correct Normal 317.4367
305 88 LeftSmaller PercIBPrac Prime_1A Target_1A dkKcGJE FaMDedh Congruent left correct Normal 323.0075
305 89 LeftSmaller PercIBPrac Prime_1A Target_9A BlmckEa HCmiIMG Incongruent right error Normal 238.0355
305 90 LeftSmaller PercIBPrac Prime_9A Target_4A aAFMLId lmBdCkA Incongruent left error Normal 381.0345
305 91 LeftSmaller PercIBPrac Prime_9A Target_6N kKeEigI hlJidHA Congruent right correct Normal 387.2013
305 92 LeftSmaller PercIBPrac Prime_4A Target_1N KcLbiCe HAaFCMj Congruent left correct Normal 278.2854
305 93 LeftSmaller PercIBPrac Prime_6N Target_4A CAmlgkJ gHBDkAl Incongruent right correct Normal 239.6343
305 94 LeftSmaller PercIBPrac Prime_9A Target_6A jDmGMKC mgafikd Congruent left error Normal 558.8307
305 95 LeftSmaller PercIBPrac Prime_9N Target_4A gJEChFf kmblAhi Incongruent right correct Normal 511.5945
305 96 LeftSmaller PercIBPrac Prime_4A Target_6A AfmGlbI AhglmJI Incongruent right error Normal 1226.548
305 97 LeftSmaller PercIBExp1 Prime_1A Target_4N DiKGcea IDahcMl Congruent left correct Normal 1452.029
305 98 LeftSmaller PercIBExp1 Prime_6N Target_9N dLDlHea ijEaGgm Congruent right correct Normal 721.8327
305 99 LeftSmaller PercIBExp1 Prime_9A Target_6A jbikMLe FGjkbAK Congruent right correct Normal 694.7613
305 100 LeftSmaller PercIBExp1 Prime_9N Target_6A bDkafHi dhmlkbK Congruent right correct Normal 693.0585
305 101 LeftSmaller PercIBExp1 Prime_4N Target_9A LKAIGmB fHhGEdi Incongruent left correct Normal 921.2262
305 102 LeftSmaller PercIBExp1 Prime_9N Target_6N lBDJEAb AkIjBdE Congruent left error Normal 581.2702
305 103 LeftSmaller PercIBExp1 Prime_1A Target_6N FaCkmIH aIhKfDj Incongruent left correct Normal 468.1387
305 104 LeftSmaller PercIBExp1 Prime_6A Target_1N ebEJlmL dCcliLJ Incongruent right correct Normal 426.1141
305 105 LeftSmaller PercIBExp1 Prime_6N Target_6N KCjBEMF jcGmFLI Congruent right correct Normal 342.514
305 106 LeftSmaller PercIBExp1 Prime_1N Target_9N JAfDLge JhAMLaF Incongruent left correct Normal 581.3355
305 107 LeftSmaller PercIBExp1 Prime_6N Target_6A HgBKFLj AdCjikl Congruent left error Normal 296.5015
305 108 LeftSmaller PercIBExp1 Prime_4A Target_6N AGgljEL dLclgDi Incongruent left correct Normal 385.3783
305 109 LeftSmaller PercIBExp1 Prime_1N Target_4N AGjLBEc lMfIBeD Congruent right error Normal 119.9286
305 110 LeftSmaller PercIBExp1 Prime_4A Target_6A Bdlgjke mMGDeLi Incongruent left correct Normal 108.6017
305 111 LeftSmaller PercIBExp1 Prime_4N Target_9N gAECMGD GmBMkgC Incongruent left correct Normal 170.9922
305 112 LeftSmaller PercIBExp1 Prime_9A Target_9A igEdMJK bemfELG Congruent left error Normal 728.0337
305 113 LeftSmaller PercIBExp1 Prime_6A Target_9A MikJFlj FibkBla Congruent left error Normal 700.1947
305 114 LeftSmaller PercIBExp1 Prime_9N Target_1N jdEAMDI JGIbMhK Incongruent left error Normal 1051.083
305 115 LeftSmaller PercIBExp1 Prime_4A Target_4A JaCelLE ifgbAmJ Congruent right error Normal 477.4339
305 116 LeftSmaller PercIBExp1 Prime_6N Target_1A MHAhkJC GahfJmb Incongruent right correct Normal 631.5761
305 117 LeftSmaller PercIBExp1 Prime_4N Target_6A LHgDIiJ JalMfAc Incongruent right error Normal 334.1226
305 118 LeftSmaller PercIBExp1 Prime_9N Target_4A flejaHA dgIbJmf Incongruent left error Normal 224.5321
305 119 LeftSmaller PercIBExp1 Prime_1N Target_6A HGegMkd IFEgiak Incongruent left correct Normal 302.2032
305 120 LeftSmaller PercIBExp1 Prime_9N Target_4N fhCDEFA mLildIk Incongruent right correct Normal 234.1098
305 121 LeftSmaller PercIBExp1 Prime_1N Target_6N AJbcfIk mGhAcFb Incongruent right error Normal 326.6449
305 122 LeftSmaller PercIBExp1 Prime_9A Target_4N CmclAkB BlgFDKb Incongruent right correct Normal 376.0296
305 123 LeftSmaller PercIBExp1 Prime_9N Target_9A HbGCidg AIFelhK Congruent right correct Normal 429.1843
305 124 LeftSmaller PercIBExp1 Prime_6A Target_6N mJKjMBA FkJmfeH Congruent left error Normal 191.913
305 125 LeftSmaller PercIBExp1 Prime_6N Target_9A LhcfkKM hcflFIe Congruent right correct Normal 205.9154
305 126 LeftSmaller PercIBExp1 Prime_4N Target_4N BDHMejb FeidGBE Congruent right error Normal 282.0804
305 127 LeftSmaller PercIBExp1 Prime_4A Target_9N CmEDlbi KgmHeFL Incongruent right error Normal 1150.222
305 128 LeftSmaller PercIBExp1 Prime_6A Target_4N FfGackI CalieME Incongruent right correct Normal 851.5599
305 129 LeftSmaller PercIBExp1 Prime_4A Target_1A IgfDHlm KeclJdH Congruent left correct Normal 1166.42
305 130 LeftSmaller PercIBExp1 Prime_1A Target_9A cKJHLBb DdgcJhl Incongruent left correct Normal 776.1448
305 131 LeftSmaller PercIBExp1 Prime_6A Target_9N HCLfjMJ cIjdgEA Congruent left error Normal 434.8349
305 132 LeftSmaller PercIBExp1 Prime_9A Target_9N mHAKDcl mjiBIla Congruent right correct Normal 353.3647
305 133 LeftSmaller PercIBExp1 Prime_4A Target_4N jFbdgAe mkFGacC Congruent left correct Normal 561.1229
305 134 LeftSmaller PercIBExp1 Prime_1N Target_1A mdKhcCa djMChiA Congruent right error Normal 381.3078
305 135 LeftSmaller PercIBExp1 Prime_1A Target_1N eKdMhli FgMlmKD Congruent right error Normal 597.4741
305 136 LeftSmaller PercIBExp1 Prime_9A Target_6N DIAblJd ACMIDGh Congruent right correct Normal 436.5811
305 137 LeftSmaller PercIBExp1 Prime_4N Target_6N jgFeLEM AlJFGfK Incongruent right error Normal 1018.921
305 138 LeftSmaller PercIBExp1 Prime_4A Target_9A hEJHkKa JEiMfdC Incongruent left correct Normal 652.4783
305 139 LeftSmaller PercIBExp1 Prime_1A Target_9N JLjhCcA lifKEIB Incongruent right error Normal 202.3977
305 140 LeftSmaller PercIBExp1 Prime_6A Target_1A iBHEbJe ceGjLKa Incongruent right correct Normal 470.0579
305 141 LeftSmaller PercIBExp1 Prime_6A Target_4A LbiIfGB GkEaiIM Incongruent left error Normal 534.3133
305 142 LeftSmaller PercIBExp1 Prime_4A Target_1N JMfHlkF hDILJbf Congruent left correct Normal 449.765
305 143 LeftSmaller PercIBExp1 Prime_6N Target_4A dCfagLb jaMEJgH Incongruent right correct Normal 785.872
305 144 LeftSmaller PercIBExp1 Prime_9A Target_1A KfFdIJk CLGFAMa Incongruent right correct Normal 779.7151
305 145 LeftSmaller PercIBExp1 Prime_4N Target_1N laeFJmD efjhBHE Congruent right error Normal 757.5036
305 146 LeftSmaller PercIBExp1 Prime_9A Target_1N MEcaFGi cGbJiIH Incongruent right correct Normal 686.5651
305 147 LeftSmaller PercIBExp1 Prime_1A Target_6A IAFmaBJ gFfJmic Incongruent right error Normal 512.9966
305 148 LeftSmaller PercIBExp1 Prime_1N Target_1N KABlILb AicgMEl Congruent left correct Normal 471.7665
305 149 LeftSmaller PercIBExp1 Prime_6N Target_4N kEKbgJl bmeBLJK Incongruent left error Normal 349.8905
305 150 LeftSmaller PercIBExp1 Prime_1N Target_9A febhLIG gLcmIkJ Incongruent left correct Normal 373.0905
305 151 LeftSmaller PercIBExp1 Prime_9N Target_9N JKjebcA KLBEmAI Congruent left error Normal 357.991
305 152 LeftSmaller PercIBExp1 Prime_6N Target_1N hLaEKDF lILCfFh Incongruent right correct Normal 491.2872
305 153 LeftSmaller PercIBExp1 Prime_4N Target_1A IBJCKjm dicFeaL Congruent right error Normal 275.4583
305 154 LeftSmaller PercIBExp1 Prime_6A Target_6A aegMHKc ceFIdjJ Congruent right correct Normal 639.2495
305 155 LeftSmaller PercIBExp1 Prime_1A Target_1A GJjbiHI IljgAik Congruent left correct Normal 608.9007
305 156 LeftSmaller PercIBExp1 Prime_1A Target_4A FkeGACE jHEaCDk Congruent left correct Normal 660.7134
305 157 LeftSmaller PercIBExp1 Prime_9N Target_1A bfgjhiG gehlmGk Incongruent left error Normal 666.2486
305 158 LeftSmaller PercIBExp1 Prime_9A Target_4A aFGfbcD ecFklGI Incongruent right correct Normal 752.5562
305 159 LeftSmaller PercIBExp1 Prime_4N Target_4A jmBCDME KIlmLEd Congruent right error Normal 1044.971
305 160 LeftSmaller PercIBExp1 Prime_1N Target_4A DcjmekB klFgiKA Congruent right error Normal 341.2901
306 1 LeftLarger PercIAPrac Prime_4N Target_4A eaEjgIl JljEaLH Congruent left error Normal 1140.47
306 2 LeftLarger PercIAPrac Prime_1A Target_1A jKDALhC fCkJgie Congruent right correct Normal 1370.415
306 3 LeftLarger PercIAPrac Prime_4A Target_1N aBGgMdc ILfMKFe Congruent left error Normal 693.3576
306 4 LeftLarger PercIAPrac Prime_1N Target_6N AMbkfeK GHKIaib Incongruent right correct Normal 648.6544
306 5 LeftLarger PercIAPrac Prime_6A Target_6N iJCIHLj ckFGBKh Congruent left correct Normal 1263.564
306 6 LeftLarger PercIAPrac Prime_6N Target_1N gdlBcEM DJGIlKm Incongruent left correct Normal 1053.46
306 7 LeftLarger PercIAPrac Prime_4A Target_9A jcACimD ighEKeB Incongruent right correct Normal 637.2902
306 8 LeftLarger PercIAPrac Prime_9N Target_1A deGIaik BjeAGCk Incongruent right error Normal 1047.44
306 9 LeftLarger PercIAPrac Prime_4N Target_6A igaJLCK dlgEKFm Incongruent left error Normal 887.8323
306 10 LeftLarger PercIAPrac Prime_4N Target_4N EIehGJK gJhlaiL Congruent right correct Normal 1202.046
306 11 LeftLarger PercIAPrac Prime_9A Target_6N IcEKdJm jLlDgBJ Congruent right error Normal 1384.212
306 12 LeftLarger PercIAPrac Prime_1A Target_6N lfEFdHj kcaKiCh Incongruent left error Normal 919.1713
306 13 LeftLarger PercIAPrac Prime_1A Target_4N eBghLEc lmDFeah Congruent left error Normal 1237.799
306 14 LeftLarger PercIAPrac Prime_6N Target_4A mKfbgjk BGIeMAa Incongruent right error Normal 674.638
306 15 LeftLarger PercIAPrac Prime_9A Target_6A hEbKeBi dbmBGJf Congruent left correct Normal 897.1358
306 16 LeftLarger PercIAPrac Prime_6A Target_1A eJbiLCD DKFHdcI Incongruent right error Normal 637.4876
306 17 LeftLarger PercIAExp1 Prime_1A Target_9N gBeMkfL fCFGDce Incongruent left error Normal 816.6315
306 18 LeftLarger PercIAExp1 Prime_4N Target_4N blMIGJd MKAJGIk Congruent left error Normal 963.0417
306 19 LeftLarger PercIAExp1 Prime_6N Target_1N MJFbcDd LeFaBDI Incongruent left correct Normal 827.5603
306 20 LeftLarger PercIAExp1 Prime_9N Target_6A LIeklgm AcjmBGL Congruent right error Normal 398.6739
306 21 LeftLarger PercIAExp1 Prime_6N Target_9A GfejlHK GHamkKb Congruent right error Normal 1179.541
306 22 LeftLarger PercIAExp1 Prime_4N Target_9N DLJfCFc BbHFGgE Incongruent right correct Normal 767.1693
306 23 LeftLarger PercIAExp1 Prime_9N Target_1A mMLfbGc kIbfGiK Incongruent left correct Normal 798.6527
306 24 LeftLarger PercIAExp1 Prime_1A Target_4N kaAMfbJ Cagcilb Congruent left error Normal 766.6902
306 25 LeftLarger PercIAExp1 Prime_1A Target_4A DLeAMjF hmDMHfl Congruent right correct Normal 658.6602
306 26 LeftLarger PercIAExp1 Prime_4N Target_6N HjbmhEa idEfBbe Incongruent right correct Normal 972.0155
306 27 LeftLarger PercIAExp1 Prime_1N Target_6N EDgIaCJ IgbeEiJ Incongruent left error Normal 701.3474
306 28 LeftLarger PercIAExp1 Prime_9A Target_4A ilHDEKG KmHciDM Incongruent left correct Normal 1120.741
306 29 LeftLarger PercIAExp1 Prime_4N Target_9A LGdhBli DkmeKcb Incongruent right correct Normal 842.8762
306 30 LeftLarger PercIAExp1 Prime_9A Target_9N flhKaDc mCLecEl Congruent left correct Normal 1131.209
306 31 LeftLarger PercIAExp1 Prime_4N Target_1N BKaMHfh dgjCMJH Congruent right correct Normal 749.1347
306 32 LeftLarger PercIAExp1 Prime_4N Target_1A kjHiAMe LFdecMI Congruent left error Normal 560.0255
306 33 LeftLarger PercIAExp1 Prime_4A Target_4A jkmDBLa DLCJAhG Congruent left error Normal 765.4729
306 34 LeftLarger PercIAExp1 Prime_1A Target_9A EBFbjDm EgfdhJF Incongruent right correct Normal 609.3479
306 35 LeftLarger PercIAExp1 Prime_6N Target_4A GKmAeMc FMlEIih Incongruent left correct Normal 1002.335
306 36 LeftLarger PercIAExp1 Prime_1N Target_9N jhKeAfc albmijf Incongruent right correct Normal 1382.843
306 37 LeftLarger PercIAExp1 Prime_6A Target_6A GjfBckC fBGMAJL Congruent left correct Normal 865.4224
306 38 LeftLarger PercIAExp1 Prime_9A Target_6N kdFaHmM kfGljiC Congruent left correct Normal 802.3416
306 39 LeftLarger PercIAExp1 Prime_4A Target_1N HFkdeiE FlamMCc Congruent right correct Normal 662.8859
306 40 LeftLarger PercIAExp1 Prime_9A Target_4N LJKHjde JFhGCBm Incongruent left correct Normal 681.329
306 41 LeftLarger PercIAExp1 Prime_6N Target_9N mKiaMcg kcLhBeM Congruent left correct Normal 596.719
306 42 LeftLarger PercIAExp1 Prime_6N Target_4N FJAchDd ahmGKEg Incongruent right error Normal 548.0243
306 43 LeftLarger PercIAExp1 Prime_6A Target_9N KaLAIlf FMCBkEe Congruent left correct Normal 848.1805
306 44 LeftLarger PercIAExp1 Prime_9N Target_4A IGKCMEf lBcLHiC Incongruent left correct Normal 893.631
306 45 LeftLarger PercIAExp1 Prime_9N Target_6N DCkBdHe dgIEiFD Congruent left correct Normal 961.3899
306 46 LeftLarger PercIAExp1 Prime_6N Target_6A BJkiFIc FbIKafi Congruent right error Normal 451.5542
306 47 LeftLarger PercIAExp1 Prime_4N Target_6A DfGdAhL igMhEaj Incongruent left error Normal 551.1152
306 48 LeftLarger PercIAExp1 Prime_6A Target_4A aGbgAId dBfbFCK Incongruent right error Normal 585.5579
306 49 LeftLarger PercIAExp1 Prime_9N Target_9N BJdgDFf CEFeMAL Congruent left correct Normal 629.6149
306 50 LeftLarger PercIAExp1 Prime_4A Target_6A GchFjJa LDkbGic Incongruent right correct Normal 390.6217
306 51 LeftLarger PercIAExp1 Prime_6A Target_4N CcMEalG AjieIBM Incongruent right error Normal 907.2849
306 52 LeftLarger PercIAExp1 Prime_4N Target_4A amJdEkL ecMECAK Congruent left error Normal 749.3293
306 53 LeftLarger PercIAExp1 Prime_6A Target_9A idGAakb jmbgCfM Congruent left correct Normal 657.1506
306 54 LeftLarger PercIAExp1 Prime_1N Target_4A cEJkiIa GIJgfHl Congruent right correct Normal 698.1601
306 55 LeftLarger PercIAExp1 Prime_9A Target_6A aEMIbJB kBJfKeb Congruent left correct Normal 680.959
306 56 LeftLarger PercIAExp1 Prime_4A Target_9N iIkGclJ chmBLEj Incongruent right correct Normal 532.3556
306 57 LeftLarger PercIAExp1 Prime_4A Target_1A eHabCEd ijDaCBA Congruent right correct Normal 862.525
306 58 LeftLarger PercIAExp1 Prime_1N Target_9A IkBHjel IgBbdje Incongruent left error Normal 462.2355
306 59 LeftLarger PercIAExp1 Prime_6A Target_6N EdLmaCI bjlGIFH Congruent right error Normal 774.511
306 60 LeftLarger PercIAExp1 Prime_1N Target_4N GlLeFDM JLDjiGA Congruent left error Normal 717.9853
306 61 LeftLarger PercIAExp1 Prime_1A Target_1A KjkBAHm FlkEAed Congruent left error Normal 976.6046
306 62 LeftLarger PercIAExp1 Prime_9N Target_1N BjlFEbK lcmCjDh Incongruent left correct Normal 832.6084
306 63 LeftLarger PercIAExp1 Prime_9A Target_1N dGjMCDl gikafIB Incongruent right error Normal 739.0764
306 64 LeftLarger PercIAExp1 Prime_9A Target_9A hlBJdCf jEmHlbF Congruent left correct Normal 808.4982
306 65 LeftLarger PercIAExp1 Prime_9N Target_4N GFjhCiK IHehMFL Incongruent right error Normal 628.0098
306 66 LeftLarger PercIAExp1 Prime_6N Target_1A mjbiBke IKLJEBf Incongruent left correct Normal 822.4564
306 67 LeftLarger PercIAExp1 Prime_6A Target_1N egAFdhm JIfAkdh Incongruent left correct Normal 1062.881
306 68 LeftLarger PercIAExp1 Prime_1N Target_1N HdJmEjl DFgCjkd Congruent right correct Normal 837.7676
306 69 LeftLarger PercIAExp1 Prime_6A Target_1A mbedAha cHDlaji Incongruent left correct Normal 570.4895
306 70 LeftLarger PercIAExp1 Prime_4A Target_6N EifGgkh BgCJfAD Incongruent right correct Normal 1065.519
306 71 LeftLarger PercIAExp1 Prime_6N Target_6N jFlDhmC KEkLBDH Congruent right error Normal 835.9367
306 72 LeftLarger PercIAExp1 Prime_4A Target_4N ELjDJab lMgAhLf Congruent left error Normal 779.5202
306 73 LeftLarger PercIAExp1 Prime_9A Target_1A HhkgGjb gleaGIf Incongruent right error Normal 625.5525
306 74 LeftLarger PercIAExp1 Prime_1N Target_1A icKagGI HhJdDAj Congruent left error Normal 739.1979
306 75 LeftLarger PercIAExp1 Prime_1N Target_6A JkheAlF IHGCgbD Incongruent left error Normal 422.72
306 76 LeftLarger PercIAExp1 Prime_1A Target_6A LjBFgcI kmdiHjM Incongruent left error Normal 553.2175
306 77 LeftLarger PercIAExp1 Prime_9N Target_9A FChcJDj LejMAmB Congruent left correct Normal 1125.835
306 78 LeftLarger PercIAExp1 Prime_1A Target_1N mldABba cgbMDhf Congruent right correct Normal 924.8785
306 79 LeftLarger PercIAExp1 Prime_4A Target_9A idLkeBI mEaGMhJ Incongruent left error Normal 579.5725
306 80 LeftLarger PercIAExp1 Prime_1A Target_6N AECFDdk ifaEehL Incongruent right correct Normal 915.1806
306 81 LeftSmaller PercIBPrac Prime_6A Target_1A mHaLBfF eLahEkD Incongruent right correct Normal 992.8705
306 82 LeftSmaller PercIBPrac Prime_4N Target_6A JbMLjBi jdBHiaI Incongruent left correct Normal 877.3024
306 83 LeftSmaller PercIBPrac Prime_1N Target_9N ajmfLMc KLEIaMb Incongruent left correct Normal 805.6127
306 84 LeftSmaller PercIBPrac Prime_4N Target_4N IkHalcd AHkMfhd Congruent left correct Normal 1144.767
306 85 LeftSmaller PercIBPrac Prime_9A Target_6N cCAHmGM jefhKHb Congruent right correct Normal 393.9588
306 86 LeftSmaller PercIBPrac Prime_6N Target_4A IlHmAKk JIfLkBF Incongruent right correct Normal 733.4856
306 87 LeftSmaller PercIBPrac Prime_9N Target_1N kjGAhKF EJjlhAH Incongruent right correct Normal 859.7713
306 88 LeftSmaller PercIBPrac Prime_9A Target_1N fMCeJAd hDBKleg Incongruent left error Normal 594.8245
306 89 LeftSmaller PercIBPrac Prime_6N Target_6N jBJMDLe LcMHkmA Congruent right correct Normal 641.8753
306 90 LeftSmaller PercIBPrac Prime_1N Target_9A LcjEBMi CBdLmGH Incongruent right error Normal 688.5174
306 91 LeftSmaller PercIBPrac Prime_6N Target_1N BbimlKa jmAbGiE Incongruent left error Normal 846.8674
306 92 LeftSmaller PercIBPrac Prime_6A Target_4N hLbgcHa eEMBHmh Incongruent left error Normal 776.7059
306 93 LeftSmaller PercIBPrac Prime_4N Target_9A jaEkDih HJkiGKL Incongruent right error Normal 618.4428
306 94 LeftSmaller PercIBPrac Prime_9A Target_9A LHJBiaf lfeFigJ Congruent right correct Normal 586.7083
306 95 LeftSmaller PercIBPrac Prime_9N Target_4N DhAIlKk aHgDdGJ Incongruent left error Normal 895.7514
306 96 LeftSmaller PercIBPrac Prime_4N Target_1N IHBfGLE jFMlicm Congruent right error Normal 562.3183
306 97 LeftSmaller PercIBExp1 Prime_4A Target_6N IhJleMi BdfHFiA Incongruent left correct Normal 872.5099
306 98 LeftSmaller PercIBExp1 Prime_9N Target_9N DMLEdgF EAcJFhK Congruent left error Normal 651.0731
306 99 LeftSmaller PercIBExp1 Prime_9A Target_9N IdaeBjA aejDGcf Congruent right correct Normal 470.2441
306 100 LeftSmaller PercIBExp1 Prime_9N Target_4N cGehgLf dLagjGm Incongruent right correct Normal 764.2905
306 101 LeftSmaller PercIBExp1 Prime_9N Target_6A ELjmCMi LdbHfCl Congruent right correct Normal 774.5623
306 102 LeftSmaller PercIBExp1 Prime_4A Target_4N kFKbDdi JlKMiCk Congruent left correct Normal 623.7346
306 103 LeftSmaller PercIBExp1 Prime_9N Target_9A MlagCLc cFkmGde Congruent right correct Normal 724.2698
306 104 LeftSmaller PercIBExp1 Prime_1N Target_1N FcikBKI FDEhKcA Congruent left correct Normal 586.7478
306 105 LeftSmaller PercIBExp1 Prime_6N Target_9A eGFcHgL iKklEDH Congruent right correct Normal 497.9746
306 106 LeftSmaller PercIBExp1 Prime_9A Target_4A IfaELdc jEbLgGf Incongruent right correct Normal 894.1385
306 107 LeftSmaller PercIBExp1 Prime_6N Target_9N fmDCGhI IFHMiDm Congruent left error Normal 498.1275
306 108 LeftSmaller PercIBExp1 Prime_6N Target_1N fDaEgKC hAkGmeI Incongruent right correct Normal 764.7415
306 109 LeftSmaller PercIBExp1 Prime_9A Target_6N kEdJKlf KkcJMea Congruent right correct Normal 755.5342
306 110 LeftSmaller PercIBExp1 Prime_4A Target_1A kLhcACb aCgjLAb Congruent left correct Normal 747.328
306 111 LeftSmaller PercIBExp1 Prime_6N Target_4A JfeHgdC BamilKL Incongruent right correct Normal 473.4052
306 112 LeftSmaller PercIBExp1 Prime_1N Target_9N lhAFLfC HecdfLM Incongruent left correct Normal 358.2366
306 113 LeftSmaller PercIBExp1 Prime_4A Target_6A jmIkegE KlEGjgB Incongruent right error Normal 463.9601
306 114 LeftSmaller PercIBExp1 Prime_4N Target_6A iLalKfj ghBKbJI Incongruent right error Normal 417.8915
306 115 LeftSmaller PercIBExp1 Prime_6A Target_1N kHIfEDm JegIkGl Incongruent right correct Normal 893.2702
306 116 LeftSmaller PercIBExp1 Prime_6N Target_4N GglJdkB cFBbAge Incongruent left error Normal 604.3414
306 117 LeftSmaller PercIBExp1 Prime_6A Target_9N KAjMHce FGdKjbf Congruent right correct Normal 951.1122
306 118 LeftSmaller PercIBExp1 Prime_6A Target_4N idEjGmk iFkKMje Incongruent right correct Normal 850.9175
306 119 LeftSmaller PercIBExp1 Prime_6N Target_1A LiJFcdE FGMLjJB Incongruent left error Normal 1114.454
306 120 LeftSmaller PercIBExp1 Prime_4N Target_1A jLdDBGl ikLIAlg Congruent left correct Normal 1018.265
306 121 LeftSmaller PercIBExp1 Prime_1A Target_1N LAmMdhg DeaLHAC Congruent left correct Normal 680.0849
306 122 LeftSmaller PercIBExp1 Prime_4N Target_4A gBfJajd HkBhKDG Congruent left correct Normal 668.6077
306 123 LeftSmaller PercIBExp1 Prime_1N Target_9A CmfKcdI jDkbeGA Incongruent left correct Normal 821.2541
306 124 LeftSmaller PercIBExp1 Prime_6N Target_6N aKEJgCj clMEhmL Congruent right correct Normal 762.3892
306 125 LeftSmaller PercIBExp1 Prime_1A Target_1A mHhFcfa cLhbIdD Congruent right error Normal 551.0243
306 126 LeftSmaller PercIBExp1 Prime_9A Target_9A gfIbGhi gFaiGkf Congruent right correct Normal 640.3034
306 127 LeftSmaller PercIBExp1 Prime_1N Target_4A DFlceEM FklLAEB Congruent right error Normal 1133.335
306 128 LeftSmaller PercIBExp1 Prime_6N Target_6A lEjghBI dFCHJig Congruent left error Normal 478.0912
306 129 LeftSmaller PercIBExp1 Prime_1N Target_6N MkEGIab ABiCKhM Incongruent right error Normal 610.1838
306 130 LeftSmaller PercIBExp1 Prime_9A Target_6A CMjdlfb hJciFAE Congruent right correct Normal 463.2137
306 131 LeftSmaller PercIBExp1 Prime_9A Target_1A afeJhcM jFAeDKb Incongruent left error Normal 503.1531
306 132 LeftSmaller PercIBExp1 Prime_1A Target_4N KFCAgdi GeEjLIK Congruent right error Normal 422.0489
306 133 LeftSmaller PercIBExp1 Prime_9N Target_6N kGBIDCh hjKigMc Congruent right correct Normal 518.3493
306 134 LeftSmaller PercIBExp1 Prime_1A Target_6N IbfMaij GMhAfHd Incongruent left correct Normal 391.8687
306 135 LeftSmaller PercIBExp1 Prime_4N Target_4N egCdcfj BHahcmM Congruent right error Normal 429.4114
306 136 LeftSmaller PercIBExp1 Prime_4N Target_6N hdBjKJi bMBJDIj Incongruent right error Normal 373.8434
306 137 LeftSmaller PercIBExp1 Prime_9N Target_1N cFebCMl dFEbcha Incongruent right correct Normal 605.2371
306 138 LeftSmaller PercIBExp1 Prime_1N Target_6A ihGLCJl bKiAkIm Incongruent right error Normal 518.1649
306 139 LeftSmaller PercIBExp1 Prime_9N Target_4A bfHJMKG BCEkhmL Incongruent left error Normal 473.0021
306 140 LeftSmaller PercIBExp1 Prime_9A Target_1N ikBKbaG dIMBjHf Incongruent left error Normal 301.7665
306 141 LeftSmaller PercIBExp1 Prime_6A Target_1A KflkmjB iIbGMfh Incongruent right correct Normal 255.2504
306 142 LeftSmaller PercIBExp1 Prime_1A Target_9N cBifjhl gIfBGmK Incongruent left correct Normal 383.9502
306 143 LeftSmaller PercIBExp1 Prime_4N Target_9A fFEkBJh hfJdlmL Incongruent left correct Normal 378.3604
306 144 LeftSmaller PercIBExp1 Prime_4N Target_9N dbILmMF FfkHIEb Incongruent right error Normal 566.1441
306 145 LeftSmaller PercIBExp1 Prime_6A Target_4A DjGLlFd EAMmhlC Incongruent left error Normal 492.5891
306 146 LeftSmaller PercIBExp1 Prime_4A Target_4A LHDkKie LAdCmlK Congruent left correct Normal 483.1193
306 147 LeftSmaller PercIBExp1 Prime_4N Target_1N jJACIfl FLhJjBf Congruent right error Normal 440.7917
306 148 LeftSmaller PercIBExp1 Prime_1A Target_6A ebcBJai begAiJC Incongruent right error Normal 398.7999
306 149 LeftSmaller PercIBExp1 Prime_4A Target_9N miblEhB HkEdIhC Incongruent left correct Normal 741.9643
306 150 LeftSmaller PercIBExp1 Prime_1A Target_4A jBEhMJI hkLDHCi Congruent left correct Normal 486.8549
306 151 LeftSmaller PercIBExp1 Prime_4A Target_1N DCciBme gbLMBKh Congruent right error Normal 584.556
306 152 LeftSmaller PercIBExp1 Prime_1A Target_9A gAfJjDe FAfjiDe Incongruent right error Normal 468.3584
306 153 LeftSmaller PercIBExp1 Prime_6A Target_6N GeCmAgL beLhKCF Congruent left error Normal 673.7695
306 154 LeftSmaller PercIBExp1 Prime_9N Target_1A KBJGdhc EHMBJAh Incongruent right correct Normal 377.5308
306 155 LeftSmaller PercIBExp1 Prime_6A Target_9A jChaIAJ hdBgDmL Congruent left error Normal 483.6979
306 156 LeftSmaller PercIBExp1 Prime_1N Target_1A DMGgbkH EHJBIck Congruent right error Normal 427.5131
306 157 LeftSmaller PercIBExp1 Prime_1N Target_4N GEFImDA KdfiBgA Congruent left correct Normal 784.4091
306 158 LeftSmaller PercIBExp1 Prime_6A Target_6A Aidalgc HIleKdG Congruent right correct Normal 711.1868
306 159 LeftSmaller PercIBExp1 Prime_4A Target_9A jKhgMdC JgKEGMd Incongruent right error Normal 858.2222
306 160 LeftSmaller PercIBExp1 Prime_9A Target_4N LdMHfKc LdCiMIa Incongruent left error Normal 396.4151
307 1 LeftLarger PercIAPrac Prime_1N Target_1N BLMIgEJ HkGJKBM Congruent left error Normal 1862.72
307 2 LeftLarger PercIAPrac Prime_6A Target_4N eGkcMid CgJlGaj Incongruent right error Normal 2537.658
307 3 LeftLarger PercIAPrac Prime_6A Target_1N mAHjeJI ldFgDef Incongruent right error Normal 1503.608
307 4 LeftLarger PercIAPrac Prime_4A Target_1A MFmbjkE fAMBHke Congruent left error Normal 1472.022
307 5 LeftLarger PercIAPrac Prime_4A Target_9A ckamHAe IiAdEDa Incongruent left error Normal 1612.843
307 6 LeftLarger PercIAPrac Prime_9N Target_6A khAijEK ibeHfdA Congruent right error Normal 1516.776
307 7 LeftLarger PercIAPrac Prime_1A Target_9N aJbgeMB DFKglGa Incongruent right correct Normal 3343.201
307 8 LeftLarger PercIAPrac Prime_4N Target_1N dlgihcj feGCjJl Congruent right correct Normal 1085.579
307 9 LeftLarger PercIAPrac Prime_9A Target_6A kClEFLH KFLjAIG Congruent right error Normal 1350.132
307 10 LeftLarger PercIAPrac Prime_6N Target_6N BDAFbEc glLkBFe Congruent left correct Normal 1378.315
307 11 LeftLarger PercIAPrac Prime_9N Target_4N LdhjJeD jEdFaIm Incongruent left correct Normal 1391.233
307 12 LeftLarger PercIAPrac Prime_4A Target_4A JfkHjei jdaLfGe Congruent right correct Normal 2151.229
307 13 LeftLarger PercIAPrac Prime_6A Target_4A DcCfIeb HEAhfIJ Incongruent right error Normal 1995.727
307 14 LeftLarger PercIAPrac Prime_4N Target_6N FdbcDHL KFaAHGl Incongruent right correct Normal 1086.924
307 15 LeftLarger PercIAPrac Prime_4A Target_4N MmhFeKc feKmBci Congruent left error Normal 825.3705
307 16 LeftLarger PercIAPrac Prime_1N Target_4N glBaEfj hCagDKG Congruent right correct Normal 1392.123
307 17 LeftLarger PercIAExp1 Prime_4N Target_4A hfdBclm KmMIeDc Congruent left error Normal 1745.24
307 18 LeftLarger PercIAExp1 Prime_4A Target_9A BLDkhAK kcEdIFC Incongruent left error Normal 1660.054
307 19 LeftLarger PercIAExp1 Prime_4A Target_4A kADbChB BkmaEJb Congruent left error Normal 1583.888
307 20 LeftLarger PercIAExp1 Prime_6A Target_4A JHaGbLI lKdeDAm Incongruent right error Normal 1093.302
307 21 LeftLarger PercIAExp1 Prime_1A Target_9N FfClbgA JlgkKFD Incongruent left error Normal 1397.233
307 22 LeftLarger PercIAExp1 Prime_9A Target_1A KDlgmiH ibCFDBd Incongruent right error Normal 1084.669
307 23 LeftLarger PercIAExp1 Prime_4N Target_1A madclHg bdfijal Congruent left error Normal 1348.735
307 24 LeftLarger PercIAExp1 Prime_6N Target_9N iIckAmJ lhGaMgL Congruent right error Normal 1530.037
307 25 LeftLarger PercIAExp1 Prime_9A Target_1N EjKcDkB JBHhgdf Incongruent right error Normal 826.9602
307 26 LeftLarger PercIAExp1 Prime_1N Target_4A EibJAha dCafHAc Congruent left error Normal 1481.698
307 27 LeftLarger PercIAExp1 Prime_6N Target_1A KcCFBHj CBacbFi Incongruent left correct Normal 1627.702
307 28 LeftLarger PercIAExp1 Prime_4N Target_1N alMHfgj khjimKA Congruent right correct Normal 1045.321
307 29 LeftLarger PercIAExp1 Prime_6A Target_9A cmCIiek IBGHhMC Congruent left correct Normal 1337.045
307 30 LeftLarger PercIAExp1 Prime_4A Target_4N IjAhlEG aJhiBcd Congruent left error Normal 953.2343
307 31 LeftLarger PercIAExp1 Prime_1N Target_6A LcBfkmg iEjlfIK Incongruent right correct Normal 1398.392
307 32 LeftLarger PercIAExp1 Prime_1A Target_1N akMGiFh JkGhMDf Congruent right correct Normal 1635.188
307 33 LeftLarger PercIAExp1 Prime_1A Target_6N gClDhjE MGjIbJc Incongruent left error Normal 1226.258
307 34 LeftLarger PercIAExp1 Prime_4N Target_6N fFgCDae bFdKgGA Incongruent right correct Normal 1135.968
307 35 LeftLarger PercIAExp1 Prime_4N Target_4N LgiMFJI HKihael Congruent right correct Normal 1319.663
307 36 LeftLarger PercIAExp1 Prime_1A Target_6A JmfgehE bIDLjgC Incongruent left error Normal 1737.688
307 37 LeftLarger PercIAExp1 Prime_6N Target_4A EglhGLj GgeJLaK Incongruent left correct Normal 1396.002
307 38 LeftLarger PercIAExp1 Prime_9A Target_6N HGDdALM gFeCica Congruent right error Normal 767.5319
307 39 LeftLarger PercIAExp1 Prime_9N Target_4N dDKCkaJ diBGLek Incongruent right error Normal 1639.092
307 40 LeftLarger PercIAExp1 Prime_1A Target_9A GbLmEjh LbBlAHm Incongruent left error Normal 2730.52
307 41 LeftLarger PercIAExp1 Prime_9A Target_4N dBAGjJh ChMlAKi Incongruent left correct Normal 956.1828
307 42 LeftLarger PercIAExp1 Prime_6N Target_4N agdGeLA EfdIgAc Incongruent left correct Normal 851.383
307 43 LeftLarger PercIAExp1 Prime_6N Target_9A jiIGAEF kIFAHLG Congruent right error Normal 789.8193
307 44 LeftLarger PercIAExp1 Prime_9N Target_9A LbmiEIj MgAkCBK Congruent right error Normal 1268.791
307 45 LeftLarger PercIAExp1 Prime_4A Target_1A DhLGcEM lmjBfig Congruent left error Normal 1045.004
307 46 LeftLarger PercIAExp1 Prime_4N Target_9A kLAGifE HCKMeda Incongruent right correct Normal 1386.196
307 47 LeftLarger PercIAExp1 Prime_1N Target_1N eJKABHa hGcKbLD Congruent left error Normal 1342.704
307 48 LeftLarger PercIAExp1 Prime_6A Target_6A HgLFKak hblgjEL Congruent right error Normal 1508.607
307 49 LeftLarger PercIAExp1 Prime_1A Target_4A kjghJEm lIJAche Congruent right correct Normal 1578.647
307 50 LeftLarger PercIAExp1 Prime_9A Target_4A mAaegjG dDGhCBm Incongruent left correct Normal 1313.445
307 51 LeftLarger PercIAExp1 Prime_1N Target_1A BlHfMKj mEHlcgi Congruent left error Normal 1025.362
307 52 LeftLarger PercIAExp1 Prime_6A Target_1N AEkjDaG DAKLcFE Incongruent left correct Normal 1842.084
307 53 LeftLarger PercIAExp1 Prime_1N Target_9A jbeCcmM BjDGaiJ Incongruent right correct Normal 823.5885
307 54 LeftLarger PercIAExp1 Prime_4A Target_1N eLHBIEG KfLaCDh Congruent left error Normal 1204.067
307 55 LeftLarger PercIAExp1 Prime_1A Target_4N dFBDmej hfGaeMK Congruent right correct Normal 1614.868
307 56 LeftLarger PercIAExp1 Prime_9A Target_9N KLlAgEm kMehIKi Congruent left correct Normal 2170.037
307 57 LeftLarger PercIAExp1 Prime_4A Target_9N CEfigae mhceFMl Incongruent right correct Normal 1302.833
307 58 LeftLarger PercIAExp1 Prime_4A Target_6N AjkIila KLEfgJl Incongruent right correct Normal 819.1521
307 59 LeftLarger PercIAExp1 Prime_9N Target_9N LblCaeF GkHLDbA Congruent left correct Normal 535.9733
307 60 LeftLarger PercIAExp1 Prime_9A Target_6A idEmflL JkcDLHe Congruent right error Normal 910.2942
307 61 LeftLarger PercIAExp1 Prime_1N Target_4N gbLfADe mJfIiDa Congruent left error Normal 716.1956
307 62 LeftLarger PercIAExp1 Prime_1N Target_9N HjamABf iBgGIAd Incongruent left error Normal 990.8439
307 63 LeftLarger PercIAExp1 Prime_9N Target_6N IMaedjD cHEedaI Congruent left correct Normal 1535.901
307 64 LeftLarger PercIAExp1 Prime_6N Target_6N mAdBJFl hGCLADl Congruent right error Normal 1105.096
307 65 LeftLarger PercIAExp1 Prime_6N Target_6A fcACghF faFbECe Congruent right error Normal 1015.662
307 66 LeftLarger PercIAExp1 Prime_6A Target_1A afkglLJ MjLlkEF Incongruent right error Normal 1014.091
307 67 LeftLarger PercIAExp1 Prime_6A Target_6N eJgBcKA ADkmjaM Congruent left correct Normal 1034.614
307 68 LeftLarger PercIAExp1 Prime_9A Target_9A hBkHeIc aeImCDl Congruent right error Normal 1334.535
307 69 LeftLarger PercIAExp1 Prime_4N Target_9N ekdFjAD BLFKiJG Incongruent left error Normal 967.9791
307 70 LeftLarger PercIAExp1 Prime_4N Target_6A mjeFbcd CgHlKiD Incongruent right correct Normal 874.77
307 71 LeftLarger PercIAExp1 Prime_6A Target_4N FbjKcJh BGLcCjd Incongruent left correct Normal 1538.434
307 72 LeftLarger PercIAExp1 Prime_6N Target_1N jgdmkiI hcjHLmB Incongruent right error Normal 1384.091
307 73 LeftLarger PercIAExp1 Prime_6A Target_9N bekEglD LiDBJmK Congruent right error Normal 1057.054
307 74 LeftLarger PercIAExp1 Prime_9N Target_1N jahAdGH Lhifcdl Incongruent left correct Normal 1349.977
307 75 LeftLarger PercIAExp1 Prime_4A Target_6A FDlfCGi LcdgCEF Incongruent left error Normal 1617.148
307 76 LeftLarger PercIAExp1 Prime_9N Target_4A cIiFKmM Dkafgle Incongruent left correct Normal 897.8607
307 77 LeftLarger PercIAExp1 Prime_9N Target_6A bhCHaAd glidImF Congruent right error Normal 1470.123
307 78 LeftLarger PercIAExp1 Prime_1N Target_6N igmBGaA hgGcCda Incongruent left error Normal 1077.08
307 79 LeftLarger PercIAExp1 Prime_9N Target_1A dIbAGmL icdJBCl Incongruent right error Normal 862.8927
307 80 LeftLarger PercIAExp1 Prime_1A Target_1A JhalmfD maAjDfk Congruent left error Normal 1004.754
307 81 LeftSmaller PercIBPrac Prime_1N Target_9A MkfBFJh EHjmgbh Incongruent left correct Normal 1091.401
307 82 LeftSmaller PercIBPrac Prime_9A Target_1A lIdcFDf caLAHdE Incongruent right correct Normal 1502.962
307 83 LeftSmaller PercIBPrac Prime_6A Target_6N AMcGjBE eBfJHFM Congruent left error Normal 962.3978
307 84 LeftSmaller PercIBPrac Prime_1A Target_9A lhEgbDB cIKCDgk Incongruent right error Normal 1271.329
307 85 LeftSmaller PercIBPrac Prime_6N Target_6N KglGDJM HBAKfMb Congruent left error Normal 891.2056
307 86 LeftSmaller PercIBPrac Prime_9N Target_1N mkdIEhi FgkCljd Incongruent left error Normal 818.9057
307 87 LeftSmaller PercIBPrac Prime_6A Target_9N CDjaHdL MECcgHJ Congruent left error Normal 1462.566
307 88 LeftSmaller PercIBPrac Prime_6A Target_1N EKhdgfB AMLIiDC Incongruent right correct Normal 1061.515
307 89 LeftSmaller PercIBPrac Prime_6N Target_1A jIFKAkl albhmBC Incongruent right correct Normal 1204.007
307 90 LeftSmaller PercIBPrac Prime_9N Target_6N hAGaCiB aLldGcH Congruent left error Normal 711.374
307 91 LeftSmaller PercIBPrac Prime_9A Target_4N CAFHbMj ejhACgL Incongruent left error Normal 1215.174
307 92 LeftSmaller PercIBPrac Prime_6A Target_4A JIkFeDj lgDGmAI Incongruent right correct Normal 1020.212
307 93 LeftSmaller PercIBPrac Prime_9N Target_9N igGeaKh mCjlbcA Congruent right correct Normal 1112.141
307 94 LeftSmaller PercIBPrac Prime_1A Target_6N lBfFGhm dfHFgkc Incongruent right error Normal 1084.582
307 95 LeftSmaller PercIBPrac Prime_4A Target_9A bdeijIf DMabiKl Incongruent left correct Normal 938.6274
307 96 LeftSmaller PercIBPrac Prime_4N Target_9A dIhFjMe JHKkICa Incongruent right error Normal 1073.04
307 97 LeftSmaller PercIBExp1 Prime_1A Target_9A dLelfFI EkBlfFH Incongruent right error Normal 961.2626
307 98 LeftSmaller PercIBExp1 Prime_1N Target_9A jgDkLBh dAIcCHg Incongruent left correct Normal 908.502
307 99 LeftSmaller PercIBExp1 Prime_6N Target_4A bhclKfF DjbGBaJ Incongruent left error Normal 975.9479
307 100 LeftSmaller PercIBExp1 Prime_6A Target_9A GECKaLh jiFEBHb Congruent right correct Normal 1318.82
307 101 LeftSmaller PercIBExp1 Prime_9N Target_6A LlKijkf keMCLAJ Congruent right correct Normal 1344.807
307 102 LeftSmaller PercIBExp1 Prime_9A Target_9A bLhEcCI kgfhcEd Congruent left error Normal 668.3461
307 103 LeftSmaller PercIBExp1 Prime_1N Target_4A giJhAHM DEHekaB Congruent right error Normal 688.6293
307 104 LeftSmaller PercIBExp1 Prime_6A Target_6N mfjILke JmHMebB Congruent right correct Normal 1007.78
307 105 LeftSmaller PercIBExp1 Prime_6N Target_1N JGfHFEL HcDlGJj Incongruent left error Normal 1016.859
307 106 LeftSmaller PercIBExp1 Prime_9N Target_9N lhaHiIG EClJBih Congruent right correct Normal 841.5593
307 107 LeftSmaller PercIBExp1 Prime_1N Target_6A lCaKdJF mhHCjdc Incongruent right error Normal 774.1591
307 108 LeftSmaller PercIBExp1 Prime_6A Target_1A IMKLGJB eAJmdlG Incongruent left error Normal 848.8988
307 109 LeftSmaller PercIBExp1 Prime_4N Target_6A CJjaFcg kAlBDcd Incongruent left correct Normal 865.6357
307 110 LeftSmaller PercIBExp1 Prime_4N Target_4N KedEahD HKCmdDF Congruent left correct Normal 1179.225
307 111 LeftSmaller PercIBExp1 Prime_6N Target_6N dcaFBlA JlcAbmg Congruent right correct Normal 729.2911
307 112 LeftSmaller PercIBExp1 Prime_4N Target_6N AHIKlCM CjkIicM Incongruent left correct Normal 918.7242
307 113 LeftSmaller PercIBExp1 Prime_6N Target_6A CJLMBKA eHGdjaJ Congruent left error Normal 1156.61
307 114 LeftSmaller PercIBExp1 Prime_9A Target_9N eilLAEc mMclCGa Congruent right correct Normal 928.7819
307 115 LeftSmaller PercIBExp1 Prime_1A Target_4A KmGcHdf dFjHgfl Congruent left correct Normal 754.347
307 116 LeftSmaller PercIBExp1 Prime_4N Target_1N HgamGjh KbAmFfc Congruent left correct Normal 1009.555
307 117 LeftSmaller PercIBExp1 Prime_4N Target_1A LKiBlDm JbIhDMd Congruent right error Normal 736.1667
307 118 LeftSmaller PercIBExp1 Prime_9N Target_1N cblIJDA GjKidlC Incongruent left error Normal 861.1193
307 119 LeftSmaller PercIBExp1 Prime_6N Target_1A DfmBbCA aKlLhJC Incongruent left error Normal 980.6145
307 120 LeftSmaller PercIBExp1 Prime_4A Target_9A cjfeAIl bJFgKje Incongruent left correct Normal 1201.348
307 121 LeftSmaller PercIBExp1 Prime_4A Target_6A daIALJf iDEBcLb Incongruent right error Normal 832.7842
307 122 LeftSmaller PercIBExp1 Prime_4A Target_6N hCMKgIe flLkbGC Incongruent left correct Normal 838.1381
307 123 LeftSmaller PercIBExp1 Prime_9N Target_4N mJLgfci KFeJIDm Incongruent left error Normal 1243.156
307 124 LeftSmaller PercIBExp1 Prime_1A Target_6A gGJlfeE cjEfMCd Incongruent right error Normal 644.9136
307 125 LeftSmaller PercIBExp1 Prime_6A Target_4N mcgEFka mjGhiHE Incongruent right correct Normal 814.0923
307 126 LeftSmaller PercIBExp1 Prime_4N Target_4A FdheLGC DeIEFdM Congruent left correct Normal 559.2687
307 127 LeftSmaller PercIBExp1 Prime_6N Target_4N BdGADEM CIfKckl Incongruent left error Normal 1657.789
307 128 LeftSmaller PercIBExp1 Prime_4A Target_4A HEekiGc gJjIchm Congruent right error Normal 759.3949
307 129 LeftSmaller PercIBExp1 Prime_9N Target_4A jFGCLIb LkaglHj Incongruent right correct Normal 886.4156
307 130 LeftSmaller PercIBExp1 Prime_6N Target_9N lkjCifJ cKlEfLd Congruent left error Normal 1347.216
307 131 LeftSmaller PercIBExp1 Prime_9A Target_4A CIjmEch AHaFcge Incongruent left error Normal 1228.741
307 132 LeftSmaller PercIBExp1 Prime_9A Target_4N CdbJfDG GKDCHgi Incongruent right correct Normal 956.5445
307 133 LeftSmaller PercIBExp1 Prime_4A Target_9N Mjihblg BdJKCEf Incongruent right error Normal 635.2244
307 134 LeftSmaller PercIBExp1 Prime_1N Target_9N jCBlgGc FiHhAlb Incongruent left correct Normal 729.6035
307 135 LeftSmaller PercIBExp1 Prime_1A Target_9N EIjhmFa FkKEJga Incongruent right error Normal 621.1896
307 136 LeftSmaller PercIBExp1 Prime_6N Target_9A HAihkGB aEALjFG Congruent left error Normal 737.7553
307 137 LeftSmaller PercIBExp1 Prime_6A Target_9N BEFhjil EFkjBiJ Congruent right correct Normal 1347.508
307 138 LeftSmaller PercIBExp1 Prime_1A Target_1A ajCMBKb laAKLFb Congruent right error Normal 855.2185
307 139 LeftSmaller PercIBExp1 Prime_4N Target_9N HKhJbGk IBClHMb Incongruent left correct Normal 626.0286
307 140 LeftSmaller PercIBExp1 Prime_9N Target_1A lcEmgKM ajDCfBJ Incongruent left error Normal 1130.424
307 141 LeftSmaller PercIBExp1 Prime_1N Target_1A HKaFElm EkefILK Congruent left correct Normal 619.9426
307 142 LeftSmaller PercIBExp1 Prime_4A Target_1N IJlkFBj GJeLmKj Congruent right error Normal 596.4085
307 143 LeftSmaller PercIBExp1 Prime_9N Target_9A mKDegkI dIhHaBJ Congruent right correct Normal 1239.569
307 144 LeftSmaller PercIBExp1 Prime_1A Target_4N hBGjDCd EIMCBJj Congruent left correct Normal 1012.246
307 145 LeftSmaller PercIBExp1 Prime_9A Target_1N mhFjfLc dJKkeEH Incongruent left error Normal 836.1673
307 146 LeftSmaller PercIBExp1 Prime_9A Target_6N EMLHlia Ihlfejb Congruent right correct Normal 461.9585
307 147 LeftSmaller PercIBExp1 Prime_1A Target_6N CJfEkec mAiMhBL Incongruent right error Normal 1052.881
307 148 LeftSmaller PercIBExp1 Prime_1A Target_1N CliGmDE EBKLjbk Congruent left correct Normal 712.5359
307 149 LeftSmaller PercIBExp1 Prime_6A Target_4A lAmcLMk kbKdclI Incongruent left error Normal 878.3439
307 150 LeftSmaller PercIBExp1 Prime_6A Target_1N bgdhiCf mjgHIAc Incongruent left error Normal 700.8933
307 151 LeftSmaller PercIBExp1 Prime_4A Target_1A AfDBiMl MHkCEbf Congruent right error Normal 671.0647
307 152 LeftSmaller PercIBExp1 Prime_9N Target_6N eADgacH fCkMDAJ Congruent right correct Normal 1019.18
307 153 LeftSmaller PercIBExp1 Prime_1N Target_4N LcIgmjK CDJGgIK Congruent left correct Normal 521.9234
307 154 LeftSmaller PercIBExp1 Prime_4N Target_9A fLmhekG kgjHLmd Incongruent right error Normal 921.0801
307 155 LeftSmaller PercIBExp1 Prime_9A Target_6A kfFcJma cAefbKC Congruent left error Normal 658.7473
307 156 LeftSmaller PercIBExp1 Prime_1N Target_1N FaAeJMk kDLclKB Congruent left correct Normal 465.0502
307 157 LeftSmaller PercIBExp1 Prime_4A Target_4N EakBigC DGbfMHg Congruent left correct Normal 769.5191
