sub trial_no group_type block_type prime target mask1 mask2 congruency key_press key_error time_error RT
601 1 LeftLarger PercIAPrac Prime_9N Target_4A FlIjdib lhkgjib Incongruent left correct Normal 1848.088
601 2 LeftLarger PercIAPrac Prime_6N Target_6A FacEiHk JmLDHKa Congruent right error Normal 522.9224
601 3 LeftLarger PercIAPrac Prime_9A Target_9A MJLCDce ALaDJbG Congruent left correct Normal 1234.22
601 4 LeftLarger PercIAPrac Prime_1A Target_9N gGjmILe CJIlDbL Incongruent right correct Normal 3698.345
601 5 LeftLarger PercIAPrac Prime_9N Target_4N HFdkCim KmfILBc Incongruent left correct Normal 1498.991
601 6 LeftLarger PercIAPrac Prime_6N Target_4A iMlekJj IHeAjGC Incongruent right error Normal 2489.146
601 7 LeftLarger PercIAPrac Prime_6N Target_6N IDKAejl fhMAJIg Congruent left correct Normal 1784.085
601 8 LeftLarger PercIAPrac Prime_1N Target_4N iIgmCGf GbDAKhl Congruent left error Normal 2304.415
601 9 LeftLarger PercIAPrac Prime_9A Target_4N eMKbHIi FAGMDiK Incongruent right error Normal 2083.137
601 10 LeftLarger PercIAPrac Prime_9A Target_6A MlhImba ibHcCma Congruent right error Normal 1390.339
601 11 LeftLarger PercIAPrac Prime_9N Target_9N eEkIMFg GceHLfF Congruent left correct Normal 3089.249
601 12 LeftLarger PercIAPrac Prime_1N Target_1N KCiJegI JdEAGDK Congruent right correct Normal 2424.199
601 13 LeftLarger PercIAPrac Prime_1N Target_1A iaemdHA chLaHlk Congruent left error Normal 2060.427
601 14 LeftLarger PercIAPrac Prime_9A Target_4A EfFBKJj dkliMLI Incongruent right error Normal 2328.597
601 15 LeftLarger PercIAPrac Prime_9A Target_9N fdDLMJA eaEmJKF Congruent left correct Normal 2067.073
601 16 LeftLarger PercIAPrac Prime_9N Target_9A lmGEgdf kDbHJhf Congruent right error Normal 1841.393
601 17 LeftLarger PercIAExp1 Prime_4A Target_6A mKAkgFJ cLaBgGm Incongruent right correct Normal 1735.227
601 18 LeftLarger PercIAExp1 Prime_4N Target_4N LfmFaKe fkhBKIH Congruent left error Normal 1417.573
601 19 LeftLarger PercIAExp1 Prime_6A Target_9N Fmegifj aAifIlJ Congruent right error Normal 1017.248
601 20 LeftLarger PercIAExp1 Prime_4A Target_4A LcfCJal AalfgJm Congruent left error Normal 1169.268
601 21 LeftLarger PercIAExp1 Prime_9A Target_1N LkHaild mcDLFIB Incongruent right error Normal 1494.699
601 22 LeftLarger PercIAExp1 Prime_4A Target_1A iDFhIKc DLGbFeg Congruent left error Normal 1873.51
601 23 LeftLarger PercIAExp1 Prime_4N Target_6A cGChdlb iCgjBka Incongruent right correct Normal 1896.701
601 24 LeftLarger PercIAExp1 Prime_9N Target_9N BhmHCci Mdegmbh Congruent right error Normal 1980.193
601 25 LeftLarger PercIAExp1 Prime_1N Target_1N chbeCiD kidbjgf Congruent right correct Normal 2725.498
601 26 LeftLarger PercIAExp1 Prime_9N Target_4N KFfakBM IaDELBF Incongruent left correct Normal 1214.343
601 27 LeftLarger PercIAExp1 Prime_4N Target_4A AeBCikl bJMmBAK Congruent right correct Normal 1602.856
601 28 LeftLarger PercIAExp1 Prime_4N Target_1A liCegMD fiLaEFJ Congruent right correct Normal 1959.779
601 29 LeftLarger PercIAExp1 Prime_1A Target_9N mBAGbgK MJEjlcK Incongruent left error Normal 1620.554
601 30 LeftLarger PercIAExp1 Prime_4A Target_6N gJiIAhE AbafCGL Incongruent right correct Normal 1153.428
601 31 LeftLarger PercIAExp1 Prime_4N Target_6N IagGkLj DFJIlAb Incongruent right correct Normal 1811.632
601 32 LeftLarger PercIAExp1 Prime_1N Target_6N BEMHFCK IcjBdhi Incongruent right correct Normal 1599.623
601 33 LeftLarger PercIAExp1 Prime_1N Target_9N kihFfje KeaBhjE Incongruent left error Normal 2041.858
601 34 LeftLarger PercIAExp1 Prime_6N Target_6N eAHECcJ JImHkje Congruent right error Normal 2254.019
601 35 LeftLarger PercIAExp1 Prime_9N Target_6N dfCjHMc kcMEilB Congruent left correct Normal 1878.603
601 36 LeftLarger PercIAExp1 Prime_9A Target_6N LefhFDB LhGHAda Congruent right error Normal 494.5411
601 37 LeftLarger PercIAExp1 Prime_4A Target_4N ebJiagf iAJdajF Congruent left error Normal 710.9993
601 38 LeftLarger PercIAExp1 Prime_1A Target_4A iMjIlKB ILhMDkj Congruent right correct Normal 964.501
601 39 LeftLarger PercIAExp1 Prime_1N Target_1A DbAMeLi eKHAJjG Congruent left error Normal 688.0277
601 40 LeftLarger PercIAExp1 Prime_6A Target_6N fkAFKaL jBeIHfd Congruent right error Normal 1102.86
601 41 LeftLarger PercIAExp1 Prime_9N Target_1A GAgckIf hkcfECj Incongruent right error Normal 1539.397
601 42 LeftLarger PercIAExp1 Prime_4N Target_9A jDaimJh JHDhejA Incongruent right correct Normal 1725.622
601 43 LeftLarger PercIAExp1 Prime_1A Target_9A madCMJf jbMaAJe Incongruent right correct Normal 1719.281
601 44 LeftLarger PercIAExp1 Prime_9N Target_9A adlGbAf FeJkLda Congruent left correct Normal 1231.365
601 45 LeftLarger PercIAExp1 Prime_9N Target_1N AahHLIC ahCBfji Incongruent right error Normal 1060.931
601 46 LeftLarger PercIAExp1 Prime_9A Target_9A GFceEih ahbGJjl Congruent left correct Normal 1188.221
601 47 LeftLarger PercIAExp1 Prime_4A Target_1N LmJdCjG kLGDbdj Congruent right correct Normal 1881.525
601 48 LeftLarger PercIAExp1 Prime_1A Target_6N iBCGgmI faHhLkC Incongruent right correct Normal 1717.104
601 49 LeftLarger PercIAExp1 Prime_1N Target_9A eikhlMD gihLjFB Incongruent right correct Normal 1686.599
601 50 LeftLarger PercIAExp1 Prime_1A Target_1A JDecmkE jKlhHDd Congruent left error Normal 852.5862
601 51 LeftLarger PercIAExp1 Prime_9A Target_9N lMFgDij KibEIAf Congruent left correct Normal 1728.617
601 52 LeftLarger PercIAExp1 Prime_6N Target_6A JgCabkE dAFEiah Congruent right error Normal 958.0058
601 53 LeftLarger PercIAExp1 Prime_1N Target_6A GJEmcae lmJCDfF Incongruent left error Normal 1049.851
601 54 LeftLarger PercIAExp1 Prime_6A Target_1N eDBHbgI aJKieLh Incongruent right error Normal 2058.907
601 55 LeftLarger PercIAExp1 Prime_1N Target_4N JAGceai MFmJbHC Congruent left error Normal 3016.595
601 56 LeftLarger PercIAExp1 Prime_1A Target_6A kKEHCmA fBDhHaE Incongruent right correct Normal 1890.953
601 57 LeftLarger PercIAExp1 Prime_6N Target_9A iajFedE JDIhEgf Congruent left correct Normal 1849.683
601 58 LeftLarger PercIAExp1 Prime_9A Target_1A amhDMHK GiadLme Incongruent right error Normal 2335.712
601 59 LeftLarger PercIAExp1 Prime_6A Target_4N hEMkLbe CJKmgGk Incongruent left correct Normal 1297.407
601 60 LeftLarger PercIAExp1 Prime_9A Target_6A CLdJief kHMFlLj Congruent right error Normal 1565.711
601 61 LeftLarger PercIAExp1 Prime_9N Target_4A kiLBIJj IfjHKdM Incongruent left correct Normal 769.0381
601 62 LeftLarger PercIAExp1 Prime_6N Target_1N gefMFBD bhGdeFH Incongruent left correct Normal 1929.492
601 63 LeftLarger PercIAExp1 Prime_4A Target_9A dHkJAeh mIdfekK Incongruent right correct Normal 765.9655
601 64 LeftLarger PercIAExp1 Prime_6N Target_1A lkILhad ICiLDkl Incongruent left correct Normal 901.9266
601 65 LeftLarger PercIAExp1 Prime_4A Target_9N iImBKlH FKcjGBg Incongruent right correct Normal 891.4663
601 66 LeftLarger PercIAExp1 Prime_6N Target_4A blagBmE EDhkIKM Incongruent right error Normal 1245.274
601 67 LeftLarger PercIAExp1 Prime_4N Target_1N bgdkELc IhfEdHM Congruent left error Normal 1266.315
601 68 LeftLarger PercIAExp1 Prime_4N Target_9N IecGgfB CmkcGfM Incongruent right correct Normal 1574.079
601 69 LeftLarger PercIAExp1 Prime_6A Target_6A mjdehlK jMkbDFA Congruent right error Normal 1120.94
601 70 LeftLarger PercIAExp1 Prime_6A Target_9A eCDFjEL aghBKmc Congruent left correct Normal 895.2776
601 71 LeftLarger PercIAExp1 Prime_1N Target_4A JmdcEaB FChbHGI Congruent right correct Normal 651.3089
601 72 LeftLarger PercIAExp1 Prime_6N Target_9N ieFKkAj EbDBaIJ Congruent right error Normal 1441.856
601 73 LeftLarger PercIAExp1 Prime_1A Target_4N gjJHFde EBFGClk Congruent left error Normal 922.9108
601 74 LeftLarger PercIAExp1 Prime_9A Target_4N GbLJFac CKAiHlf Incongruent left correct Normal 1816.555
601 75 LeftLarger PercIAExp1 Prime_6A Target_4A gGAcjeJ lKbdBEH Incongruent left correct Normal 1729.02
601 76 LeftLarger PercIAExp1 Prime_1A Target_1N HhLlaJG jlHfkKa Congruent left error Normal 1383.904
601 77 LeftLarger PercIAExp1 Prime_6A Target_1A EfAJChj IaCcdDi Incongruent right error Normal 1176.871
601 78 LeftLarger PercIAExp1 Prime_9N Target_6A BHDeFLh JgACeLh Congruent left correct Normal 752.9538
601 79 LeftLarger PercIAExp1 Prime_9A Target_4A cJLIMlj kGKFbic Incongruent left correct Normal 958.0011
601 80 LeftLarger PercIAExp1 Prime_6N Target_4N eGhDMLA bklfLGH Incongruent left correct Normal 1137.054
601 81 LeftSmaller PercIBPrac Prime_6A Target_1A bEaFKgh MfGDJEI Incongruent right correct Normal 1794.5
601 82 LeftSmaller PercIBPrac Prime_9N Target_1A eICGBMA IFjgEiA Incongruent right correct Normal 1611.02
601 83 LeftSmaller PercIBPrac Prime_9A Target_4N jlFmcab aAKLCEj Incongruent left error Normal 1295.878
601 84 LeftSmaller PercIBPrac Prime_1N Target_4A EDGhlJe eDLKcdg Congruent right error Normal 1416.56
601 85 LeftSmaller PercIBPrac Prime_4A Target_4N bekcElh cglDIhk Congruent left correct Normal 1255.86
601 86 LeftSmaller PercIBPrac Prime_1N Target_1N JkIHcle icGBJaA Congruent left correct Normal 1928.786
601 87 LeftSmaller PercIBPrac Prime_9A Target_4A gFfIDjc bjmFMKD Incongruent right correct Normal 2219.55
601 88 LeftSmaller PercIBPrac Prime_4N Target_6A ehKmEHi mkeMJiK Incongruent left correct Normal 1588.489
601 89 LeftSmaller PercIBPrac Prime_4N Target_9A BCAaFhb mfCiKFj Incongruent right error Normal 2042.967
601 90 LeftSmaller PercIBPrac Prime_6A Target_6A GEJgLcf ifAeMLC Congruent right correct Normal 2107.793
601 91 LeftSmaller PercIBPrac Prime_6A Target_4N bIkiBJE LhADgBi Incongruent right correct Normal 1006.225
601 92 LeftSmaller PercIBPrac Prime_1A Target_6N chfEIJa ChflFBm Incongruent left correct Normal 1061.173
601 93 LeftSmaller PercIBPrac Prime_1A Target_4A FDfhmCe eidGfAC Congruent right error Normal 1662.67
601 94 LeftSmaller PercIBPrac Prime_4A Target_1N jbKDmBf JkdclHe Congruent left correct Normal 1236.434
601 95 LeftSmaller PercIBPrac Prime_6N Target_6A aFJmKiA DHlfiKG Congruent left error Normal 2009.525
601 96 LeftSmaller PercIBPrac Prime_1A Target_9A micbaDB HcjCEJe Incongruent left correct Normal 1756.923
601 97 LeftSmaller PercIBExp1 Prime_6N Target_9A ilkKdLH EcCKGiM Congruent left error Normal 966.5437
601 98 LeftSmaller PercIBExp1 Prime_9N Target_6A cJeHfMG mFGcKgA Congruent left error Normal 994.9286
601 99 LeftSmaller PercIBExp1 Prime_4A Target_1N acJkfHC kHchjbL Congruent left correct Normal 732.9861
601 100 LeftSmaller PercIBExp1 Prime_4A Target_1A IbGHfJh khjKbCd Congruent right error Normal 1302.797
601 101 LeftSmaller PercIBExp1 Prime_4N Target_1A cfBbalJ dalEKBi Congruent left correct Normal 919.6105
601 102 LeftSmaller PercIBExp1 Prime_6N Target_1N FeJIEAd AmEDblF Incongruent right correct Normal 931.1388
601 103 LeftSmaller PercIBExp1 Prime_1N Target_4N aMhcgFJ acHlikb Congruent left correct Normal 1160.071
601 104 LeftSmaller PercIBExp1 Prime_4N Target_9N IGDkFMb dCeMfmh Incongruent left correct Normal 1396.236
601 105 LeftSmaller PercIBExp1 Prime_1A Target_1A eKdgFDa BIclDME Congruent right error Normal 817.9673
601 106 LeftSmaller PercIBExp1 Prime_1A Target_6A DkbfLcd dEckGAa Incongruent left correct Normal 907.9756
601 107 LeftSmaller PercIBExp1 Prime_4A Target_6A AKHgfhC khCfecj Incongruent left correct Normal 734.7753
601 108 LeftSmaller PercIBExp1 Prime_4N Target_4A JIKbFGM cIEKGAd Congruent right error Normal 989.4064
601 109 LeftSmaller PercIBExp1 Prime_6A Target_4A gkaKEJB dLFafKM Incongruent left error Normal 697.2573
601 110 LeftSmaller PercIBExp1 Prime_4A Target_6N KeFBihl jCglMhc Incongruent left correct Normal 727.6498
601 111 LeftSmaller PercIBExp1 Prime_4A Target_4N cLGCgdk cHBGaei Congruent left correct Normal 1153.34
601 112 LeftSmaller PercIBExp1 Prime_9A Target_9N fejCIhg mAGebLa Congruent left error Normal 872.9709
601 113 LeftSmaller PercIBExp1 Prime_6N Target_4N JeEkFDK bmkBCMK Incongruent right correct Normal 1143.195
601 114 LeftSmaller PercIBExp1 Prime_9A Target_4N lHkLjBK JlCIcam Incongruent left error Normal 728.6213
601 115 LeftSmaller PercIBExp1 Prime_9N Target_1A eJbiDgE gClhAeI Incongruent right correct Normal 717.1233
601 116 LeftSmaller PercIBExp1 Prime_6A Target_1N aKDFEJL GbHhMIB Incongruent left error Normal 673.6954
601 117 LeftSmaller PercIBExp1 Prime_1N Target_6A EMkJmGC kAjEfHL Incongruent right error Normal 745.5004
601 118 LeftSmaller PercIBExp1 Prime_9A Target_1N BAEmhkl lCeaBdG Incongruent left error Normal 970.0258
601 119 LeftSmaller PercIBExp1 Prime_1A Target_4N fHIJmBj gMmjdcD Congruent right error Normal 1217.089
601 120 LeftSmaller PercIBExp1 Prime_9N Target_9N EGjKgcH GHfgBaL Congruent left error Normal 464.6567
601 121 LeftSmaller PercIBExp1 Prime_9A Target_9A fikGchI LFlbJCK Congruent right correct Normal 605.3915
601 122 LeftSmaller PercIBExp1 Prime_4N Target_9A bJBfjAK CfcabHB Incongruent left correct Normal 643.8647
601 123 LeftSmaller PercIBExp1 Prime_4N Target_6N GcgjbmK DjhJceL Incongruent right error Normal 644.2747
601 124 LeftSmaller PercIBExp1 Prime_9A Target_4A kKcfEMa iDIKmka Incongruent left error Normal 506.9031
601 125 LeftSmaller PercIBExp1 Prime_1N Target_9A MkcHlFI JFDGBlk Incongruent right error Normal 537.8638
601 126 LeftSmaller PercIBExp1 Prime_9N Target_9A jghDCca heCKEkm Congruent left error Normal 1557.21
601 127 LeftSmaller PercIBExp1 Prime_1N Target_1N ICcKkJL fMFAeaD Congruent right error Normal 1553.066
601 128 LeftSmaller PercIBExp1 Prime_4N Target_6A keGlEhf lcmDKhd Incongruent left correct Normal 587.1577
601 129 LeftSmaller PercIBExp1 Prime_4A Target_4A bFMmfIL JGbfhkI Congruent right error Normal 642.3238
601 130 LeftSmaller PercIBExp1 Prime_9N Target_1N bjlCdfi mhBJdIl Incongruent right correct Normal 1161.223
601 131 LeftSmaller PercIBExp1 Prime_6A Target_9N KlJfdij FBAhHEd Congruent left error Normal 696.3712
601 132 LeftSmaller PercIBExp1 Prime_6A Target_9A dDCfkKj iCIkKBJ Congruent left error Normal 555.9698
601 133 LeftSmaller PercIBExp1 Prime_9A Target_6A HjhebMF gjFlMAC Congruent left error Normal 666.6755
601 134 LeftSmaller PercIBExp1 Prime_1N Target_1A ciBDLjk baCKHme Congruent right error Normal 1509.718
601 135 LeftSmaller PercIBExp1 Prime_1A Target_9N jECfcDg MkBFjDg Incongruent left correct Normal 611.9166
601 136 LeftSmaller PercIBExp1 Prime_1A Target_1N FJhGCEB JBIAleM Congruent right error Normal 814.6537
601 137 LeftSmaller PercIBExp1 Prime_4A Target_9N GBlfHjk ACjmhEB Incongruent left correct Normal 649.5777
601 138 LeftSmaller PercIBExp1 Prime_1A Target_9A aIjCMdE clLEhBm Incongruent left correct Normal 869.6594
601 139 LeftSmaller PercIBExp1 Prime_1N Target_9N mAjBHlf lBbghij Incongruent left correct Normal 1138.15
601 140 LeftSmaller PercIBExp1 Prime_6A Target_6A IkBjchE JMLkAHE Congruent left error Normal 764.0446
601 141 LeftSmaller PercIBExp1 Prime_6N Target_6N eCjBFmi kDaAbfc Congruent left error Normal 904.6449
601 142 LeftSmaller PercIBExp1 Prime_6N Target_1A cBAaIij cglmFeJ Incongruent right correct Normal 627.0635
601 143 LeftSmaller PercIBExp1 Prime_1A Target_4A GiBJLgc HDJGemA Congruent left correct Normal 564.5586
601 144 LeftSmaller PercIBExp1 Prime_4N Target_4N gGiDMak MfLkCaF Congruent right error Normal 824.521
601 145 LeftSmaller PercIBExp1 Prime_6A Target_6N MegGJHL cAeJDHk Congruent left error Normal 2295.307
601 146 LeftSmaller PercIBExp1 Prime_6A Target_1A mIGgMkj ilmBKcG Incongruent right correct Normal 2487.86
601 147 LeftSmaller PercIBExp1 Prime_6N Target_6A KlGbmaF DAKMGIg Congruent left error Normal 949.5519
601 148 LeftSmaller PercIBExp1 Prime_9A Target_6N LBJflMD aIKjleG Congruent left error Normal 1345.839
601 149 LeftSmaller PercIBExp1 Prime_9N Target_4N EHFgGLK kfIBMEh Incongruent left error Normal 734.916
601 150 LeftSmaller PercIBExp1 Prime_6N Target_9N hHGdLlJ KLgkjlb Congruent left error Normal 1651.328
601 151 LeftSmaller PercIBExp1 Prime_4A Target_9A iJALHmf BmMejdh Incongruent left correct Normal 685.8132
601 152 LeftSmaller PercIBExp1 Prime_9A Target_1A AJKEfGj IhbgkDl Incongruent right correct Normal 612.7049
601 153 LeftSmaller PercIBExp1 Prime_4N Target_1N gBDfcEC eBakcHm Congruent right error Normal 1179.736
601 154 LeftSmaller PercIBExp1 Prime_1N Target_4A JIijLaH gbGdAil Congruent left correct Normal 818.173
601 155 LeftSmaller PercIBExp1 Prime_1N Target_6N AmMecfk iEjkBMH Incongruent right error Normal 978.6257
601 156 LeftSmaller PercIBExp1 Prime_9N Target_6N AjfIkGl IAFihgc Congruent left error Normal 790.1854
601 157 LeftSmaller PercIBExp1 Prime_1A Target_6N KhLADEe cHKiekD Incongruent right error Normal 980.4684
601 158 LeftSmaller PercIBExp1 Prime_9N Target_4A dHblDfc AJaIEBF Incongruent left error Normal 1278.828
601 159 LeftSmaller PercIBExp1 Prime_6N Target_4A mdAiaJg JDFliMB Incongruent left error Normal 1274.705
601 160 LeftSmaller PercIBExp1 Prime_6A Target_4N BHfMCAK MEADcfj Incongruent right correct Normal 1271.878
602 1 LeftLarger PercIAPrac Prime_1A Target_1N aejIhbd BHelibJ Congruent left error Normal 770.1785
602 2 LeftLarger PercIAPrac Prime_9A Target_4A cjdJEIe lmajMCe Incongruent left correct Normal 331.4817
602 3 LeftLarger PercIAPrac Prime_1A Target_6A BlcIfkj EcCjMlG Incongruent right correct Normal 765.2794
602 4 LeftLarger PercIAPrac Prime_4A Target_1A JKiFkDa cjldBGK Congruent left error Normal 451.3114
602 5 LeftLarger PercIAPrac Prime_1N Target_1N fgMEGkH JEKMafl Congruent right correct Normal 1110.081
602 6 LeftLarger PercIAPrac Prime_9A Target_1A ijFdgMb KCEHGkb Incongruent left correct Normal 557.5518
602 7 LeftLarger PercIAPrac Prime_9N Target_1A AFbCjkc cmHfCGh Incongruent left correct Normal 851.441
602 8 LeftLarger PercIAPrac Prime_4A Target_4N egIcEGB ckhlCHF Congruent right correct Normal 700.9818
602 9 LeftLarger PercIAPrac Prime_9N Target_6N dfKhLej KBhilkD Congruent left correct Normal 390.6386
602 10 LeftLarger PercIAPrac Prime_6N Target_6N CidIeGl dlLEAiC Congruent right error Normal 1927.683
602 11 LeftLarger PercIAPrac Prime_6A Target_6N MmeDgBA CKhJiGa Congruent left correct Normal 876.6458
602 12 LeftLarger PercIAPrac Prime_6N Target_4N LBKkIgC lfAIijE Incongruent left correct Normal 1280.682
602 13 LeftLarger PercIAPrac Prime_9A Target_4N dHkMmhf biedGaL Incongruent left correct Normal 822.7258
602 14 LeftLarger PercIAPrac Prime_1A Target_9A AkmjEMa CMfBcFd Incongruent right correct Normal 1144.534
602 15 LeftLarger PercIAPrac Prime_4N Target_4A BhHAeDa eJjGhBf Congruent left error Normal 451.0509
602 16 LeftLarger PercIAPrac Prime_9N Target_4N JDkdBFc aiFdejb Incongruent left correct Normal 826.2753
602 17 LeftLarger PercIAExp1 Prime_6N Target_6N AbBhEic bcCgemD Congruent right error Normal 950.2429
602 18 LeftLarger PercIAExp1 Prime_6A Target_9A cekjDKa hLCDFGb Congruent left correct Normal 347.8078
602 19 LeftLarger PercIAExp1 Prime_1A Target_6A mlAfFaL gcBhLHD Incongruent right correct Normal 835.4652
602 20 LeftLarger PercIAExp1 Prime_6A Target_4A aAcKkfg kLDaEhK Incongruent left correct Normal 423.9928
602 21 LeftLarger PercIAExp1 Prime_6N Target_6A BkChmAi aBJGbiD Congruent right error Normal 940.1589
602 22 LeftLarger PercIAExp1 Prime_1A Target_9N aGhemfb GLfAIeM Incongruent left error Normal 434.2136
602 23 LeftLarger PercIAExp1 Prime_4N Target_1N ADcdfIb AafJHEL Congruent left error Normal 766.8601
602 24 LeftLarger PercIAExp1 Prime_1N Target_1A MhJCkge GKDkchd Congruent left error Normal 1298.663
602 25 LeftLarger PercIAExp1 Prime_9N Target_4N jCAIJGd FHgfhLE Incongruent left correct Normal 1450.847
602 26 LeftLarger PercIAExp1 Prime_9A Target_1N hDjadAM bgDJkHf Incongruent left correct Normal 991.3065
602 27 LeftLarger PercIAExp1 Prime_9A Target_6A IiEBHAh mBCiHkc Congruent right error Normal 1222.313
602 28 LeftLarger PercIAExp1 Prime_6A Target_6N lbKBHFL jFHJIEh Congruent right error Normal 1679.584
602 29 LeftLarger PercIAExp1 Prime_4A Target_6A LgEFckB jEBmKhL Incongruent right correct Normal 1110.142
602 30 LeftLarger PercIAExp1 Prime_1N Target_1N IDACFLE DbkhigB Congruent left error Normal 835.3505
602 31 LeftLarger PercIAExp1 Prime_6A Target_4N AkBKMjL EAgcCeI Incongruent left correct Normal 1192.64
602 32 LeftLarger PercIAExp1 Prime_4N Target_1A LEbeaKG HkihDel Congruent right correct Normal 1617.337
602 33 LeftLarger PercIAExp1 Prime_4A Target_4N gGlLADC cJhELAd Congruent left error Normal 1121.53
602 34 LeftLarger PercIAExp1 Prime_4N Target_4N agiHjDK MiHdeBc Congruent left error Normal 1692.425
602 35 LeftLarger PercIAExp1 Prime_1A Target_1A IedHmaC mFagfeJ Congruent left error Normal 889.4343
602 36 LeftLarger PercIAExp1 Prime_9A Target_6N fBhjEil KHeMEbA Congruent right error Normal 1349.497
602 37 LeftLarger PercIAExp1 Prime_9N Target_6N AdiFhJM MhdGEai Congruent right error Normal 1658.616
602 38 LeftLarger PercIAExp1 Prime_6N Target_1A bdlKEGh hBFlJjm Incongruent left correct Normal 842.6898
602 39 LeftLarger PercIAExp1 Prime_1A Target_9A bCDFaKM MbeaBHh Incongruent right correct Normal 1117.742
602 40 LeftLarger PercIAExp1 Prime_1A Target_4A JEgKiLe GHFmBlI Congruent right correct Normal 2288.143
602 41 LeftLarger PercIAExp1 Prime_1N Target_6A CaLeMGK mChefiF Incongruent left error Normal 1132.844
602 42 LeftLarger PercIAExp1 Prime_4A Target_1A amiDFCe DekKMba Congruent right correct Normal 830.9199
602 43 LeftLarger PercIAExp1 Prime_1A Target_4N GcHegjK jHafCGF Congruent left error Normal 999.9591
602 44 LeftLarger PercIAExp1 Prime_1N Target_9A fCjiceJ gchJLIm Incongruent left error Normal 1302.628
602 45 LeftLarger PercIAExp1 Prime_1A Target_1N GakHcIi gJaBDdI Congruent left error Normal 1298.049
602 46 LeftLarger PercIAExp1 Prime_6A Target_9N bmfBhMD MjeILkD Congruent left correct Normal 971.3581
602 47 LeftLarger PercIAExp1 Prime_9N Target_9N jaKCcJi jAiGdhf Congruent right error Normal 1040.277
602 48 LeftLarger PercIAExp1 Prime_6N Target_4N LdifFcC edDGCMh Incongruent left correct Normal 1186.83
602 49 LeftLarger PercIAExp1 Prime_9A Target_9N LaBDfFM LMEAahi Congruent right error Normal 2804.364
602 50 LeftLarger PercIAExp1 Prime_6A Target_1N fbcGlAK bJdEhGk Incongruent left correct Normal 921.9037
602 51 LeftLarger PercIAExp1 Prime_4N Target_4A mhiCkbL FgkCEAI Congruent right correct Normal 1468.201
602 52 LeftLarger PercIAExp1 Prime_4A Target_6N HBEgciC hEkbDFe Incongruent left error Normal 911.4003
602 53 LeftLarger PercIAExp1 Prime_6N Target_9A mIGbClA bmAaKJf Congruent left correct Normal 1054.366
602 54 LeftLarger PercIAExp1 Prime_1N Target_9N JeDECcb KIhLgfj Incongruent right correct Normal 1604.532
602 55 LeftLarger PercIAExp1 Prime_6N Target_1N EJGBIFD FcmDLCE Incongruent left correct Normal 1016.014
602 56 LeftLarger PercIAExp1 Prime_6N Target_4A KkMiAJG AIhkefK Incongruent left correct Normal 1296.778
602 57 LeftLarger PercIAExp1 Prime_4N Target_9N GmLcCie mlAefFc Incongruent right correct Normal 1873.676
602 58 LeftLarger PercIAExp1 Prime_4N Target_9A aijMdfl DlLCEgc Incongruent right correct Normal 737.0185
602 59 LeftLarger PercIAExp1 Prime_9A Target_4N EbMKjge IhfMDdl Incongruent left correct Normal 1022.17
602 60 LeftLarger PercIAExp1 Prime_9N Target_1A ecLHFGb clHJKCh Incongruent left correct Normal 1137.366
602 61 LeftLarger PercIAExp1 Prime_1A Target_6N ALCHdib iHehgFl Incongruent right correct Normal 1290.66
602 62 LeftLarger PercIAExp1 Prime_9A Target_4A MJGDiKj jdMkBhJ Incongruent left correct Normal 2442.469
602 63 LeftLarger PercIAExp1 Prime_4N Target_6N IebljJK DaCecgA Incongruent right correct Normal 1179.657
602 64 LeftLarger PercIAExp1 Prime_4N Target_6A AIbHBme MEBgAFe Incongruent right correct Normal 1853.719
602 65 LeftLarger PercIAExp1 Prime_4A Target_9N DHIcjkd AFfdheK Incongruent left error Normal 1720.784
602 66 LeftLarger PercIAExp1 Prime_6A Target_6A kBIKGAe cmLFdIB Congruent left correct Normal 2300.714
602 67 LeftLarger PercIAExp1 Prime_4A Target_9A iJjchFf lkBmhGA Incongruent left error Normal 1494.665
602 68 LeftLarger PercIAExp1 Prime_1N Target_4N kGcKDEb hkjKelg Congruent left error Normal 1479.195
602 69 LeftLarger PercIAExp1 Prime_1N Target_4A BHmeDLG DkIiljK Congruent right correct Normal 662.627
602 70 LeftLarger PercIAExp1 Prime_9N Target_6A CjeIFgJ cMIJbde Congruent right error Normal 2456.435
602 71 LeftLarger PercIAExp1 Prime_4A Target_4A CGIBLfM IkhDHGm Congruent right correct Normal 1886.133
602 72 LeftLarger PercIAExp1 Prime_1N Target_6N iahjcEC KgbjMEA Incongruent left error Normal 2105.103
602 73 LeftLarger PercIAExp1 Prime_9A Target_9A kKbGgLd mafLcDF Congruent right error Normal 1905.285
602 74 LeftLarger PercIAExp1 Prime_6A Target_1A EeGLjJl jeaABIm Incongruent left correct Normal 1332.915
602 75 LeftLarger PercIAExp1 Prime_9N Target_1N HBDkMeE DHdgjGe Incongruent left correct Normal 2902.09
602 76 LeftLarger PercIAExp1 Prime_9N Target_9A lJGCBMI GcMmfBK Congruent right error Normal 1483
602 77 LeftLarger PercIAExp1 Prime_4A Target_1N KedBLCb EHDKmAC Congruent left error Normal 1593.714
602 78 LeftLarger PercIAExp1 Prime_9N Target_4A FGAMBag lCIeEHD Incongruent left correct Normal 1755.363
602 79 LeftLarger PercIAExp1 Prime_9A Target_1A CcMBmAH BChFKda Incongruent left correct Normal 1099.644
602 80 LeftLarger PercIAExp1 Prime_6N Target_9N EdalbAe DbJefjL Congruent right error Normal 906.3287
602 81 LeftSmaller PercIBPrac Prime_6N Target_4N EhgbFji HFKiMBh Incongruent right correct Normal 1276.266
602 82 LeftSmaller PercIBPrac Prime_9N Target_4A EIBbChH JfIaDGj Incongruent right correct Normal 2647.317
602 83 LeftSmaller PercIBPrac Prime_1N Target_4A liILjmF GdJmFiD Congruent left correct Normal 1742.143
602 84 LeftSmaller PercIBPrac Prime_9A Target_1N dJkHIjG aifcBkF Incongruent right correct Normal 690.4966
602 85 LeftSmaller PercIBPrac Prime_9N Target_9A MdkIJlC jIdicEJ Congruent left error Normal 1678.233
602 86 LeftSmaller PercIBPrac Prime_1A Target_6A CjbMIHi EgdcLAb Incongruent right error Normal 1025.515
602 87 LeftSmaller PercIBPrac Prime_1N Target_6A jgbilGL GJAlKem Incongruent left correct Normal 1163.372
602 88 LeftSmaller PercIBPrac Prime_4A Target_9N eFGCcMH kgjacKM Incongruent right error Normal 1149.664
602 89 LeftSmaller PercIBPrac Prime_4N Target_4A idCBLKF aJCDjIg Congruent right error Normal 2157.723
602 90 LeftSmaller PercIBPrac Prime_6A Target_1A IejmMbg bfDeGlF Incongruent right correct Normal 1430.034
602 91 LeftSmaller PercIBPrac Prime_4N Target_1N KlADFCa IMGFiek Congruent left correct Normal 1766.498
602 92 LeftSmaller PercIBPrac Prime_1A Target_4A bCdMAak mLfJFeh Congruent left correct Normal 2644.538
602 93 LeftSmaller PercIBPrac Prime_1N Target_1A HKDhJbC CgGkeEj Congruent right error Normal 838.1396
602 94 LeftSmaller PercIBPrac Prime_1A Target_9N KIdAcJg AJIljHK Incongruent left correct Normal 1139.165
602 95 LeftSmaller PercIBPrac Prime_4A Target_6N CHfkjLh lkGCKHJ Incongruent left correct Normal 1056.973
602 96 LeftSmaller PercIBPrac Prime_4A Target_4A jLlfDFm GgEFAkK Congruent right error Normal 1110.643
602 97 LeftSmaller PercIBExp1 Prime_4A Target_1N CDGjlcb cHGBFDe Congruent right error Normal 1284.864
602 98 LeftSmaller PercIBExp1 Prime_1N Target_6A HjLDmIh AaFdHhl Incongruent left correct Normal 1037.693
602 99 LeftSmaller PercIBExp1 Prime_9N Target_9A lBeLFgb AkLIEcF Congruent right correct Normal 898.9856
602 100 LeftSmaller PercIBExp1 Prime_9A Target_9A jmlFfda MGdkKDc Congruent right correct Normal 761.035
602 101 LeftSmaller PercIBExp1 Prime_9A Target_1N LfmAbHM HaAchjd Incongruent right correct Normal 1355.786
602 102 LeftSmaller PercIBExp1 Prime_9N Target_1N CBJHbEi JMfhkeB Incongruent right correct Normal 812.1129
602 103 LeftSmaller PercIBExp1 Prime_1N Target_9A jJeHBFC JaHiKLf Incongruent left correct Normal 1039.67
602 104 LeftSmaller PercIBExp1 Prime_6N Target_4A ABgjeaJ hLDHmBI Incongruent right correct Normal 779.8848
602 105 LeftSmaller PercIBExp1 Prime_9A Target_6N FfAGMEc BcmEeDd Congruent left error Normal 1251.598
602 106 LeftSmaller PercIBExp1 Prime_6A Target_1N gLeEbBa emblFJa Incongruent right correct Normal 755.2286
602 107 LeftSmaller PercIBExp1 Prime_9N Target_4A IkmhBJE AGEbBhJ Incongruent right correct Normal 591.9674
602 108 LeftSmaller PercIBExp1 Prime_1A Target_9N fILcDbj aIkGKjg Incongruent left correct Normal 1170.415
602 109 LeftSmaller PercIBExp1 Prime_9N Target_6N aDfemIB eLaIcMA Congruent right correct Normal 1248.936
602 110 LeftSmaller PercIBExp1 Prime_6A Target_1A eciBEgA kcAiEGf Incongruent right correct Normal 1611.027
602 111 LeftSmaller PercIBExp1 Prime_9N Target_9N GkbMCdE DblJcEh Congruent left error Normal 623.3405
602 112 LeftSmaller PercIBExp1 Prime_6N Target_4N bJljKBG FMfmiGD Incongruent right correct Normal 1424.586
602 113 LeftSmaller PercIBExp1 Prime_6N Target_1N jiFCmIg fJIgKbL Incongruent right correct Normal 1200.808
602 114 LeftSmaller PercIBExp1 Prime_4A Target_9A dAbjDGL MKJAbEi Incongruent left correct Normal 1537.138
602 115 LeftSmaller PercIBExp1 Prime_6A Target_9A KcLgmed FLbImaf Congruent right correct Normal 964.8134
602 116 LeftSmaller PercIBExp1 Prime_4N Target_4N mBEKjHd CAifFEB Congruent right error Normal 991.5969
602 117 LeftSmaller PercIBExp1 Prime_6N Target_1A HLhKkei hcblIfC Incongruent right correct Normal 1184.646
602 118 LeftSmaller PercIBExp1 Prime_9N Target_1A jDmKeka GagAdmL Incongruent right correct Normal 1733.711
602 119 LeftSmaller PercIBExp1 Prime_1A Target_4A dcABHei fFbcGBi Congruent left correct Normal 626.3945
602 120 LeftSmaller PercIBExp1 Prime_4A Target_9N ChELbeI HLhICak Incongruent left correct Normal 3063.411
602 121 LeftSmaller PercIBExp1 Prime_4N Target_1A JBEcMea LEBlkmC Congruent left correct Normal 1141.225
602 122 LeftSmaller PercIBExp1 Prime_4N Target_1N HbdMceL HBGJjiK Congruent right error Normal 969.4413
602 123 LeftSmaller PercIBExp1 Prime_6N Target_6N femdgIi MbflAei Congruent left error Normal 1169.369
602 124 LeftSmaller PercIBExp1 Prime_4N Target_4A GhmgKad GbCFejc Congruent right error Normal 1296.419
602 125 LeftSmaller PercIBExp1 Prime_1A Target_1A BFhCfMe MmhBCKc Congruent right error Normal 1052.084
602 126 LeftSmaller PercIBExp1 Prime_1A Target_1N HGEeFlK ckLglie Congruent right error Normal 1344.653
602 127 LeftSmaller PercIBExp1 Prime_1A Target_9A bMIjgeD DbkicHd Incongruent left correct Normal 778.8482
602 128 LeftSmaller PercIBExp1 Prime_4A Target_4N BEfFcHk jLDiKkC Congruent right error Normal 1131.638
602 129 LeftSmaller PercIBExp1 Prime_4N Target_9A lbfcgdJ KCDkBjc Incongruent left correct Normal 728.2816
602 130 LeftSmaller PercIBExp1 Prime_1A Target_6N Mkhlfdi GadHfkj Incongruent left correct Normal 2624.591
602 131 LeftSmaller PercIBExp1 Prime_4A Target_6N mkBLAEG LCeFmld Incongruent right error Normal 1996.287
602 132 LeftSmaller PercIBExp1 Prime_1N Target_4A aImdCEi FBLciJH Congruent right error Normal 1368.51
602 133 LeftSmaller PercIBExp1 Prime_4N Target_9N fgDGJjM jBiIGdA Incongruent left correct Normal 1566.548
602 134 LeftSmaller PercIBExp1 Prime_9A Target_9N daFgHIk GHaheCB Congruent left error Normal 2400.333
602 135 LeftSmaller PercIBExp1 Prime_4N Target_6A jBGcAfC fdKeEiD Incongruent left correct Normal 1120.594
602 136 LeftSmaller PercIBExp1 Prime_9N Target_4N JBgACKF FCELAKI Incongruent right correct Normal 1378.366
602 137 LeftSmaller PercIBExp1 Prime_1N Target_1N GhaAEek flAceLi Congruent right error Normal 1789.792
602 138 LeftSmaller PercIBExp1 Prime_6A Target_6N LHekjcF FlfiMjh Congruent left error Normal 2015.469
602 139 LeftSmaller PercIBExp1 Prime_4A Target_6A JcKIeBk DfEcKFb Incongruent left correct Normal 926.1571
602 140 LeftSmaller PercIBExp1 Prime_6N Target_9A lmGkdAK LjFiHhg Congruent right correct Normal 894.8184
602 141 LeftSmaller PercIBExp1 Prime_9A Target_4N lMcbJfi jlmbLBd Incongruent left error Normal 1024.262
602 142 LeftSmaller PercIBExp1 Prime_4A Target_1A cDiKfCh JmAKfcj Congruent left correct Normal 1154.815
602 143 LeftSmaller PercIBExp1 Prime_1N Target_6N BACiFal KbCHIME Incongruent right error Normal 2013.444
602 144 LeftSmaller PercIBExp1 Prime_1N Target_1A AJfBaFm GKFAMBe Congruent right error Normal 1077.785
602 145 LeftSmaller PercIBExp1 Prime_9A Target_1A gGKHjbc lLeAdKC Incongruent right correct Normal 1688.941
602 146 LeftSmaller PercIBExp1 Prime_4N Target_6N GIMHFgi eEjmAhC Incongruent left correct Normal 1157.434
602 147 LeftSmaller PercIBExp1 Prime_1A Target_6A gDmGJIb kCEFImf Incongruent left correct Normal 2204.714
602 148 LeftSmaller PercIBExp1 Prime_9A Target_4A kLHmKFc GFLimja Incongruent right correct Normal 998.4268
602 149 LeftSmaller PercIBExp1 Prime_1A Target_4N lhcMFAm jghfBHc Congruent right error Normal 1132.463
602 150 LeftSmaller PercIBExp1 Prime_6A Target_4A LadcfmD KcdbaeA Incongruent right correct Normal 1149.895
602 151 LeftSmaller PercIBExp1 Prime_9A Target_6A MCJAgdG kgCGiDh Congruent left error Normal 1715.7
602 152 LeftSmaller PercIBExp1 Prime_1N Target_9N fbeKgGD cdiDgkL Incongruent left correct Normal 1366.89
602 153 LeftSmaller PercIBExp1 Prime_4A Target_4A fkjHAmL mGCkDfa Congruent right error Normal 1372.774
602 154 LeftSmaller PercIBExp1 Prime_6N Target_9N AFBmMDH fLImkdl Congruent left error Normal 2145.357
602 155 LeftSmaller PercIBExp1 Prime_6A Target_4N lJHdEmL mEjDFiJ Incongruent right correct Normal 1040.292
602 156 LeftSmaller PercIBExp1 Prime_9N Target_6A MbamjHG AbafFGK Congruent right correct Normal 1931.989
602 157 LeftSmaller PercIBExp1 Prime_6A Target_9N EGKkced jlfLDkb Congruent left error Normal 1216.299
602 158 LeftSmaller PercIBExp1 Prime_6A Target_6A KCBFEjd JKdcCmE Congruent right correct Normal 966.4878
602 159 LeftSmaller PercIBExp1 Prime_6N Target_6A Jikcgfb KgcBIbl Congruent right correct Normal 1972.668
602 160 LeftSmaller PercIBExp1 Prime_1N Target_4N BLDdGJj AmDGbcH Congruent left correct Normal 870.0897
603 1 LeftSmaller PercIAPrac Prime_9A Target_4N gcbIfMD MfadLkH Incongruent right correct Normal 606.575
603 2 LeftSmaller PercIAPrac Prime_9A Target_6A MKDEdfc bFLEJjf Congruent right correct Normal 368.7283
603 3 LeftSmaller PercIAPrac Prime_6N Target_6N eFDMjcE bMFIjLm Congruent right correct Normal 572.8902
603 4 LeftSmaller PercIAPrac Prime_9N Target_4N FaHkIJA mjcIlME Incongruent left error Normal 518.6844
603 5 LeftSmaller PercIAPrac Prime_4A Target_6A MLHJBdK fkhjedb Incongruent left correct Normal 881.9548
603 6 LeftSmaller PercIAPrac Prime_6A Target_6A clMJeAm KjGIciL Congruent right correct Normal 930.7746
603 7 LeftSmaller PercIAPrac Prime_4A Target_4A GifJDld fcMJiga Congruent right error Normal 636.8074
603 8 LeftSmaller PercIAPrac Prime_6N Target_9N CFMeikL FkhDaKg Congruent right correct Normal 914.4923
603 9 LeftSmaller PercIAPrac Prime_9A Target_6N GBIlfci GJELCAe Congruent right correct Normal 679.0315
603 10 LeftSmaller PercIAPrac Prime_4N Target_4A HLDfKhJ BFcIljf Congruent right error Normal 797.3273
603 11 LeftSmaller PercIAPrac Prime_4N Target_9N ehiEJGF hDKgeGI Incongruent left correct Normal 524.7175
603 12 LeftSmaller PercIAPrac Prime_6N Target_4N lemfJAK jfemdEb Incongruent right correct Normal 436.1464
603 13 LeftSmaller PercIAPrac Prime_4N Target_1N fBLAEdF MBKidlI Congruent left correct Normal 576.264
603 14 LeftSmaller PercIAPrac Prime_1A Target_6A kaAIhMc BmMlgIH Incongruent right error Normal 796.447
603 15 LeftSmaller PercIAPrac Prime_6A Target_1A FKeBlIA EdMJbGL Incongruent right correct Normal 448.1685
603 16 LeftSmaller PercIAPrac Prime_1A Target_1N KkJICgi keELCFG Congruent left correct Normal 489.4577
603 17 LeftSmaller PercIAExp1 Prime_6N Target_6A hAIbclj HakhiJK Congruent right correct Normal 463.0495
603 18 LeftSmaller PercIAExp1 Prime_1N Target_9N kdFCeEj CJfcKAe Incongruent left correct Normal 889.675
603 19 LeftSmaller PercIAExp1 Prime_1A Target_4N mKLcfiM gkeiBdL Congruent right error Normal 522.2711
603 20 LeftSmaller PercIAExp1 Prime_9N Target_9A ehlgdjm MjFKAGa Congruent right correct Normal 530.3056
603 21 LeftSmaller PercIAExp1 Prime_6A Target_4A emIMcfg gHCdFkf Incongruent left error Normal 743.711
603 22 LeftSmaller PercIAExp1 Prime_6N Target_9A CgldjGA JHBCdLc Congruent right correct Normal 668.2199
603 23 LeftSmaller PercIAExp1 Prime_4N Target_9A cIlLgDH GciaLHI Incongruent left correct Normal 556.1744
603 24 LeftSmaller PercIAExp1 Prime_4N Target_1N mACagGh DdfjkKJ Congruent right error Normal 818.4524
603 25 LeftSmaller PercIAExp1 Prime_9N Target_9N eHECLFM ameGFBg Congruent right correct Normal 529.6542
603 26 LeftSmaller PercIAExp1 Prime_9A Target_9A lcBGdDf KGjJihA Congruent left error Normal 669.6199
603 27 LeftSmaller PercIAExp1 Prime_6A Target_6N dJBkEah KGgdjfc Congruent right correct Normal 438.7644
603 28 LeftSmaller PercIAExp1 Prime_6N Target_4A EiKadlM MeFcGdE Incongruent left error Normal 501.3619
603 29 LeftSmaller PercIAExp1 Prime_1N Target_9A DmbjiFl LjfECDc Incongruent right error Normal 566.3558
603 30 LeftSmaller PercIAExp1 Prime_9N Target_4N BFMDLkE DdKLaiB Incongruent left error Normal 723.9742
603 31 LeftSmaller PercIAExp1 Prime_4A Target_9A iDJgFcj jGHLide Incongruent right error Normal 791.691
603 32 LeftSmaller PercIAExp1 Prime_4A Target_9N KGiBljk MCLiGKl Incongruent left correct Normal 879.4304
603 33 LeftSmaller PercIAExp1 Prime_4N Target_1A ekcKadF jIiDaBJ Congruent left correct Normal 751.8417
603 34 LeftSmaller PercIAExp1 Prime_4A Target_6N EHFbmjk fbKDBlk Incongruent left correct Normal 844.8969
603 35 LeftSmaller PercIAExp1 Prime_1A Target_9A ileAHkC GfBCJjL Incongruent right error Normal 688.9251
603 36 LeftSmaller PercIAExp1 Prime_1A Target_1N fGicHIA IcHfgdJ Congruent right error Normal 1108.952
603 37 LeftSmaller PercIAExp1 Prime_6A Target_6A DFEMfag bmjglHf Congruent right correct Normal 821.5537
603 38 LeftSmaller PercIAExp1 Prime_6A Target_1A bBjgaAH FfhDAcl Incongruent right correct Normal 700.1931
603 39 LeftSmaller PercIAExp1 Prime_9A Target_4N EBHdKkD GhJdEbD Incongruent left error Normal 544.7516
603 40 LeftSmaller PercIAExp1 Prime_1A Target_4A gcaCEHF JgdHBbc Congruent right error Normal 565.6466
603 41 LeftSmaller PercIAExp1 Prime_6N Target_9N jJbgKkc jDFGdbK Congruent right correct Normal 547.975
603 42 LeftSmaller PercIAExp1 Prime_4N Target_6N fGlgiLE gEakmfi Incongruent left correct Normal 538.6147
603 43 LeftSmaller PercIAExp1 Prime_4N Target_6A KliDJCa aJDEdbK Incongruent right error Normal 547.4048
603 44 LeftSmaller PercIAExp1 Prime_6N Target_4N DCMdKIH CkKbgem Incongruent right correct Normal 555.7244
603 45 LeftSmaller PercIAExp1 Prime_1N Target_1A MFgIAmD DfbjAhE Congruent left correct Normal 560.6043
603 46 LeftSmaller PercIAExp1 Prime_4A Target_1A gKEMLmh MdiKFae Congruent left correct Normal 677.4908
603 47 LeftSmaller PercIAExp1 Prime_4N Target_9N KMIejal fhBKlmA Incongruent right error Normal 410.9642
603 48 LeftSmaller PercIAExp1 Prime_9N Target_4A icEGLMf lmigGCf Incongruent right correct Normal 457.2743
603 49 LeftSmaller PercIAExp1 Prime_9A Target_4A iIbMgkh klIJjDL Incongruent left error Normal 625.9869
603 50 LeftSmaller PercIAExp1 Prime_6N Target_1A fcgmiDM JLMkEBd Incongruent right correct Normal 456.4337
603 51 LeftSmaller PercIAExp1 Prime_4A Target_4N bMdfHFm fbHcFda Congruent left correct Normal 514.3014
603 52 LeftSmaller PercIAExp1 Prime_4A Target_6A BdAEHfj FcigIDL Incongruent right error Normal 537.1563
603 53 LeftSmaller PercIAExp1 Prime_9A Target_6A JFfjgEM DhGAgFf Congruent right correct Normal 547.7688
603 54 LeftSmaller PercIAExp1 Prime_1A Target_6N HIcdkaB fJdMiHh Incongruent left correct Normal 1230.745
603 55 LeftSmaller PercIAExp1 Prime_9A Target_6N gLBejaJ GmbjLCF Congruent right correct Normal 644.1468
603 56 LeftSmaller PercIAExp1 Prime_4N Target_4N aDbGcig HfkbiKG Congruent right error Normal 701.8617
603 57 LeftSmaller PercIAExp1 Prime_6A Target_1N DhfCGEF GLbeAch Incongruent right correct Normal 455.4912
603 58 LeftSmaller PercIAExp1 Prime_1N Target_6N laBGMCj leJmcAb Incongruent right error Normal 723.6046
603 59 LeftSmaller PercIAExp1 Prime_9A Target_1A cDhialK FMglJed Incongruent right correct Normal 767.8979
603 60 LeftSmaller PercIAExp1 Prime_1N Target_1N CcGDKFI BDiHljF Congruent left correct Normal 492.5111
603 61 LeftSmaller PercIAExp1 Prime_1N Target_4A AkKJLBg FIgijhk Congruent right error Normal 408.4368
603 62 LeftSmaller PercIAExp1 Prime_9A Target_9N FIBEJAM HGIDKMC Congruent left error Normal 639.0746
603 63 LeftSmaller PercIAExp1 Prime_1N Target_6A IBKELal lIefgGE Incongruent left correct Normal 1088.131
603 64 LeftSmaller PercIAExp1 Prime_9A Target_1N MjFDgLf kKIDjbE Incongruent left error Normal 581.2928
603 65 LeftSmaller PercIAExp1 Prime_6A Target_4N cGljige lGJFKHd Incongruent left error Normal 1251.33
603 66 LeftSmaller PercIAExp1 Prime_4A Target_4A fJMKLgA emlgFCb Congruent left correct Normal 1336.17
603 67 LeftSmaller PercIAExp1 Prime_6N Target_6N bjkgeJF AHgDELC Congruent left error Normal 391.6201
603 68 LeftSmaller PercIAExp1 Prime_1A Target_9N mAMFjIl aKkEBLd Incongruent right error Normal 388.6938
603 69 LeftSmaller PercIAExp1 Prime_1A Target_6A kIKLjJH jAGlkdB Incongruent right error Normal 797.0548
603 70 LeftSmaller PercIAExp1 Prime_1N Target_4N mbaBedA MkamcjC Congruent right error Normal 587.296
603 71 LeftSmaller PercIAExp1 Prime_9N Target_1N bdFGLkf EhDAmGH Incongruent right correct Normal 901.204
603 72 LeftSmaller PercIAExp1 Prime_9N Target_1A cjkJbae Jjedifa Incongruent right correct Normal 1170.16
603 73 LeftSmaller PercIAExp1 Prime_4N Target_4A IdAhcik ckaGgfH Congruent right error Normal 519.2088
603 74 LeftSmaller PercIAExp1 Prime_1A Target_1A CklFDde mMHGkFD Congruent left correct Normal 671.1319
603 75 LeftSmaller PercIAExp1 Prime_9N Target_6N lIeFHbG EihBcbk Congruent right correct Normal 779.5919
603 76 LeftSmaller PercIAExp1 Prime_9N Target_6A BckHjMJ mjJiEIB Congruent right correct Normal 770.173
603 77 LeftSmaller PercIAExp1 Prime_6N Target_1N HgGdMlB IfaLADh Incongruent right correct Normal 591.6907
603 78 LeftSmaller PercIAExp1 Prime_4A Target_1N FAkIlJj ElJFHba Congruent right error Normal 541.0603
603 79 LeftSmaller PercIAExp1 Prime_6A Target_9A lAdEJCD KcHkjAE Congruent right correct Normal 637.8348
603 80 LeftSmaller PercIAExp1 Prime_6A Target_9N ChmfIkg AjhLdJg Congruent right correct Normal 858.9841
603 81 LeftLarger PercIBPrac Prime_6A Target_6A FleGIHA BAickMG Congruent right error Normal 786.4802
603 82 LeftLarger PercIBPrac Prime_9N Target_9N ihbmdJG eilgdEC Congruent left correct Normal 483.9539
603 83 LeftLarger PercIBPrac Prime_1N Target_1A EKiDkLe CLfmIMB Congruent right correct Normal 502.7005
603 84 LeftLarger PercIBPrac Prime_9A Target_9A amjHKkc AjFDJfh Congruent left correct Normal 594.4708
603 85 LeftLarger PercIBPrac Prime_4N Target_6A GKHlmLi lFJKIfa Incongruent right correct Normal 1076.524
603 86 LeftLarger PercIBPrac Prime_4A Target_6N FmkjIgb EFglMCJ Incongruent right correct Normal 778.3193
603 87 LeftLarger PercIBPrac Prime_1A Target_9A DefkHBa iGIEbdA Incongruent right correct Normal 1566.118
603 88 LeftLarger PercIBPrac Prime_4A Target_9A aHKJmbk gcMIDJf Incongruent left error Normal 630.1589
603 89 LeftLarger PercIBPrac Prime_6N Target_9N iIAacjK gMeGJDj Congruent left correct Normal 908.0792
603 90 LeftLarger PercIBPrac Prime_1A Target_6N DeChILE jGaHMiF Incongruent left error Normal 1091.391
603 91 LeftLarger PercIBPrac Prime_4N Target_4N bcAiCfJ mIdebfi Congruent left error Normal 998.3172
603 92 LeftLarger PercIBPrac Prime_9A Target_6N ambHkle JdkMIfg Congruent right error Normal 742.2599
603 93 LeftLarger PercIBPrac Prime_6A Target_1A ajKLiCd ADagiLG Incongruent left correct Normal 527.0379
603 94 LeftLarger PercIBPrac Prime_9A Target_6A JGahkHm FDEbclK Congruent right error Normal 792.3844
603 95 LeftLarger PercIBPrac Prime_6A Target_9A FCdBlGi AiBbGFe Congruent right error Normal 565.4858
603 96 LeftLarger PercIBPrac Prime_4A Target_4N BcMkhmH lBGEcLK Congruent left error Normal 1036.549
603 97 LeftLarger PercIBExp1 Prime_1N Target_1N iLIbmKG LGbImej Congruent right correct Normal 791.268
603 98 LeftLarger PercIBExp1 Prime_9N Target_9N iFmIDgJ DKALfaj Congruent left correct Normal 1195.202
603 99 LeftLarger PercIBExp1 Prime_9A Target_6A cjkgIHM iGkMgHC Congruent left correct Normal 1641.95
603 100 LeftLarger PercIBExp1 Prime_6A Target_9N maLCfjG gcFadiG Congruent right error Normal 2544.012
603 101 LeftLarger PercIBExp1 Prime_9A Target_4N akDgAGj KkbHMFA Incongruent left correct Normal 943.6413
603 102 LeftLarger PercIBExp1 Prime_1N Target_1A jDhAIaK FemLiGD Congruent right correct Normal 2085.591
603 103 LeftLarger PercIBExp1 Prime_1A Target_9N baeGCcf IDhdaAH Incongruent left error Normal 2416.067
603 104 LeftLarger PercIBExp1 Prime_6A Target_1A cdHiJEK HdAKkDg Incongruent left correct Normal 1061.221
603 105 LeftLarger PercIBExp1 Prime_9A Target_9A AaFJefL HdekDmb Congruent left correct Normal 809.0244
603 106 LeftLarger PercIBExp1 Prime_6N Target_1N KFhfJji kdBehaD Incongruent right error Normal 1498.925
603 107 LeftLarger PercIBExp1 Prime_9A Target_4A hbDdFMG AcGhgfe Incongruent left correct Normal 1429.114
603 108 LeftLarger PercIBExp1 Prime_4N Target_1N dcHMgiB hKBldma Congruent right correct Normal 1922.934
603 109 LeftLarger PercIBExp1 Prime_9N Target_4N icbfHjG gEHjlae Incongruent left correct Normal 1772.455
603 110 LeftLarger PercIBExp1 Prime_4N Target_9N dJcICKj CKDailI Incongruent right correct Normal 1129.067
603 111 LeftLarger PercIBExp1 Prime_6N Target_6N ekDfaIh BIeCcli Congruent left correct Normal 2112.902
603 112 LeftLarger PercIBExp1 Prime_1N Target_6N DHKiEmA jkmHEea Incongruent left error Normal 2320.92
603 113 LeftLarger PercIBExp1 Prime_6N Target_4A EhJDKaL FIcCLDg Incongruent left correct Normal 1630.971
603 114 LeftLarger PercIBExp1 Prime_6N Target_6A fbLlmgJ mjfJLeE Congruent left correct Normal 1105.061
603 115 LeftLarger PercIBExp1 Prime_9A Target_6N LKHidFJ GFMKjgl Congruent right error Normal 1012.479
603 116 LeftLarger PercIBExp1 Prime_1N Target_4A kJhiMaC lcKjdaM Congruent left error Normal 1423.761
603 117 LeftLarger PercIBExp1 Prime_6N Target_9N BiAbCLd mjJGbLD Congruent left correct Normal 1448.517
603 118 LeftLarger PercIBExp1 Prime_6A Target_1N JCmIejD KGigIEd Incongruent left correct Normal 1292.579
603 119 LeftLarger PercIBExp1 Prime_6N Target_1A CikAcad mjhIBal Incongruent left correct Normal 1181.55
603 120 LeftLarger PercIBExp1 Prime_1A Target_6A AbMFjil lgdiIjA Incongruent right correct Normal 1003.144
603 121 LeftLarger PercIBExp1 Prime_6N Target_4N ALCBgfD MEidmbC Incongruent left correct Normal 1493.19
603 122 LeftLarger PercIBExp1 Prime_4A Target_9N FihBMgG DkAjgha Incongruent left error Normal 1508.687
603 123 LeftLarger PercIBExp1 Prime_4A Target_6N bciDGfe cfJBjDh Incongruent left error Normal 1407.724
603 124 LeftLarger PercIBExp1 Prime_9A Target_1N ImHKlhD dCicKkl Incongruent left correct Normal 1028.945
603 125 LeftLarger PercIBExp1 Prime_9N Target_4A HICdElc eFicBLk Incongruent right error Normal 870.6532
603 126 LeftLarger PercIBExp1 Prime_1A Target_1N LJFIcjk bAHKgDf Congruent left error Normal 1397.802
603 127 LeftLarger PercIBExp1 Prime_6A Target_4A IDmCaFi GbLIlKg Incongruent left correct Normal 1128.256
603 128 LeftLarger PercIBExp1 Prime_6A Target_6N CcFfAaI BdmaEKj Congruent left correct Normal 1041.72
603 129 LeftLarger PercIBExp1 Prime_9N Target_9A fkDGMKa ieLFmMB Congruent right error Normal 1203.491
603 130 LeftLarger PercIBExp1 Prime_4N Target_9A jeikFAB CJIglFD Incongruent right correct Normal 889.2541
603 131 LeftLarger PercIBExp1 Prime_9N Target_1A GbifjIL jMeLCId Incongruent left correct Normal 815.1891
603 132 LeftLarger PercIBExp1 Prime_1A Target_9A GHMhBcJ ejMFHil Incongruent right correct Normal 1541.242
603 133 LeftLarger PercIBExp1 Prime_6A Target_6A kmDKAHF lCLEAka Congruent left correct Normal 1820.403
603 134 LeftLarger PercIBExp1 Prime_4N Target_1A fgLImDd jKeMIDk Congruent right correct Normal 1202.882
603 135 LeftLarger PercIBExp1 Prime_9N Target_6A FCMHfEJ BgJEjlf Congruent right error Normal 1868.511
603 136 LeftLarger PercIBExp1 Prime_6N Target_9A emKaFJG CmkElKB Congruent right error Normal 825.2842
603 137 LeftLarger PercIBExp1 Prime_4A Target_4N HlEDieC fCakmFB Congruent left error Normal 2063.388
603 138 LeftLarger PercIBExp1 Prime_4N Target_4A lGefgAk EhDigeF Congruent right correct Normal 2366.458
603 139 LeftLarger PercIBExp1 Prime_9N Target_6N ecMDIdJ mbhFIKg Congruent left correct Normal 1688.932
603 140 LeftLarger PercIBExp1 Prime_4A Target_6A hIEAMbe dCMgEFJ Incongruent left error Normal 1444.484
603 141 LeftLarger PercIBExp1 Prime_6A Target_9A bJigjGF CJHFDfI Congruent left correct Normal 1594.27
603 142 LeftLarger PercIBExp1 Prime_9A Target_9N giMBdbj jfCeAdk Congruent left correct Normal 2489.949
603 143 LeftLarger PercIBExp1 Prime_1N Target_9A hKDGcdE bfdeakj Incongruent right correct Normal 2338.326
603 144 LeftLarger PercIBExp1 Prime_6A Target_4N GcdjLCl KEijBGL Incongruent left correct Normal 2443.129
603 145 LeftLarger PercIBExp1 Prime_4N Target_4N BHajmlh EbehFkB Congruent left error Normal 2223.567
603 146 LeftLarger PercIBExp1 Prime_1N Target_4N dfECGiK HlKFgkL Congruent right correct Normal 2094.152
603 147 LeftLarger PercIBExp1 Prime_9N Target_1N EFmGMCg dEHJLAD Incongruent left correct Normal 1109.784
603 148 LeftLarger PercIBExp1 Prime_1A Target_1A FmhgMEl fLljICE Congruent right correct Normal 2170.916
603 149 LeftLarger PercIBExp1 Prime_1A Target_6N bGdLmBM BLdDClI Incongruent left error Normal 2313.42
603 150 LeftLarger PercIBExp1 Prime_4N Target_6A fiHFDeJ hKbcBFJ Incongruent right correct Normal 1813.467
603 151 LeftLarger PercIBExp1 Prime_1N Target_6A AEiHLgd EIglJhL Incongruent left error Normal 842.1137
603 152 LeftLarger PercIBExp1 Prime_4N Target_6N FkAmLfK fFmacCb Incongruent left error Normal 930.8629
603 153 LeftLarger PercIBExp1 Prime_4A Target_1N BbhEIAa cjLBfel Congruent left error Normal 1109.131
603 154 LeftLarger PercIBExp1 Prime_1A Target_4N kMgdbJA bBJfkhm Congruent left error Normal 1296.556
603 155 LeftLarger PercIBExp1 Prime_4A Target_9A MdKlmag clmFLBE Incongruent right correct Normal 1076.296
603 156 LeftLarger PercIBExp1 Prime_1N Target_9N dceGLHI cJfBEHj Incongruent right correct Normal 1230.803
603 157 LeftLarger PercIBExp1 Prime_4A Target_4A LAfgBDm BGFiALM Congruent left error Normal 844.7845
603 158 LeftLarger PercIBExp1 Prime_1A Target_4A ckaAjgG FgGhCmk Congruent left error Normal 1970.936
603 159 LeftLarger PercIBExp1 Prime_4A Target_1A HBMaefk eCIlchB Congruent right correct Normal 1647.43
603 160 LeftLarger PercIBExp1 Prime_9A Target_1A iKIlgJk IigkKMe Incongruent left correct Normal 1128.912
604 1 LeftLarger PercIAPrac Prime_9N Target_9N MGdBfac HFDAEKM Congruent left correct Normal 1522.361
604 2 LeftLarger PercIAPrac Prime_1A Target_6A BKecICa fKimajA Incongruent right correct Normal 854.5459
604 3 LeftLarger PercIAPrac Prime_1N Target_9A EjKHDim GJdDlMg Incongruent right correct Normal 1497.646
604 4 LeftLarger PercIAPrac Prime_4N Target_4N eiblADB HCFjiIL Congruent left error Normal 791.3422
604 5 LeftLarger PercIAPrac Prime_9A Target_9N geDCibH IKGakMJ Congruent right error Normal 617.0186
604 6 LeftLarger PercIAPrac Prime_4A Target_6A HKDbkmf ceLmFCE Incongruent left error Normal 1458.162
604 7 LeftLarger PercIAPrac Prime_9A Target_6N JKlEdec FKiLMAa Congruent right error Normal 1215.832
604 8 LeftLarger PercIAPrac Prime_1N Target_1N CEedMJD hILjHDJ Congruent right correct Normal 1129.288
604 9 LeftLarger PercIAPrac Prime_1N Target_4N MmdBHCi bLieBfg Congruent right correct Normal 985.9999
604 10 LeftLarger PercIAPrac Prime_6A Target_6A faljkiF iljEJaM Congruent right error Normal 1118.376
604 11 LeftLarger PercIAPrac Prime_9N Target_6A LjGAghK LjghJaI Congruent right error Normal 875.6612
604 12 LeftLarger PercIAPrac Prime_1N Target_9N LHmfCBM MCiLGfl Incongruent left error Normal 1020.351
604 13 LeftLarger PercIAPrac Prime_4A Target_9A gbAjDlc kGbdKDl Incongruent right correct Normal 1065.777
604 14 LeftLarger PercIAPrac Prime_1N Target_1A GLafidm GmLClJc Congruent right correct Normal 1927.313
604 15 LeftLarger PercIAPrac Prime_9A Target_4A CEAIljk iAGheEC Incongruent right error Normal 1418.023
604 16 LeftLarger PercIAPrac Prime_4N Target_9A DhGAbdL lGDLEdI Incongruent right correct Normal 911.3455
604 17 LeftLarger PercIAExp1 Prime_9A Target_1N cLEKmHf DLMHkKe Incongruent right error Normal 776.8344
604 18 LeftLarger PercIAExp1 Prime_1N Target_9A BfALDjJ CcHmDaK Incongruent right correct Normal 1296.582
604 19 LeftLarger PercIAExp1 Prime_4N Target_9N MDFIebm GfeldKJ Incongruent right correct Normal 1042.304
604 20 LeftLarger PercIAExp1 Prime_1A Target_1N GJhjagm hekcHMa Congruent left error Normal 1949.564
604 21 LeftLarger PercIAExp1 Prime_6A Target_6N LjikmbM JMljCDk Congruent right error Normal 1039.667
604 22 LeftLarger PercIAExp1 Prime_9A Target_9N hGegLcD AIhmCcM Congruent right error Normal 945.7289
604 23 LeftLarger PercIAExp1 Prime_1N Target_6N gFmiDMd JEHafBm Incongruent right correct Normal 2431.394
604 24 LeftLarger PercIAExp1 Prime_1N Target_1A BJGieAI bCGBKJI Congruent right correct Normal 975.0988
604 25 LeftLarger PercIAExp1 Prime_9N Target_1N KiHmFdD GFKfCbM Incongruent left correct Normal 1269.071
604 26 LeftLarger PercIAExp1 Prime_4A Target_1A mjibCHg kAhMibH Congruent right correct Normal 1534.287
604 27 LeftLarger PercIAExp1 Prime_1A Target_4A IHhjCKA icHJmDC Congruent right correct Normal 1101.727
604 28 LeftLarger PercIAExp1 Prime_1N Target_4N BkHCAac IJcDMEg Congruent left error Normal 1181.456
604 29 LeftLarger PercIAExp1 Prime_9A Target_9A hEgebAf AICJcfD Congruent right error Normal 991.0748
604 30 LeftLarger PercIAExp1 Prime_9A Target_4A HFAhIJE bLjfKMJ Incongruent left correct Normal 1201.071
604 31 LeftLarger PercIAExp1 Prime_4N Target_9A DhadjAK CKigfBH Incongruent right correct Normal 1271.861
604 32 LeftLarger PercIAExp1 Prime_6N Target_9N mDkEgdf IdDJfBk Congruent right error Normal 869.281
604 33 LeftLarger PercIAExp1 Prime_4A Target_6A KjcFAHh IKClghf Incongruent left error Normal 987.0868
604 34 LeftLarger PercIAExp1 Prime_9N Target_9A hcIbFai EicaKAf Congruent left correct Normal 1567.382
604 35 LeftLarger PercIAExp1 Prime_4A Target_4A JKiDHIj BiKLGJb Congruent right correct Normal 924.8381
604 36 LeftLarger PercIAExp1 Prime_4N Target_6N EKDahAB caiJEHL Incongruent right correct Normal 1938.362
604 37 LeftLarger PercIAExp1 Prime_6N Target_9A IHBALGb FKIhLkH Congruent right error Normal 1787.869
604 38 LeftLarger PercIAExp1 Prime_9N Target_9N hKagBHb EAcaDFi Congruent left correct Normal 985.4959
604 39 LeftLarger PercIAExp1 Prime_6A Target_4N MEmjcbl LeliDad Incongruent right error Normal 1143.81
604 40 LeftLarger PercIAExp1 Prime_4A Target_6N lIGhCmk gKCLabB Incongruent right correct Normal 1000.99
604 41 LeftLarger PercIAExp1 Prime_1N Target_1N LhDHIef fLiKHIj Congruent right correct Normal 1148.402
604 42 LeftLarger PercIAExp1 Prime_6A Target_9A HjdFmlf fMkBEiK Congruent left correct Normal 1132.442
604 43 LeftLarger PercIAExp1 Prime_1A Target_4N JDHAmij AaiMhCg Congruent left error Normal 745.5029
604 44 LeftLarger PercIAExp1 Prime_6N Target_4A FKeCEbl bjKAclH Incongruent right error Normal 647.2637
604 45 LeftLarger PercIAExp1 Prime_4N Target_1A MCIDkcd KdDIGCE Congruent left error Normal 1854.23
604 46 LeftLarger PercIAExp1 Prime_1N Target_4A KDdceFk CbmFHgi Congruent right correct Normal 895.1632
604 47 LeftLarger PercIAExp1 Prime_1A Target_9A GMBbdIm DeJAhBd Incongruent right correct Normal 828.3343
604 48 LeftLarger PercIAExp1 Prime_6N Target_1A FiIEkmB KBfCMal Incongruent right error Normal 1306.493
604 49 LeftLarger PercIAExp1 Prime_9A Target_4N ALFjhga maMiHGD Incongruent right error Normal 1333.546
604 50 LeftLarger PercIAExp1 Prime_9A Target_6A lMaceKA mDgekcE Congruent left correct Normal 1034.135
604 51 LeftLarger PercIAExp1 Prime_6N Target_6A lMjbLKe dLKejBD Congruent right error Normal 1241.525
604 52 LeftLarger PercIAExp1 Prime_6N Target_6N GDJECBk MedFbmh Congruent right error Normal 1073.458
604 53 LeftLarger PercIAExp1 Prime_4A Target_4N kcgfMla JlhaECD Congruent right correct Normal 1118.016
604 54 LeftLarger PercIAExp1 Prime_1A Target_1A CakJGKj aAcHbKL Congruent left error Normal 881.5233
604 55 LeftLarger PercIAExp1 Prime_6A Target_1A ILEjalg beKlIEA Incongruent right error Normal 1208.108
604 56 LeftLarger PercIAExp1 Prime_6A Target_6A mjEBkHc EFmIlbD Congruent right error Normal 1002.301
604 57 LeftLarger PercIAExp1 Prime_1A Target_6N JcDgehG heIlLHd Incongruent right correct Normal 1048.735
604 58 LeftLarger PercIAExp1 Prime_9N Target_6N FHbGckj gbAkalC Congruent left correct Normal 922.7661
604 59 LeftLarger PercIAExp1 Prime_4N Target_4A hBclFmL fKkimGI Congruent left error Normal 622.9632
604 60 LeftLarger PercIAExp1 Prime_4A Target_1N hBHAbil fghbcmK Congruent left error Normal 896.5069
604 61 LeftLarger PercIAExp1 Prime_4N Target_6A AdIljHF AClmFdM Incongruent right correct Normal 875.8794
604 62 LeftLarger PercIAExp1 Prime_9A Target_6N KJGbmLf AchemIk Congruent left correct Normal 1105.448
604 63 LeftLarger PercIAExp1 Prime_1N Target_6A LjciJhC gKFCmbk Incongruent left error Normal 697.1508
604 64 LeftLarger PercIAExp1 Prime_9N Target_1A fiBgMhA kjalhID Incongruent right error Normal 697.08
604 65 LeftLarger PercIAExp1 Prime_6N Target_1N kidgEFl eLmFlED Incongruent right error Normal 1177.101
604 66 LeftLarger PercIAExp1 Prime_9N Target_4N JibAMaF GHbhiDJ Incongruent right error Normal 854.2787
604 67 LeftLarger PercIAExp1 Prime_4N Target_1N BDbAFeC DLHjMgE Congruent right correct Normal 1155.147
604 68 LeftLarger PercIAExp1 Prime_1A Target_9N meBfJDb DAjCIfm Incongruent left error Normal 1492.742
604 69 LeftLarger PercIAExp1 Prime_6A Target_9N iAMfGJD KGgfbdC Congruent left correct Normal 947.1872
604 70 LeftLarger PercIAExp1 Prime_9N Target_4A FkiEJHm MjJahKL Incongruent right error Normal 1301.614
604 71 LeftLarger PercIAExp1 Prime_6N Target_4N gdGmIEe mDkicJF Incongruent left correct Normal 1432.653
604 72 LeftLarger PercIAExp1 Prime_4A Target_9A megadjK IFGBHmL Incongruent left error Normal 1349.597
604 73 LeftLarger PercIAExp1 Prime_1N Target_9N gHLkbDK hlAbBfi Incongruent right correct Normal 1196.468
604 74 LeftLarger PercIAExp1 Prime_4N Target_4N FEhMIic ADjieHc Congruent right correct Normal 1042.701
604 75 LeftLarger PercIAExp1 Prime_6A Target_4A EmkCiAe LGmHhCJ Incongruent left correct Normal 1007.958
604 76 LeftLarger PercIAExp1 Prime_6A Target_1N aGBImlg BiDckEK Incongruent left correct Normal 1123.677
604 77 LeftLarger PercIAExp1 Prime_1A Target_6A GiEfBHj HiKAkIF Incongruent right correct Normal 1646.37
604 78 LeftLarger PercIAExp1 Prime_9A Target_1A aJBfELl hLAckjH Incongruent left correct Normal 1051.048
604 79 LeftLarger PercIAExp1 Prime_9N Target_6A CBafjFd eCcAEIl Congruent right error Normal 1363.601
604 80 LeftLarger PercIAExp1 Prime_4A Target_9N EBdgKMh McLDjBl Incongruent left error Normal 791.7785
604 81 LeftSmaller PercIBPrac Prime_6N Target_1N IBdkigf fACbaci Incongruent right correct Normal 1297.118
604 82 LeftSmaller PercIBPrac Prime_1N Target_4A BmEafId cBgabIM Congruent right error Normal 763.254
604 83 LeftSmaller PercIBPrac Prime_1A Target_6N IdMGegB ldFbCLj Incongruent right error Normal 715.886
604 84 LeftSmaller PercIBPrac Prime_4A Target_9N bEJFhBH CmagFci Incongruent left correct Normal 675.5767
604 85 LeftSmaller PercIBPrac Prime_4A Target_4N ilGmkaC DBLCmjl Congruent left correct Normal 606.61
604 86 LeftSmaller PercIBPrac Prime_6A Target_4A ckCfeDi HadmhFb Incongruent left error Normal 1379.761
604 87 LeftSmaller PercIBPrac Prime_4N Target_6A ecLIfmM iCFDmjJ Incongruent right error Normal 1323.558
604 88 LeftSmaller PercIBPrac Prime_1A Target_1N fjahdJM HjGeAMg Congruent left correct Normal 1156.548
604 89 LeftSmaller PercIBPrac Prime_6N Target_1A gGJfDFK HjBfiMd Incongruent right correct Normal 1135.322
604 90 LeftSmaller PercIBPrac Prime_9A Target_6A CeEGMKA aFLbdiA Congruent left error Normal 1409.518
604 91 LeftSmaller PercIBPrac Prime_6A Target_6A gjlHJDG kjDlcdI Congruent right correct Normal 868.9279
604 92 LeftSmaller PercIBPrac Prime_4N Target_4N GEFCaHA JdCcmaF Congruent right error Normal 2066.849
604 93 LeftSmaller PercIBPrac Prime_1N Target_9A KIAabhm kdeGaKF Incongruent left correct Normal 832.4332
604 94 LeftSmaller PercIBPrac Prime_9A Target_9N KmFdBje fGCdMIa Congruent left error Normal 674.7422
604 95 LeftSmaller PercIBPrac Prime_1N Target_1N jAFheDm mbkIaDf Congruent right error Normal 690.7502
604 96 LeftSmaller PercIBPrac Prime_9N Target_4N almcHgA KlDCige Incongruent right correct Normal 1574.056
604 97 LeftSmaller PercIBExp1 Prime_1A Target_4A ABKfDFd IMEckdB Congruent left correct Normal 925.7846
604 98 LeftSmaller PercIBExp1 Prime_6N Target_9A MjJebFK iMLmegl Congruent right correct Normal 1791.719
604 99 LeftSmaller PercIBExp1 Prime_9A Target_6A ljhbGeI bDfemaH Congruent right correct Normal 906.3013
604 100 LeftSmaller PercIBExp1 Prime_6A Target_1A beLfCam aJkcAjE Incongruent right correct Normal 1560.181
604 101 LeftSmaller PercIBExp1 Prime_6N Target_6A ajkcGLM CmlihEK Congruent left error Normal 809.3084
604 102 LeftSmaller PercIBExp1 Prime_1N Target_6N KkcbHiF EbledJA Incongruent left correct Normal 1183.406
604 103 LeftSmaller PercIBExp1 Prime_9N Target_6N fGLilkF mDlMIdB Congruent left error Normal 1138.359
604 104 LeftSmaller PercIBExp1 Prime_9N Target_1N gEldeKM EFDfHjB Incongruent right correct Normal 529.8056
604 105 LeftSmaller PercIBExp1 Prime_1N Target_1A LMAClgE BfIKEkJ Congruent right error Normal 895.8324
604 106 LeftSmaller PercIBExp1 Prime_1A Target_4N jBfilFc bJhjcDf Congruent right error Normal 1158.241
604 107 LeftSmaller PercIBExp1 Prime_1A Target_9N kDjaAMf edfELGF Incongruent left correct Normal 1188.205
604 108 LeftSmaller PercIBExp1 Prime_4A Target_9A gcCadEF MFIjKDg Incongruent right error Normal 857.9831
604 109 LeftSmaller PercIBExp1 Prime_4A Target_4A GJdhmHg bDiJHIj Congruent right error Normal 1112.291
604 110 LeftSmaller PercIBExp1 Prime_1A Target_1N chkeiEC jaecMgJ Congruent right error Normal 921.104
604 111 LeftSmaller PercIBExp1 Prime_9A Target_9A clCEieF BhcCmdg Congruent left error Normal 1212.779
604 112 LeftSmaller PercIBExp1 Prime_1N Target_9N JHcdDKC AjdDgCI Incongruent left correct Normal 908.1844
604 113 LeftSmaller PercIBExp1 Prime_6A Target_1N cmGMABl LgkjKaF Incongruent right correct Normal 1434.949
604 114 LeftSmaller PercIBExp1 Prime_6A Target_9A CGBAdfi GCJdBHb Congruent left error Normal 1029.626
604 115 LeftSmaller PercIBExp1 Prime_9N Target_6A dieGKhL LGegaEc Congruent right correct Normal 1194.588
604 116 LeftSmaller PercIBExp1 Prime_4A Target_6A cCKBkiA DHbhgMa Incongruent left correct Normal 1102.77
604 117 LeftSmaller PercIBExp1 Prime_6A Target_6A LkciKDg AIDFgGB Congruent left error Normal 1209.058
604 118 LeftSmaller PercIBExp1 Prime_6A Target_9N mCfjgdB fjeKcah Congruent right correct Normal 1095.341
604 119 LeftSmaller PercIBExp1 Prime_1N Target_4N ejFCmJG BjfmKlE Congruent left correct Normal 738.1609
604 120 LeftSmaller PercIBExp1 Prime_4N Target_1N GECLJId KjFbBgL Congruent right error Normal 1108.418
604 121 LeftSmaller PercIBExp1 Prime_1N Target_4A hMmbJfl hGIEeCA Congruent right error Normal 1567.265
604 122 LeftSmaller PercIBExp1 Prime_4N Target_1A FAKCIJb gedGchJ Congruent right error Normal 1146.337
604 123 LeftSmaller PercIBExp1 Prime_9A Target_9N IgHkdfj DmEelgf Congruent left error Normal 1037.409
604 124 LeftSmaller PercIBExp1 Prime_9N Target_9A ADeIgaE KCGbdkI Congruent right correct Normal 1260.835
604 125 LeftSmaller PercIBExp1 Prime_6N Target_4N mfkCgIb aibkLGg Incongruent right correct Normal 1277.122
604 126 LeftSmaller PercIBExp1 Prime_6N Target_1A aMLhDeE kMadfIK Incongruent right correct Normal 1217.306
604 127 LeftSmaller PercIBExp1 Prime_1N Target_1N mcAjFGE gdmMHbI Congruent right error Normal 617.2387
604 128 LeftSmaller PercIBExp1 Prime_4N Target_9N CeihDFd gEmbJck Incongruent left correct Normal 1012.004
604 129 LeftSmaller PercIBExp1 Prime_4N Target_6A cIifAaH FfLHhlK Incongruent left correct Normal 1210.937
604 130 LeftSmaller PercIBExp1 Prime_9N Target_9N keEgmLD CieLgFK Congruent right correct Normal 682.7555
604 131 LeftSmaller PercIBExp1 Prime_4A Target_4N cGEJLAd KjBJcIi Congruent left correct Normal 1461.154
604 132 LeftSmaller PercIBExp1 Prime_9A Target_1A eDidAfj liCheKJ Incongruent right correct Normal 1018.599
604 133 LeftSmaller PercIBExp1 Prime_1A Target_6A fJFgbhH LDEhIMJ Incongruent right error Normal 767.5456
604 134 LeftSmaller PercIBExp1 Prime_9A Target_4N icdhJeL heAcEgB Incongruent right correct Normal 1121.689
604 135 LeftSmaller PercIBExp1 Prime_9A Target_4A GbjMDKH fdAJjBF Incongruent left error Normal 1013.555
604 136 LeftSmaller PercIBExp1 Prime_9A Target_6N LmCkldM CmGiKLl Congruent left error Normal 1232.056
604 137 LeftSmaller PercIBExp1 Prime_6N Target_4A CGjkabK cFfKhEI Incongruent right correct Normal 927.0867
604 138 LeftSmaller PercIBExp1 Prime_4A Target_1A bHADFEj hbHKDgE Congruent left correct Normal 1966.508
604 139 LeftSmaller PercIBExp1 Prime_6N Target_9N cedliFL jlacEbg Congruent right correct Normal 897.4199
604 140 LeftSmaller PercIBExp1 Prime_9N Target_1A AlmaHkJ lLgKjeM Incongruent left error Normal 1514.835
604 141 LeftSmaller PercIBExp1 Prime_9N Target_4A fLbdDMH ldfjIJK Incongruent right correct Normal 853.0548
604 142 LeftSmaller PercIBExp1 Prime_4N Target_4N FamKIli BifLJdj Congruent left correct Normal 1346.034
604 143 LeftSmaller PercIBExp1 Prime_9A Target_1N leJhmHG GgmHLDI Incongruent right correct Normal 1211.415
604 144 LeftSmaller PercIBExp1 Prime_6A Target_4A DhAcFEl BIbGhCk Incongruent right correct Normal 776.5658
604 145 LeftSmaller PercIBExp1 Prime_1N Target_9A CldJFAe LbaBfgE Incongruent left correct Normal 923.7322
604 146 LeftSmaller PercIBExp1 Prime_1A Target_1A FALbdhi KMjaAFI Congruent right error Normal 1408.683
604 147 LeftSmaller PercIBExp1 Prime_1N Target_6A CBIhMHj MkEcLdH Incongruent left correct Normal 607.7574
604 148 LeftSmaller PercIBExp1 Prime_4N Target_4A mkadfjB DCHGaLc Congruent right error Normal 822.6908
604 149 LeftSmaller PercIBExp1 Prime_6A Target_4N ilIEaFH AGLdKah Incongruent right correct Normal 1758.343
604 150 LeftSmaller PercIBExp1 Prime_6N Target_6N ChcDIBj cjdaFAg Congruent left error Normal 1105.762
604 151 LeftSmaller PercIBExp1 Prime_6N Target_1N HjiKIdf iJmfklH Incongruent left error Normal 1266.041
604 152 LeftSmaller PercIBExp1 Prime_1A Target_6N kLgmKjD BikhjlI Incongruent left correct Normal 959.6045
604 153 LeftSmaller PercIBExp1 Prime_9N Target_4N LAFlcdm jFelCfi Incongruent right correct Normal 1018.062
604 154 LeftSmaller PercIBExp1 Prime_1A Target_9A edjGMcE BlFHjdG Incongruent right error Normal 978.2456
604 155 LeftSmaller PercIBExp1 Prime_4A Target_9N kAhLBMF MBIaCfb Incongruent left correct Normal 752.3267
604 156 LeftSmaller PercIBExp1 Prime_4A Target_1N iaBgJlC kdfGglJ Congruent right error Normal 806.4646
604 157 LeftSmaller PercIBExp1 Prime_4N Target_6N gfFKjiA JHCBked Incongruent left correct Normal 775.0115
604 158 LeftSmaller PercIBExp1 Prime_6A Target_6N DhcLFEa KGhlemj Congruent right correct Normal 738.3395
604 159 LeftSmaller PercIBExp1 Prime_4A Target_6N mEeAahi adDGLcH Incongruent left correct Normal 571.9781
604 160 LeftSmaller PercIBExp1 Prime_4N Target_9A LIdhDjF mCHkdJF Incongruent left correct Normal 660.0171
605 1 LeftSmaller PercIAPrac Prime_4N Target_4A AMjagHL CeMbcIl Congruent left correct Normal 1203.446
605 2 LeftSmaller PercIAPrac Prime_6N Target_4A ElMiJgD JGeaDmc Incongruent right correct Normal 972.4871
605 3 LeftSmaller PercIAPrac Prime_4A Target_9N diBfeLC DlIcEfF Incongruent left correct Normal 1137.908
605 4 LeftSmaller PercIAPrac Prime_4N Target_9N cCheHbG BHkEMCI Incongruent right error Normal 1251.52
605 5 LeftSmaller PercIAPrac Prime_6N Target_1N AmiMBEK kLCGIjm Incongruent right correct Normal 688.6871
605 6 LeftSmaller PercIAPrac Prime_6A Target_1A bakeBMJ AFKeDmG Incongruent left error Normal 728.974
605 7 LeftSmaller PercIAPrac Prime_1A Target_6N eEaDKgB KdGICLF Incongruent left correct Normal 1314.75
605 8 LeftSmaller PercIAPrac Prime_9N Target_9A EBCJlmk IfbGCgc Congruent right correct Normal 650.468
605 9 LeftSmaller PercIAPrac Prime_1A Target_9N abgMkGI caFBDfk Incongruent right error Normal 974.0686
605 10 LeftSmaller PercIAPrac Prime_9N Target_4A abcfFAk AlJgFjI Incongruent right correct Normal 1878.268
605 11 LeftSmaller PercIAPrac Prime_9N Target_1N beKjfhL jblHIcC Incongruent right correct Normal 2072.485
605 12 LeftSmaller PercIAPrac Prime_4N Target_6A bDaBhfm FjIhDgi Incongruent left correct Normal 1279.654
605 13 LeftSmaller PercIAPrac Prime_9A Target_4A MKjBmhJ imHgFMD Incongruent left error Normal 1889.24
605 14 LeftSmaller PercIAPrac Prime_4A Target_4A bhieCGD ebFdHmi Congruent right error Normal 613.513
605 15 LeftSmaller PercIAPrac Prime_9N Target_4N LcebJfC CbHGJBd Incongruent right correct Normal 2304.193
605 16 LeftSmaller PercIAPrac Prime_6A Target_6A AFdbMBe dAGlhLD Congruent left error Normal 894.3338
605 17 LeftSmaller PercIAExp1 Prime_9A Target_4A hAKIjfM AMmclid Incongruent right correct Normal 574.793
605 18 LeftSmaller PercIAExp1 Prime_4A Target_1A KaCmDch EAimKCF Congruent left correct Normal 794.4367
605 19 LeftSmaller PercIAExp1 Prime_9N Target_1A dJeELbG HAeGaEj Incongruent right correct Normal 599.1346
605 20 LeftSmaller PercIAExp1 Prime_4A Target_1N IbaEHle fKeMgbD Congruent right error Normal 712.4159
605 21 LeftSmaller PercIAExp1 Prime_6A Target_4N kgFeBlH DfMIaig Incongruent right correct Normal 1130.581
605 22 LeftSmaller PercIAExp1 Prime_6N Target_1N hbFKaHi lKcaIMD Incongruent left error Normal 589.6007
605 23 LeftSmaller PercIAExp1 Prime_6A Target_6N cfemCMk BFCHfDc Congruent left error Normal 752.2744
605 24 LeftSmaller PercIAExp1 Prime_6N Target_6N HElAifG AcgBkIa Congruent right correct Normal 1384.114
605 25 LeftSmaller PercIAExp1 Prime_9A Target_1N BafImcg BmiGlcj Incongruent left error Normal 623.8876
605 26 LeftSmaller PercIAExp1 Prime_9N Target_9N IEeJlfi mJeMBfG Congruent left error Normal 966.597
605 27 LeftSmaller PercIAExp1 Prime_1A Target_6A JBfHkiI bmHCeiM Incongruent left correct Normal 1034.75
605 28 LeftSmaller PercIAExp1 Prime_6A Target_4A jgJcLla ImGAgjH Incongruent right correct Normal 753.6643
605 29 LeftSmaller PercIAExp1 Prime_6N Target_9A FCfkabm leLgJjc Congruent left error Normal 735.5458
605 30 LeftSmaller PercIAExp1 Prime_4A Target_4A HmdeAIF ilCJamc Congruent left correct Normal 828.7469
605 31 LeftSmaller PercIAExp1 Prime_4A Target_9A BKjgcFD HhBfAGd Incongruent right error Normal 440.0555
605 32 LeftSmaller PercIAExp1 Prime_1N Target_9A giIeLKk mlCMhBk Incongruent left correct Normal 464.8485
605 33 LeftSmaller PercIAExp1 Prime_6N Target_4N dBcimlH abLFJCm Incongruent right correct Normal 1263.012
605 34 LeftSmaller PercIAExp1 Prime_9A Target_6A AhaLImB aiEGHeB Congruent left error Normal 649.7755
605 35 LeftSmaller PercIAExp1 Prime_6N Target_1A CbclgMK AIBLDlE Incongruent right correct Normal 718.3851
605 36 LeftSmaller PercIAExp1 Prime_1A Target_4A kaEFALJ iHmeJdL Congruent left correct Normal 504.7821
605 37 LeftSmaller PercIAExp1 Prime_1N Target_1A CkmDEHG MAhamCe Congruent left correct Normal 1065.595
605 38 LeftSmaller PercIAExp1 Prime_1A Target_1N hbCeAjM jFhmcDk Congruent right error Normal 697.6132
605 39 LeftSmaller PercIAExp1 Prime_9A Target_9A MKCekAc mgMlbhA Congruent left error Normal 715.7971
605 40 LeftSmaller PercIAExp1 Prime_1N Target_6N KahimIE dIjAbea Incongruent left correct Normal 788.8381
605 41 LeftSmaller PercIAExp1 Prime_6N Target_6A AJMaDig fcAjEdK Congruent right correct Normal 600.0215
605 42 LeftSmaller PercIAExp1 Prime_1A Target_9A EGJKDMa bFGmHlM Incongruent left correct Normal 3371.284
605 43 LeftSmaller PercIAExp1 Prime_6A Target_1A MDIAHGh LAdaFeE Incongruent left error Normal 623.0263
605 44 LeftSmaller PercIAExp1 Prime_4N Target_1A jAgcClG bfJmICa Congruent right error Normal 714.3141
605 45 LeftSmaller PercIAExp1 Prime_9N Target_9A edlJMIh gFMJlaG Congruent right correct Normal 2632.355
605 46 LeftSmaller PercIAExp1 Prime_4N Target_9A HIGmidh AjhLEbC Incongruent left correct Normal 1080.31
605 47 LeftSmaller PercIAExp1 Prime_1N Target_9N fHihABG JIcDkfl Incongruent left correct Normal 2073.858
605 48 LeftSmaller PercIAExp1 Prime_4N Target_6N FlMDKmA GIbfKCD Incongruent left correct Normal 762.8186
605 49 LeftSmaller PercIAExp1 Prime_1N Target_4A DCLFGaB CeiBMkJ Congruent right error Normal 1443.484
605 50 LeftSmaller PercIAExp1 Prime_4N Target_9N HihLcFC kdgjAbh Incongruent left correct Normal 739.5742
605 51 LeftSmaller PercIAExp1 Prime_9A Target_6N KMefdjh JLKIiHj Congruent left error Normal 797.1446
605 52 LeftSmaller PercIAExp1 Prime_4A Target_4N gicCDLK ibJkBHD Congruent right error Normal 752.9053
605 53 LeftSmaller PercIAExp1 Prime_4A Target_6N maDELlJ HDaeclK Incongruent left correct Normal 2203.756
605 54 LeftSmaller PercIAExp1 Prime_4N Target_1N EefKgMD hFdEDcA Congruent left correct Normal 1198.494
605 55 LeftSmaller PercIAExp1 Prime_9N Target_6A LGCdjHE lMfBHgc Congruent right correct Normal 1475.901
605 56 LeftSmaller PercIAExp1 Prime_1A Target_4N HJagDKk jhdbmel Congruent left correct Normal 1094.001
605 57 LeftSmaller PercIAExp1 Prime_1A Target_1A iKmDkFj dHCgBjJ Congruent right error Normal 542.774
605 58 LeftSmaller PercIAExp1 Prime_1N Target_1N KbEicAh aceKkMg Congruent left correct Normal 859.5153
605 59 LeftSmaller PercIAExp1 Prime_4N Target_4A LIacgHf FEMLgIm Congruent right error Normal 1816.079
605 60 LeftSmaller PercIAExp1 Prime_9N Target_6N hmABcMI LdAeBgh Congruent left error Normal 551.4488
605 61 LeftSmaller PercIAExp1 Prime_1A Target_6N IHKcDGA jfJAlbc Incongruent left correct Normal 1313.732
605 62 LeftSmaller PercIAExp1 Prime_6A Target_1N IcEiHLa IHalfjK Incongruent right correct Normal 938.179
605 63 LeftSmaller PercIAExp1 Prime_9A Target_9N CAKGcdg FhjGkHe Congruent left error Normal 1817.588
605 64 LeftSmaller PercIAExp1 Prime_6N Target_9N AkGHFlJ blmIMBG Congruent right correct Normal 1560.255
605 65 LeftSmaller PercIAExp1 Prime_9A Target_1A KGiDMIA kefbJDK Incongruent right correct Normal 805.2914
605 66 LeftSmaller PercIAExp1 Prime_9A Target_4N bgEaBDh lmGMdcK Incongruent right correct Normal 3230.015
605 67 LeftSmaller PercIAExp1 Prime_6A Target_9N gkEAGFa KcjGaeC Congruent right correct Normal 1470.593
605 68 LeftSmaller PercIAExp1 Prime_4A Target_6A begLlkJ fHiDCcB Incongruent left correct Normal 854.538
605 69 LeftSmaller PercIAExp1 Prime_4N Target_6A hgMHacf kBLlGcK Incongruent left correct Normal 1259.819
605 70 LeftSmaller PercIAExp1 Prime_9N Target_4A KJlgdbc hHfEmka Incongruent right correct Normal 884.6348
605 71 LeftSmaller PercIAExp1 Prime_6A Target_6A hdfaImA IdCLBcF Congruent left error Normal 1066.723
605 72 LeftSmaller PercIAExp1 Prime_4N Target_4N IMLFcag hCKmGge Congruent right error Normal 2338.607
605 73 LeftSmaller PercIAExp1 Prime_9N Target_1N aHGLfeh kGjKALm Incongruent right correct Normal 1202.56
605 74 LeftSmaller PercIAExp1 Prime_6A Target_9A IkECLiM leBcJAm Congruent right correct Normal 930.9944
605 75 LeftSmaller PercIAExp1 Prime_4A Target_9N gGmiDjk CdkKjbE Incongruent left correct Normal 858.2562
605 76 LeftSmaller PercIAExp1 Prime_1N Target_4N mceAEJM mhkBKGf Congruent right error Normal 1126.733
605 77 LeftSmaller PercIAExp1 Prime_6N Target_4A edhfIgC feGDlIC Incongruent right correct Normal 928.0991
605 78 LeftSmaller PercIAExp1 Prime_1N Target_6A GClkDLg dhDLeFc Incongruent left correct Normal 1049.512
605 79 LeftSmaller PercIAExp1 Prime_9N Target_4N dkHmFEC kfaELec Incongruent right correct Normal 1672.866
605 80 LeftSmaller PercIAExp1 Prime_1A Target_9N lgLDEIc KGFkDdH Incongruent left correct Normal 1738.152
605 81 LeftLarger PercIBPrac Prime_9A Target_9A jdJeMgH hLbdjDm Congruent right error Normal 1647.059
605 82 LeftLarger PercIBPrac Prime_9A Target_1N kjEmglK eibjmga Incongruent left correct Normal 1012.634
605 83 LeftLarger PercIBPrac Prime_6N Target_9N JIMjKcG bhLJfkm Congruent left correct Normal 1455.433
605 84 LeftLarger PercIBPrac Prime_9A Target_4A lfDbCMK kMGKmJh Incongruent right error Normal 798.1374
605 85 LeftLarger PercIBPrac Prime_9N Target_9A CIiMHmE iDBcHIL Congruent left correct Normal 3344.461
605 86 LeftLarger PercIBPrac Prime_1A Target_6N MLgKlaG MKfahJA Incongruent right correct Normal 2029.494
605 87 LeftLarger PercIBPrac Prime_9A Target_9N IjDkGJm ImLDaAd Congruent left correct Normal 702.9658
605 88 LeftLarger PercIBPrac Prime_6N Target_4A fmCgIFD CLbeAGd Incongruent left correct Normal 2184.936
605 89 LeftLarger PercIBPrac Prime_6A Target_9A IGDkFlB JaMHKBf Congruent left correct Normal 948.0438
605 90 LeftLarger PercIBPrac Prime_9N Target_1A dBDkMgl KmdfajC Incongruent right error Normal 692.3566
605 91 LeftLarger PercIBPrac Prime_6A Target_4A aMidHAJ dlJALFB Incongruent right error Normal 1322.482
605 92 LeftLarger PercIBPrac Prime_1N Target_1N GiEbgKF HhkciBF Congruent left error Normal 738.4841
605 93 LeftLarger PercIBPrac Prime_6A Target_6N FLKedhI MBKCihH Congruent left correct Normal 1209.142
605 94 LeftLarger PercIBPrac Prime_9A Target_4N dliAMhC aLmilBC Incongruent left correct Normal 1753.809
605 95 LeftLarger PercIBPrac Prime_1N Target_9A fgBmdcF dLCGAfe Incongruent right correct Normal 956.6318
605 96 LeftLarger PercIBPrac Prime_1A Target_4N dMEkcBL aLIEFbl Congruent left error Normal 3176.729
605 97 LeftLarger PercIBExp1 Prime_4N Target_1A gLacfiF adKbkGH Congruent right correct Normal 1788.575
605 98 LeftLarger PercIBExp1 Prime_9A Target_4N fHFBabK EaMfkjL Incongruent left correct Normal 1722.26
605 99 LeftLarger PercIBExp1 Prime_1A Target_4A gcGmJCl IiHBgaD Congruent right correct Normal 2297.905
605 100 LeftLarger PercIBExp1 Prime_6N Target_4A AcDEJIh EKmhCcf Incongruent left correct Normal 1086.418
605 101 LeftLarger PercIBExp1 Prime_6N Target_4N BFfGdhJ KMBLjhg Incongruent left correct Normal 744.0288
605 102 LeftLarger PercIBExp1 Prime_4N Target_1N JLMlfGh IbBijEd Congruent right correct Normal 1640.383
605 103 LeftLarger PercIBExp1 Prime_9N Target_1N fBleKah GAJBEdm Incongruent left correct Normal 1218.193
605 104 LeftLarger PercIBExp1 Prime_4A Target_9A fGkbAKM EfLcGga Incongruent left error Normal 1424.848
605 105 LeftLarger PercIBExp1 Prime_6A Target_9A JDeilIb mfIJglF Congruent left correct Normal 963.9192
605 106 LeftLarger PercIBExp1 Prime_6A Target_1N KhiadeA djMgfbB Incongruent left correct Normal 1181.859
605 107 LeftLarger PercIBExp1 Prime_4N Target_4A AIJhBHG alBDGJd Congruent left error Normal 2375.388
605 108 LeftLarger PercIBExp1 Prime_6A Target_6A iaBGeAc hkEfcgM Congruent left correct Normal 2818.571
605 109 LeftLarger PercIBExp1 Prime_6N Target_1N aLJHifc FcJgELh Incongruent right error Normal 1836.917
605 110 LeftLarger PercIBExp1 Prime_4A Target_1A EfCFLKk GiglAbf Congruent left error Normal 1412.022
605 111 LeftLarger PercIBExp1 Prime_1N Target_9A CALfFIi bAGLHme Incongruent right correct Normal 811.3196
605 112 LeftLarger PercIBExp1 Prime_6A Target_4A FbmgDcA fAkJLed Incongruent left correct Normal 707.753
605 113 LeftLarger PercIBExp1 Prime_1A Target_1N EeDKHjh mCbGJDd Congruent right correct Normal 2193.203
605 114 LeftLarger PercIBExp1 Prime_6N Target_9A glCIiab JEacDhi Congruent right error Normal 941.3474
605 115 LeftLarger PercIBExp1 Prime_1A Target_1A mgAbeHF mDCkljE Congruent left error Normal 816.4107
605 116 LeftLarger PercIBExp1 Prime_6A Target_9N iEKJgfh AmacDHk Congruent left correct Normal 648.9194
605 117 LeftLarger PercIBExp1 Prime_4N Target_6N gJMFDai JBmehgk Incongruent right correct Normal 1054.498
605 118 LeftLarger PercIBExp1 Prime_9N Target_6A jElIfKM CjJhaIi Congruent right error Normal 1579.785
605 119 LeftLarger PercIBExp1 Prime_6N Target_6A LcGlaDM gkGcBaJ Congruent left correct Normal 1116.097
605 120 LeftLarger PercIBExp1 Prime_1N Target_1N hHdALme HJgdcEF Congruent left error Normal 2667.267
605 121 LeftLarger PercIBExp1 Prime_1N Target_4A EdmHgMF fcLDIeM Congruent right correct Normal 873.6169
605 122 LeftLarger PercIBExp1 Prime_1A Target_9A hbLHmDE cLKieId Incongruent left error Normal 1679.707
605 123 LeftLarger PercIBExp1 Prime_6A Target_4N iKGCMdb aHDJACG Incongruent left correct Normal 1097.403
605 124 LeftLarger PercIBExp1 Prime_9A Target_6N aLeJIli AGFJcke Congruent right error Normal 813.2701
605 125 LeftLarger PercIBExp1 Prime_6A Target_1A lLdgmID jLDBIid Incongruent left correct Normal 1269.405
605 126 LeftLarger PercIBExp1 Prime_1N Target_9N egbcKBA EmaBHMC Incongruent left error Normal 2044.621
605 127 LeftLarger PercIBExp1 Prime_9A Target_1N EalkGFc eHjAigk Incongruent left correct Normal 748.5138
605 128 LeftLarger PercIBExp1 Prime_4N Target_9A gBchiIk cFkbDEA Incongruent right correct Normal 822.5871
605 129 LeftLarger PercIBExp1 Prime_1A Target_6N IAlcHdE dIEmlji Incongruent right correct Normal 2915.632
605 130 LeftLarger PercIBExp1 Prime_9N Target_9A eljbfIL ebdKChk Congruent left correct Normal 1664.743
605 131 LeftLarger PercIBExp1 Prime_1A Target_4N geMfJLE MFgiJAh Congruent left error Normal 1199.377
605 132 LeftLarger PercIBExp1 Prime_1A Target_9N IKJiaHd KHFgLjM Incongruent left error Normal 1107.535
605 133 LeftLarger PercIBExp1 Prime_9N Target_6N ejaFDhM JICFLHm Congruent left correct Normal 1239.592
605 134 LeftLarger PercIBExp1 Prime_1N Target_6A gBklIhd KDjJEih Incongruent right correct Normal 860.7354
605 135 LeftLarger PercIBExp1 Prime_9A Target_9A DbcLHgi jafLCgE Congruent left correct Normal 731.7673
605 136 LeftLarger PercIBExp1 Prime_4N Target_9N cdCFhLg lCGgfEb Incongruent left error Normal 1223.071
605 137 LeftLarger PercIBExp1 Prime_9A Target_9N DkjHcIJ dfLAFJM Congruent left correct Normal 720.8439
605 138 LeftLarger PercIBExp1 Prime_6N Target_6N AiGcIDE gCabmld Congruent right error Normal 766.2883
605 139 LeftLarger PercIBExp1 Prime_9A Target_1A hIMaDji AaCIMgi Incongruent left correct Normal 806.8173
605 140 LeftLarger PercIBExp1 Prime_9N Target_4A IhFDfCa jHbkDGa Incongruent left correct Normal 757.9884
605 141 LeftLarger PercIBExp1 Prime_6A Target_6N cmfiAJM dmFcLIk Congruent right error Normal 834.3213
605 142 LeftLarger PercIBExp1 Prime_1A Target_6A chBlDFk jkaKHAg Incongruent right correct Normal 544.3649
605 143 LeftLarger PercIBExp1 Prime_4A Target_6A dgefFBh mleGKAb Incongruent right correct Normal 1050.733
605 144 LeftLarger PercIBExp1 Prime_4A Target_1N bdagBkj cGKielM Congruent right correct Normal 664.1511
605 145 LeftLarger PercIBExp1 Prime_1N Target_4N bjMAGci eHBGjMJ Congruent left error Normal 692.4727
605 146 LeftLarger PercIBExp1 Prime_4A Target_4A mLcFabB BKmFcaA Congruent left error Normal 1956.283
605 147 LeftLarger PercIBExp1 Prime_1N Target_6N hjgBCFL gFlEDKL Incongruent right correct Normal 732.2211
605 148 LeftLarger PercIBExp1 Prime_6N Target_1A dmaGIHe JCcdBbK Incongruent left correct Normal 775.3935
605 149 LeftLarger PercIBExp1 Prime_4N Target_6A ieBbmCH eGmhLEC Incongruent right correct Normal 628.6756
605 150 LeftLarger PercIBExp1 Prime_4A Target_9N HgEIhkd JCgkhGi Incongruent left error Normal 654.7441
605 151 LeftLarger PercIBExp1 Prime_4A Target_6N bCeHlcF AMKmFHb Incongruent right correct Normal 1086.903
605 152 LeftLarger PercIBExp1 Prime_6N Target_9N LcHDbCG BakAlfL Congruent left correct Normal 1373.777
605 153 LeftLarger PercIBExp1 Prime_9A Target_6A gDiEfdJ KmlMajF Congruent right error Normal 667.8566
605 154 LeftLarger PercIBExp1 Prime_9N Target_1A EIMaKFf BKHDIhC Incongruent left correct Normal 1142.793
605 155 LeftLarger PercIBExp1 Prime_9N Target_4N IhAfbkj hFEMkfl Incongruent left correct Normal 668.8605
605 156 LeftLarger PercIBExp1 Prime_4N Target_4N LidCacF KJMDGim Congruent right correct Normal 1183.899
605 157 LeftLarger PercIBExp1 Prime_9N Target_9N CLDIgBE FDmlHfb Congruent right error Normal 458.5215
605 158 LeftLarger PercIBExp1 Prime_9A Target_4A EeiIFaL mKfaikb Incongruent left correct Normal 605.7274
605 159 LeftLarger PercIBExp1 Prime_4A Target_4N DEkbagc BGcFdCK Congruent right correct Normal 1511.093
605 160 LeftLarger PercIBExp1 Prime_1N Target_1A AejIacD MBeACcH Congruent right correct Normal 1489.241
606 1 LeftLarger PercIAPrac Prime_4A Target_1N GeJEfiB abfELAm Congruent right correct Late 5391.338
606 2 LeftLarger PercIAPrac Prime_1A Target_6A JLIlKDh ABKhabk Incongruent right correct Normal 4581.16
606 3 LeftLarger PercIAPrac Prime_6A Target_9N LElAbhI mEeMiGd Congruent left correct Normal 1017.65
606 4 LeftLarger PercIAPrac Prime_6N Target_9N BlgmaCK kmlHFIa Congruent left correct Normal 918.0754
606 5 LeftLarger PercIAPrac Prime_9N Target_4A MEDekab IblDcGE Incongruent left correct Normal 1190.701
606 6 LeftLarger PercIAPrac Prime_1N Target_4N clDIkjh JIdjiFA Congruent right correct Normal 1421.423
606 7 LeftLarger PercIAPrac Prime_9N Target_1A KbHchla ABdmiKh Incongruent left correct Normal 2716.829
606 8 LeftLarger PercIAPrac Prime_4A Target_4A gLAHcEK IdbDhFk Congruent left error Normal 653.0633
606 9 LeftLarger PercIAPrac Prime_4N Target_1N MFHaKeE adiIkhM Congruent right correct Normal 1549.724
606 10 LeftLarger PercIAPrac Prime_6A Target_6N fbIgJMB iCckbMI Congruent right error Normal 1521.648
606 11 LeftLarger PercIAPrac Prime_1N Target_6N LlmfDec cDEbaeJ Incongruent right correct Normal 897.7296
606 12 LeftLarger PercIAPrac Prime_9A Target_9N ehEJHcD JAGedlD Congruent left correct Normal 3012.855
606 13 LeftLarger PercIAPrac Prime_6A Target_6A JFbheiL gBHeMKh Congruent left correct Normal 945.955
606 14 LeftLarger PercIAPrac Prime_6A Target_1N dMFhklj DICdhcl Incongruent left correct Normal 1236.408
606 15 LeftLarger PercIAPrac Prime_1N Target_4A mlgKMLD blGmdkF Congruent left error Normal 631.3227
606 16 LeftLarger PercIAPrac Prime_6N Target_4A aLfIChc jikBbcD Incongruent left correct Normal 657.2813
606 17 LeftLarger PercIAExp1 Prime_1N Target_4A CELaelj aECFecd Congruent left error Normal 746.3463
606 18 LeftLarger PercIAExp1 Prime_6A Target_6A fbKDcgE cihfjEI Congruent left correct Normal 772.608
606 19 LeftLarger PercIAExp1 Prime_4A Target_6N ADeGiam LehjKGB Incongruent right correct Normal 1073.752
606 20 LeftLarger PercIAExp1 Prime_9A Target_1N hCmDkHa BJdiKmb Incongruent left correct Normal 2340.866
606 21 LeftLarger PercIAExp1 Prime_4N Target_9A JHbBGdI JGBemFH Incongruent left error Normal 2186.34
606 22 LeftLarger PercIAExp1 Prime_1A Target_6N HKjacEG kCKeJfL Incongruent right correct Normal 884.5688
606 23 LeftLarger PercIAExp1 Prime_9A Target_9A dBieACI LiBfcAE Congruent left correct Normal 818.9982
606 24 LeftLarger PercIAExp1 Prime_4N Target_4A mdKgeEM BbalFKk Congruent left error Normal 709.1668
606 25 LeftLarger PercIAExp1 Prime_6A Target_4A lKkImDJ LgkFbDm Incongruent left correct Normal 529.613
606 26 LeftLarger PercIAExp1 Prime_6N Target_9N lEgJbIk JFGimMf Congruent right error Normal 699.6216
606 27 LeftLarger PercIAExp1 Prime_4A Target_9N mkEjCAa geADcfI Incongruent right correct Normal 1113.162
606 28 LeftLarger PercIAExp1 Prime_9A Target_6A heGMkbg McemHdG Congruent left correct Normal 953.4204
606 29 LeftLarger PercIAExp1 Prime_6N Target_6A GhEcBdM LEhfGAj Congruent left correct Normal 620.0375
606 30 LeftLarger PercIAExp1 Prime_4N Target_4N clCaGFg AjEbaHh Congruent left error Normal 816.8845
606 31 LeftLarger PercIAExp1 Prime_1A Target_1N KdaJLeg eGmcMiE Congruent left error Normal 885.9551
606 32 LeftLarger PercIAExp1 Prime_1A Target_9N KfjaJMb JcfFDkl Incongruent left error Normal 1445.543
606 33 LeftLarger PercIAExp1 Prime_6N Target_4N lFabIef cEeBjMa Incongruent left correct Normal 775.2327
606 34 LeftLarger PercIAExp1 Prime_1N Target_9N adfHjbg hJLjMIf Incongruent right correct Normal 1499.246
606 35 LeftLarger PercIAExp1 Prime_4A Target_1N feFLhDk hMBlLKb Congruent left error Normal 872.0519
606 36 LeftLarger PercIAExp1 Prime_4A Target_4N IBJehMH JHFKeia Congruent left error Normal 584.8636
606 37 LeftLarger PercIAExp1 Prime_1N Target_6A JDljFId kbaElgH Incongruent right correct Normal 713.184
606 38 LeftLarger PercIAExp1 Prime_1N Target_4N almFjGD ADFdebM Congruent left error Normal 698.1425
606 39 LeftLarger PercIAExp1 Prime_6A Target_4N mMaiLIg cBDAklm Incongruent left correct Normal 522.7255
606 40 LeftLarger PercIAExp1 Prime_9A Target_6N jlIEciM kjlciBa Congruent left correct Normal 1071.284
606 41 LeftLarger PercIAExp1 Prime_9A Target_4N mDaFJIE cFhJBlL Incongruent left correct Normal 1016.831
606 42 LeftLarger PercIAExp1 Prime_9N Target_6A gMfjJLC khGgAiF Congruent right error Normal 1417.725
606 43 LeftLarger PercIAExp1 Prime_6A Target_9A blIacdg ADabCJK Congruent left correct Normal 1428.886
606 44 LeftLarger PercIAExp1 Prime_4N Target_1A LiAJlgd iGJKMDH Congruent left error Normal 1288.895
606 45 LeftLarger PercIAExp1 Prime_1A Target_6A kLjEIgJ MfhkABi Incongruent right correct Normal 908.187
606 46 LeftLarger PercIAExp1 Prime_4N Target_1N EFiMLJh AJijDbF Congruent right correct Normal 1310.49
606 47 LeftLarger PercIAExp1 Prime_4A Target_4A mBkclgJ HmkEhaI Congruent left error Normal 458.0717
606 48 LeftLarger PercIAExp1 Prime_6N Target_9A CfgJDFH jIbfkJi Congruent left correct Normal 499.8429
606 49 LeftLarger PercIAExp1 Prime_1N Target_6N ILmKick BdcMmik Incongruent right correct Normal 1188.249
606 50 LeftLarger PercIAExp1 Prime_6A Target_1N MKblgAf hKlaFCM Incongruent left correct Normal 1326.44
606 51 LeftLarger PercIAExp1 Prime_9N Target_4N HeIACEi cKLDejg Incongruent left correct Normal 755.9858
606 52 LeftLarger PercIAExp1 Prime_9A Target_1A aHcJBmf LleKFGc Incongruent left correct Normal 952.314
606 53 LeftLarger PercIAExp1 Prime_1N Target_1A iCmjBgL hKcEDJF Congruent left error Normal 524.6883
606 54 LeftLarger PercIAExp1 Prime_1A Target_4N lAeaGMd miBLJfh Congruent left error Normal 797.1128
606 55 LeftLarger PercIAExp1 Prime_6N Target_6N kgeFiMH aBGkfdg Congruent right error Normal 634.9124
606 56 LeftLarger PercIAExp1 Prime_4N Target_6N GmcLAKJ DBbkGHc Incongruent right correct Normal 1034.332
606 57 LeftLarger PercIAExp1 Prime_9A Target_4A aMcLkKJ GDhkjgd Incongruent left correct Normal 589.7602
606 58 LeftLarger PercIAExp1 Prime_4N Target_6A MlGaKCI khJcBMg Incongruent right correct Normal 797.5427
606 59 LeftLarger PercIAExp1 Prime_9A Target_9N dDJFjef hIbBCgK Congruent left correct Normal 850.4643
606 60 LeftLarger PercIAExp1 Prime_9N Target_4A FeMDIhC DFgjLhJ Incongruent left correct Normal 608.5347
606 61 LeftLarger PercIAExp1 Prime_6N Target_1N mdlFfkA CfBbjmF Incongruent left correct Normal 502.4499
606 62 LeftLarger PercIAExp1 Prime_9N Target_6N bakAFGM EjGfhgM Congruent left correct Normal 1957.389
606 63 LeftLarger PercIAExp1 Prime_4A Target_9A JbGALMk kCaeiBG Incongruent left error Normal 961.9191
606 64 LeftLarger PercIAExp1 Prime_1A Target_9A flEFecb BieEbDd Incongruent right correct Normal 903.1278
606 65 LeftLarger PercIAExp1 Prime_1A Target_1A EFegDcK KCHlcDB Congruent left error Normal 618.6525
606 66 LeftLarger PercIAExp1 Prime_4A Target_6A eIBiAjl lFjEiMI Incongruent right correct Normal 597.2419
606 67 LeftLarger PercIAExp1 Prime_6A Target_6N EkdKBGa hKgjcmi Congruent left correct Normal 2554.578
606 68 LeftLarger PercIAExp1 Prime_9N Target_1N gflGdeB IHJeFBE Incongruent left correct Normal 535.9797
606 69 LeftLarger PercIAExp1 Prime_6N Target_4A bijCBMh JDMkFjI Incongruent left correct Normal 551.2247
606 70 LeftLarger PercIAExp1 Prime_1A Target_4A fcdeHMj hbcKFiJ Congruent left error Normal 964.666
606 71 LeftLarger PercIAExp1 Prime_9N Target_9N CJkmDib ihKJcaA Congruent left correct Normal 823.8244
606 72 LeftLarger PercIAExp1 Prime_6A Target_1A caiAjhg mdAleGj Incongruent left correct Normal 445.1246
606 73 LeftLarger PercIAExp1 Prime_9N Target_1A BbGieEA DGgIlmi Incongruent left correct Normal 544.4807
606 74 LeftLarger PercIAExp1 Prime_6N Target_1A GLamikH lMkgfia Incongruent left correct Normal 377.3368
606 75 LeftLarger PercIAExp1 Prime_1N Target_1N eMigjDJ FfDAlCH Congruent right correct Normal 674.2508
606 76 LeftLarger PercIAExp1 Prime_9N Target_9A cEMmFGf hJdigEm Congruent right error Normal 480.1077
606 77 LeftLarger PercIAExp1 Prime_4N Target_9N kjEGaiA AdLFfIH Incongruent right correct Normal 378.1646
606 78 LeftLarger PercIAExp1 Prime_4A Target_1A CbcFAlK iMBmGbF Congruent left error Normal 453.5795
606 79 LeftLarger PercIAExp1 Prime_6A Target_9N ihLGlME LemKADJ Congruent left correct Normal 419.7504
606 80 LeftLarger PercIAExp1 Prime_1N Target_9A ghCkAlf hEKfLig Incongruent right correct Normal 477.6758
606 81 LeftSmaller PercIBPrac Prime_6A Target_6A IMGmflK fhdLklE Congruent right correct Normal 1993.727
606 82 LeftSmaller PercIBPrac Prime_9A Target_1A DIbKlad ACicKbH Incongruent right correct Normal 627.0867
606 83 LeftSmaller PercIBPrac Prime_1N Target_1A ghDbkBl dMkKmGD Congruent right error Normal 630.1077
606 84 LeftSmaller PercIBPrac Prime_9A Target_6A GAhHicm ijmFKHL Congruent right correct Normal 507.913
606 85 LeftSmaller PercIBPrac Prime_4A Target_9N diJAEFg KcjGJDi Incongruent left correct Normal 869.5014
606 86 LeftSmaller PercIBPrac Prime_1A Target_6N fgBDMEH gjJhCMH Incongruent left correct Late 6778.898
606 87 LeftSmaller PercIBPrac Prime_6A Target_9A EgaClBb IFegkHD Congruent right correct Normal 1361.514
606 88 LeftSmaller PercIBPrac Prime_6N Target_1A MAbGLIl cmCgMHa Incongruent right correct Normal 1010.911
606 89 LeftSmaller PercIBPrac Prime_4N Target_9A JdiDKhk IhHlKjd Incongruent left correct Normal 776.5245
606 90 LeftSmaller PercIBPrac Prime_9N Target_9N bDkGLhl IBMLdcF Congruent right correct Normal 1062.537
606 91 LeftSmaller PercIBPrac Prime_6N Target_4N FIdMJjH FEkfhdH Incongruent right correct Normal 1303.093
606 92 LeftSmaller PercIBPrac Prime_6A Target_6N Ejkbaml IGefcid Congruent left error Normal 1001.985
606 93 LeftSmaller PercIBPrac Prime_1N Target_6A GLhEdbM AfKGbDH Incongruent right error Normal 928.1657
606 94 LeftSmaller PercIBPrac Prime_6A Target_1N lGdhIib eMGImhJ Incongruent right correct Normal 1284.891
606 95 LeftSmaller PercIBPrac Prime_6N Target_9A EFIgjhA klCMadH Congruent left error Normal 1326.307
606 96 LeftSmaller PercIBPrac Prime_6N Target_6N AEgDFiI KMfCdHj Congruent left error Normal 4296.453
606 97 LeftSmaller PercIBExp1 Prime_1N Target_1A KCbDjgd ilFhmkJ Congruent right error Normal 1251.537
606 98 LeftSmaller PercIBExp1 Prime_9A Target_6N CfdGLhM JLEkMjB Congruent right correct Normal 744.2611
606 99 LeftSmaller PercIBExp1 Prime_6A Target_4N HdBKChM fciECgj Incongruent left error Normal 656.6395
606 100 LeftSmaller PercIBExp1 Prime_6A Target_4A BeDkiFc lADIbEk Incongruent right correct Normal 1252.586
606 101 LeftSmaller PercIBExp1 Prime_9N Target_4N EeGDAMf HFfImjM Incongruent left error Normal 819.6325
606 102 LeftSmaller PercIBExp1 Prime_1N Target_4A lKdjgGh BLhMKkG Congruent left correct Normal 779.118
606 103 LeftSmaller PercIBExp1 Prime_6N Target_1N GFeHKDb JKjCBmG Incongruent right correct Normal 817.3283
606 104 LeftSmaller PercIBExp1 Prime_4N Target_9N GFhjfml HfmAkIi Incongruent right error Normal 2998.786
606 105 LeftSmaller PercIBExp1 Prime_4A Target_9N MDjAmKJ imegJMB Incongruent left correct Normal 1442.094
606 106 LeftSmaller PercIBExp1 Prime_4A Target_9A AJDjdEe IbcKEif Incongruent left correct Normal 1118.103
606 107 LeftSmaller PercIBExp1 Prime_4N Target_6N ebGFCkI HaiAekI Incongruent left correct Normal 1138.561
606 108 LeftSmaller PercIBExp1 Prime_4A Target_6A LmiCGja dcjBeFM Incongruent left correct Normal 636.322
606 109 LeftSmaller PercIBExp1 Prime_9N Target_6A gcGbAHj LekjlGJ Congruent right correct Normal 580.7749
606 110 LeftSmaller PercIBExp1 Prime_9A Target_1A cJmLgbG KdeaGkl Incongruent right correct Normal 1192.584
606 111 LeftSmaller PercIBExp1 Prime_6A Target_6A Gcgedlb gFBaAcD Congruent right correct Normal 2041.631
606 112 LeftSmaller PercIBExp1 Prime_9A Target_1N fjGalKI GAfmkBL Incongruent right correct Normal 893.2979
606 113 LeftSmaller PercIBExp1 Prime_9N Target_1A cgMmhHj EMmFCgk Incongruent right correct Normal 847.2546
606 114 LeftSmaller PercIBExp1 Prime_9N Target_6N fDAgHci giDLkCh Congruent right correct Normal 1775.026
606 115 LeftSmaller PercIBExp1 Prime_1N Target_1N KDGmFBM DLdkmHe Congruent right error Normal 788.0973
606 116 LeftSmaller PercIBExp1 Prime_1A Target_9N heBdfAk fdKgICm Incongruent right error Normal 1294.053
606 117 LeftSmaller PercIBExp1 Prime_6N Target_9A MBDmAlf GfjFaDA Congruent right correct Normal 1032.969
606 118 LeftSmaller PercIBExp1 Prime_1A Target_1A IjLciDa hiJmLDK Congruent right error Normal 714.1545
606 119 LeftSmaller PercIBExp1 Prime_1N Target_4N FchKGBi JLbgHMa Congruent right error Normal 1521.549
606 120 LeftSmaller PercIBExp1 Prime_4N Target_6A fMHDJiE DGAClbc Incongruent left correct Normal 395.3963
606 121 LeftSmaller PercIBExp1 Prime_1N Target_9N jAmMdef khFHJIj Incongruent left correct Normal 675.7907
606 122 LeftSmaller PercIBExp1 Prime_9A Target_9A aCfAkcg dijkHfB Congruent right correct Normal 1177.952
606 123 LeftSmaller PercIBExp1 Prime_1A Target_1N ieDFAgh HAGBcCJ Congruent left correct Normal 1355.015
606 124 LeftSmaller PercIBExp1 Prime_6N Target_9N fljdkJM GCafgJi Congruent right correct Normal 1532.014
606 125 LeftSmaller PercIBExp1 Prime_6A Target_9N MhGDcFl HjlMgcA Congruent right correct Normal 794.6362
606 126 LeftSmaller PercIBExp1 Prime_4N Target_4A jcagmIi HdMBIkF Congruent left correct Normal 802.2797
606 127 LeftSmaller PercIBExp1 Prime_4A Target_6N jfFbHBI IeajGAb Incongruent right error Normal 1180.843
606 128 LeftSmaller PercIBExp1 Prime_6A Target_9A lFBgGEC MgiaHfG Congruent right correct Normal 773.9093
606 129 LeftSmaller PercIBExp1 Prime_4N Target_4N dMahgfI dHgcBDE Congruent left correct Normal 861.5816
606 130 LeftSmaller PercIBExp1 Prime_1A Target_9A hHcbkFg HfjBmAG Incongruent left correct Normal 526.5085
606 131 LeftSmaller PercIBExp1 Prime_1N Target_6A DdEHeLF FGJAEdK Incongruent left correct Normal 2595.51
606 132 LeftSmaller PercIBExp1 Prime_1A Target_6N kMECdma CmbgiIK Incongruent right error Normal 1288.59
606 133 LeftSmaller PercIBExp1 Prime_4A Target_1A gKEHkah hfJkcbg Congruent right error Normal 817.7879
606 134 LeftSmaller PercIBExp1 Prime_6N Target_6N ldHgmKi DkijGfF Congruent left error Normal 1412.332
606 135 LeftSmaller PercIBExp1 Prime_4N Target_1A EBhMdmc lGKedIF Congruent left correct Normal 993.7924
606 136 LeftSmaller PercIBExp1 Prime_1A Target_4A FegLDHa ADaHBhG Congruent right error Normal 955.3787
606 137 LeftSmaller PercIBExp1 Prime_6N Target_4N BmcDjJG AIaMkmj Incongruent right correct Normal 805.3863
606 138 LeftSmaller PercIBExp1 Prime_6A Target_1N khgmjLH KAdfhJk Incongruent right correct Normal 971.308
606 139 LeftSmaller PercIBExp1 Prime_9N Target_4A DIgLGlk aLDHMKd Incongruent right correct Normal 798.7396
606 140 LeftSmaller PercIBExp1 Prime_9N Target_9A kcMbJdK CdlkEDh Congruent right correct Normal 1487.384
606 141 LeftSmaller PercIBExp1 Prime_6N Target_6A HfmEMah jIDgChM Congruent left error Normal 569.0922
606 142 LeftSmaller PercIBExp1 Prime_6N Target_1A cJkDMbg LEKmFAe Incongruent right correct Normal 589.6144
606 143 LeftSmaller PercIBExp1 Prime_4N Target_9A AaCdHJB cGLhIim Incongruent left correct Normal 497.9094
606 144 LeftSmaller PercIBExp1 Prime_9N Target_1N IBjdAiM akBHmJb Incongruent right correct Normal 742.0762
606 145 LeftSmaller PercIBExp1 Prime_9A Target_6A fCeFakA JGjMIFA Congruent right correct Normal 1052.018
606 146 LeftSmaller PercIBExp1 Prime_9A Target_4N ehcKLGD KmDieAj Incongruent right correct Normal 1396.401
606 147 LeftSmaller PercIBExp1 Prime_4A Target_4A KaIjiBf BIaLdhA Congruent right error Normal 3068.924
606 148 LeftSmaller PercIBExp1 Prime_4N Target_1N jBkJICe ADFJCGe Congruent left correct Normal 683.2194
606 149 LeftSmaller PercIBExp1 Prime_6A Target_6N cagFhkj mLGJKjH Congruent right correct Normal 800.6296
606 150 LeftSmaller PercIBExp1 Prime_6A Target_1A BkjCfHD JimaljH Incongruent right correct Normal 2791.888
606 151 LeftSmaller PercIBExp1 Prime_1A Target_4N dCGAefH eKLkafh Congruent left correct Normal 2455.973
606 152 LeftSmaller PercIBExp1 Prime_9A Target_4A feHGAKB BfmbCiK Incongruent right correct Normal 926.8312
606 153 LeftSmaller PercIBExp1 Prime_1N Target_9A eJFDMkm IDEbKFc Incongruent left correct Normal 776.9948
606 154 LeftSmaller PercIBExp1 Prime_1N Target_6N EhbfJHg jGdaHml Incongruent left correct Normal 3497.131
606 155 LeftSmaller PercIBExp1 Prime_1A Target_6A iemMHCJ FlAiIJM Incongruent left correct Normal 871.6424
606 156 LeftSmaller PercIBExp1 Prime_9N Target_9N lhigBDM EdkHmac Congruent right correct Normal 998.9369
