sub trial_no group_type block_type prime target mask1 mask2 congruency key_press key_error time_error RT
201 1 LeftSmaller PercCAPrac Prime_6N Target_4A EcaLgBe hJcAiHG Incongruent right correct Normal 2070.349
201 2 LeftSmaller PercCAPrac Prime_6A Target_6A GeiMmJj dFGhiem Congruent right error Normal 885.5635
201 3 LeftSmaller PercCAPrac Prime_4N Target_6N BGJeKLm HaEgjKD Incongruent left error Normal 1303.98
201 4 LeftSmaller PercCAPrac Prime_6A Target_1N mCldAGg DEgMIGa Incongruent right correct Normal 607.9164
201 5 LeftSmaller PercCAPrac Prime_9A Target_9A dMmClIf aDICbdh Congruent right error Normal 964.803
201 6 LeftSmaller PercCAPrac Prime_4A Target_1N GajBdLK jKeMEaD Congruent left correct Normal 604.6444
201 7 LeftSmaller PercCAPrac Prime_1N Target_4N gAJFGfB dKebAHB Congruent right error Normal 997.79
201 8 LeftSmaller PercCAPrac Prime_1N Target_6N khiejJB GhBEdDM Incongruent left error Normal 641.3356
201 9 LeftSmaller PercCAPrac Prime_4N Target_1A kcjdhMl CbmLfhk Congruent right error Normal 1159.711
201 10 LeftSmaller PercCAPrac Prime_1A Target_9A gHcGfJK DJeKlIG Incongruent left error Normal 941.8087
201 11 LeftSmaller PercCAPrac Prime_1A Target_1N GmkEhlb bHMmEJh Congruent left correct Normal 1358.048
201 12 LeftSmaller PercCAPrac Prime_9N Target_9A fBegcIL diaJkHb Congruent right error Normal 770.5533
201 13 LeftSmaller PercCAPrac Prime_4A Target_9N MKGljiI DEliCeh Incongruent right correct Normal 1032.948
201 14 LeftSmaller PercCAPrac Prime_9A Target_4A mhEKkaL ICFBJfA Incongruent left error Normal 592.0193
201 15 LeftSmaller PercCAPrac Prime_4N Target_1N MfFLHEh eMcLFGg Congruent right error Normal 1274.292
201 16 LeftSmaller PercCAPrac Prime_9A Target_4N liGbLCe DihAeLB Incongruent left error Normal 735.8151
201 17 LeftSmaller PercCAExp1 Prime_9N Target_4N KIJEcFM GJigMcf Incongruent right correct Normal 476.0856
201 18 LeftSmaller PercCAExp1 Prime_4A Target_6N JBCaFLk LefgMFE Incongruent right correct Normal 1074.251
201 19 LeftSmaller PercCAExp1 Prime_9A Target_4N bhLgakI BchDKlL Incongruent right correct Normal 1721.561
201 20 LeftSmaller PercCAExp1 Prime_4A Target_1A fHjJkie emcKEIJ Congruent right error Normal 1062.764
201 21 LeftSmaller PercCAExp1 Prime_9A Target_6N BkcKjHG DakJGme Congruent left correct Normal 645.5575
201 22 LeftSmaller PercCAExp1 Prime_9N Target_4A LClbMjJ HdAbDCe Incongruent right correct Normal 1353.962
201 23 LeftSmaller PercCAExp1 Prime_6A Target_1N jDkdbgB dLkembB Incongruent left error Normal 1007.254
201 24 LeftSmaller PercCAExp1 Prime_9A Target_4A bfFjBEM emhBCfF Incongruent right correct Normal 1185.695
201 25 LeftSmaller PercCAExp1 Prime_4N Target_9A LHFeGfg eCHdFmk Incongruent left error Normal 1095.974
201 26 LeftSmaller PercCAExp1 Prime_4A Target_4N jeilmgK aKHkMEj Congruent left correct Normal 1057.038
201 27 LeftSmaller PercCAExp1 Prime_1N Target_4N ieklFcA MGClfKh Congruent right error Normal 739.8376
201 28 LeftSmaller PercCAExp1 Prime_6N Target_4N hmidgJc lHbEBJM Incongruent right correct Normal 681.2679
201 29 LeftSmaller PercCAExp1 Prime_6N Target_6N LgGlMKh EAJcGjl Congruent right error Normal 4526.967
201 30 LeftSmaller PercCAExp1 Prime_4N Target_4A jLJFefh cJdmkCF Congruent left correct Normal 1349.244
201 31 LeftSmaller PercCAExp1 Prime_1A Target_4A eJAfmID leGiCjE Congruent left correct Normal 614.2311
201 32 LeftSmaller PercCAExp1 Prime_1A Target_9A AgaKHih KjkMmfA Incongruent right correct Normal 890.7574
201 33 LeftSmaller PercCAExp1 Prime_6A Target_4A diDCfHA LhJBjKe Incongruent left error Normal 1260.44
201 34 LeftSmaller PercCAExp1 Prime_6A Target_9N gGCLjKJ FgcafLm Congruent left correct Normal 1078.376
201 35 LeftSmaller PercCAExp1 Prime_6N Target_1N fcMgjmI ldaeGJD Incongruent right correct Normal 668.045
201 36 LeftSmaller PercCAExp1 Prime_1N Target_4A ikcFlCK FEmCkIJ Congruent left correct Normal 2604.192
201 37 LeftSmaller PercCAExp1 Prime_9N Target_1N GijaklK gafBACG Incongruent left error Normal 772.3106
201 38 LeftSmaller PercCAExp1 Prime_6N Target_9A gMcmEdB cGaHMmB Congruent right error Late 6491.386
201 39 LeftSmaller PercCAExp1 Prime_4N Target_1A EjFLdkD CKaEgdH Congruent left correct Normal 3249.333
201 40 LeftSmaller PercCAExp1 Prime_6N Target_1A EIjJmhf AMgJFmi Incongruent right correct Normal 929.0317
201 41 LeftSmaller PercCAExp1 Prime_4A Target_1N FjbdlGH lkmCjBc Congruent right error Normal 764.7573
201 42 LeftSmaller PercCAExp1 Prime_9N Target_6N JmifjEF lKHbaEc Congruent left correct Normal 760.1772
201 43 LeftSmaller PercCAExp1 Prime_9N Target_9A ihmIKCM CiMJDcE Congruent left correct Normal 1099.338
201 44 LeftSmaller PercCAExp1 Prime_1A Target_9N CbcFHhJ eEJBHIm Incongruent right correct Normal 492.4098
201 45 LeftSmaller PercCAExp1 Prime_1N Target_1A CfMgedD dbJGjKh Congruent right error Normal 827.552
201 46 LeftSmaller PercCAExp1 Prime_4N Target_9N bjkLhAg bAHhIdK Incongruent left error Normal 403.3774
201 47 LeftSmaller PercCAExp1 Prime_6N Target_9N aGDihIl AEkcMCB Congruent right error Late 5023.859
201 48 LeftSmaller PercCAExp1 Prime_4N Target_6N CdGkHFB mdADFaJ Incongruent right correct Normal 698.1466
201 49 LeftSmaller PercCAExp1 Prime_9N Target_9N HGbfjeL MfgACaF Congruent left correct Normal 3860.256
201 50 LeftSmaller PercCAExp1 Prime_4A Target_6A cJFLmfa KfMAhLm Incongruent right correct Normal 844.1208
201 51 LeftSmaller PercCAExp1 Prime_4N Target_1N CEjFkcH HlcGkfL Congruent right error Normal 555.5418
201 52 LeftSmaller PercCAExp1 Prime_1A Target_4N DJgmjhf LKjkbfF Congruent left correct Normal 406.0184
201 53 LeftSmaller PercCAExp1 Prime_9A Target_1A jMCiFeH aIedAif Incongruent right correct Normal 1449.055
201 54 LeftSmaller PercCAExp1 Prime_1A Target_6A fCehDFB fCAlGFg Incongruent left error Normal 1104.719
201 55 LeftSmaller PercCAExp1 Prime_1A Target_6N FhHcJID kHghibj Incongruent left error Normal 882.0247
201 56 LeftSmaller PercCAExp1 Prime_9A Target_6A JmefCkA gljdhAL Congruent right error Normal 603.6247
201 57 LeftSmaller PercCAExp1 Prime_1N Target_9A BmEjFhK FjgiGHJ Incongruent left error Normal 870.1091
201 58 LeftSmaller PercCAExp1 Prime_1N Target_1N HgcmEMb ELhfgJb Congruent right error Normal 551.9037
201 59 LeftSmaller PercCAExp1 Prime_4A Target_9A kfMIJaG KmJbdaL Incongruent left error Normal 626.5819
201 60 LeftSmaller PercCAExp1 Prime_4A Target_4A LfDKiJg IidJGga Congruent left correct Normal 3411.586
201 61 LeftSmaller PercCAExp1 Prime_6A Target_9A DCFbBEg amBCFjD Congruent left correct Normal 1040.457
201 62 LeftSmaller PercCAExp1 Prime_6A Target_6A fGLeFjc kEdGALI Congruent right error Normal 896.3945
201 63 LeftSmaller PercCAExp1 Prime_1N Target_6A fGELmKg GAebdiE Incongruent right correct Normal 1286.803
201 64 LeftSmaller PercCAExp1 Prime_1A Target_1A dbFAhil ADMlbFc Congruent right error Normal 1013.46
201 65 LeftSmaller PercCAExp1 Prime_1N Target_9N LdhMafA kjKMhcF Incongruent left error Normal 989.1528
201 66 LeftSmaller PercCAExp1 Prime_4N Target_4N mEAKfeh ALMaDFc Congruent right error Normal 678.6163
201 67 LeftSmaller PercCAExp1 Prime_6N Target_6A HCijDbk AkchdbB Congruent right error Normal 1114.527
201 68 LeftSmaller PercCAExp1 Prime_9A Target_9A LgDhIKf ALkaJji Congruent right error Normal 716.2834
201 69 LeftSmaller PercCAExp1 Prime_1A Target_1N mjEHbgi jfDkmbh Congruent left correct Normal 4188.195
201 70 LeftSmaller PercCAExp1 Prime_6A Target_4N MAElkJf iCegbJA Incongruent right correct Normal 678.9419
201 71 LeftSmaller PercCAExp1 Prime_6N Target_4A KGCMEFl LJBIhMD Incongruent left error Normal 670.5083
201 72 LeftSmaller PercCAExp1 Prime_1N Target_6N dkHBFcl LDKfiFd Incongruent right correct Normal 683.1535
201 73 LeftSmaller PercCAExp1 Prime_4A Target_9N BlLHDJm HjeLigh Incongruent left error Normal 720.4504
201 74 LeftSmaller PercCAExp1 Prime_9N Target_6A dHCkelM LJIFihA Congruent left correct Normal 550.1436
201 75 LeftSmaller PercCAExp1 Prime_6A Target_1A afEHDim CJgceLd Incongruent right correct Normal 458.9416
201 76 LeftSmaller PercCAExp1 Prime_9A Target_9N dkhHjGI gdKDiEk Congruent left correct Normal 874.4609
201 77 LeftSmaller PercCAExp1 Prime_6A Target_6N bcjGfJF fdAbBlF Congruent left correct Normal 740.402
201 78 LeftSmaller PercCAExp1 Prime_4N Target_6A ImdGflM DeiGJjm Incongruent right correct Normal 1102.293
201 79 LeftSmaller PercCAExp1 Prime_9A Target_1N jHGKcFb gEmBaCd Incongruent right correct Normal 1007.255
201 80 LeftSmaller PercCAExp1 Prime_9N Target_1A ejfhkJC jLbIHda Incongruent right correct Normal 1087.175
201 81 LeftLarger PercCBPrac Prime_1N Target_9A aMjBHCm iADeLGI Incongruent right error Normal 666.7686
201 82 LeftLarger PercCBPrac Prime_6A Target_6N fhMliDK kbJjeEd Congruent left error Normal 898.1875
201 83 LeftLarger PercCBPrac Prime_1N Target_4A dCmeEjI acLAECD Congruent right correct Normal 202.3837
201 84 LeftLarger PercCBPrac Prime_4A Target_1A dmAaFBK LHKGlDC Congruent right correct Normal 504.1527
201 85 LeftLarger PercCBPrac Prime_4N Target_1A KbihALE JALDcgl Congruent left error Normal 546.4331
201 86 LeftLarger PercCBPrac Prime_9A Target_9A iLmJKfk gGiBElH Congruent left error Normal 3155.451
201 87 LeftLarger PercCBPrac Prime_4N Target_4A bGaCIhD iGjfJhE Congruent left error Normal 1434.821
201 88 LeftLarger PercCBPrac Prime_9A Target_9N dEAMfDJ MjcigKB Congruent right correct Normal 670.6608
201 89 LeftLarger PercCBPrac Prime_9A Target_1N liLcGAb mCHeMJb Incongruent left correct Normal 1436.537
201 90 LeftLarger PercCBPrac Prime_1A Target_9N BgAlbHe cBIFKAh Incongruent left correct Normal 3724.693
201 91 LeftLarger PercCBPrac Prime_1N Target_1N BEhJDik cLialbg Congruent left error Normal 1382.452
201 92 LeftLarger PercCBPrac Prime_1A Target_6N ImbGlLe dAlIMhD Incongruent right error Normal 956.6705
201 93 LeftLarger PercCBPrac Prime_4A Target_6A iGMIfmA JkcdbDG Incongruent right error Normal 656.0375
201 94 LeftLarger PercCBPrac Prime_9N Target_1A iEDjbKd aEjhgbc Incongruent left correct Normal 151.0553
201 95 LeftLarger PercCBPrac Prime_6N Target_1N MegIhjd mgAGjlk Incongruent right error Normal 518.506
201 96 LeftLarger PercCBPrac Prime_1N Target_4N aIjFDlH BbgmeDJ Congruent left error Normal 202.4275
201 97 LeftLarger PercCBExp1 Prime_6N Target_1N DdfigGC FjkiJlD Incongruent left correct Normal 829.8103
201 98 LeftLarger PercCBExp1 Prime_9N Target_4A hGgFbai dFmfBML Incongruent right error Normal 506.3405
201 99 LeftLarger PercCBExp1 Prime_6A Target_1A bckCiDG ijKHJBI Incongruent left correct Normal 674.7687
201 100 LeftLarger PercCBExp1 Prime_1A Target_6A AbJkHIG gGECHji Incongruent right error Normal 537.6584
201 101 LeftLarger PercCBExp1 Prime_4A Target_4A eMdmBlC GFjehLI Congruent right correct Normal 804.1205
201 102 LeftLarger PercCBExp1 Prime_9A Target_4A IKchAJC afDeBji Incongruent left correct Normal 166.156
201 103 LeftLarger PercCBExp1 Prime_4N Target_1A beDjEaK AbgHEKf Congruent left error Normal 390.8315
201 104 LeftLarger PercCBExp1 Prime_4N Target_6N gijkMGe CFhgHjA Incongruent right error Normal 782.5521
201 105 LeftLarger PercCBExp1 Prime_9N Target_9A MhgGKbH EkjhcMe Congruent right correct Normal 875.468
201 106 LeftLarger PercCBExp1 Prime_1A Target_4N bfaAmeD kMLChEe Congruent left error Normal 357.0897
201 107 LeftLarger PercCBExp1 Prime_4A Target_6A lhcGAgk AkHICdG Incongruent left correct Normal 449.2546
201 108 LeftLarger PercCBExp1 Prime_9N Target_9N EgBahFK iLaFJKm Congruent left error Normal 1619.004
201 109 LeftLarger PercCBExp1 Prime_4A Target_1N CkEMlFe jAahfBk Congruent right correct Normal 951.3241
201 110 LeftLarger PercCBExp1 Prime_9N Target_6A eBFfKdM KiFGCDf Congruent left error Normal 1138.144
201 111 LeftLarger PercCBExp1 Prime_1A Target_6N KGJlaEH cfLbimC Incongruent left correct Normal 1024.778
201 112 LeftLarger PercCBExp1 Prime_1A Target_9A FhGaegK EhjkIDe Incongruent right error Normal 615.2335
201 113 LeftLarger PercCBExp1 Prime_9N Target_4N jiLDFJg LalefHm Incongruent left correct Normal 929.6177
201 114 LeftLarger PercCBExp1 Prime_6A Target_9A LKaJBfG GDgIKAL Congruent right correct Normal 487.9731
201 115 LeftLarger PercCBExp1 Prime_4A Target_1A LEDcehj iAGCIMf Congruent right correct Normal 920.4887
201 116 LeftLarger PercCBExp1 Prime_6A Target_1N kFhDEdc eiClAbL Incongruent left correct Normal 804.2833
201 117 LeftLarger PercCBExp1 Prime_9A Target_6A JjaLEIg LBbiMlf Congruent right correct Normal 1151.082
201 118 LeftLarger PercCBExp1 Prime_6N Target_9A ehEiCdI lCmLAjE Congruent right correct Normal 458.273
201 119 LeftLarger PercCBExp1 Prime_1N Target_9A GJDeakA HclimFE Incongruent left correct Normal 389.4269
201 120 LeftLarger PercCBExp1 Prime_6A Target_4A MEGCjAI mKgMkaE Incongruent right error Normal 318.9884
201 121 LeftLarger PercCBExp1 Prime_6A Target_6N EaCcHmG dLabAmB Congruent left error Normal 121.8882
201 122 LeftLarger PercCBExp1 Prime_1N Target_4A jdiJADk elfdMkF Congruent right correct Normal 204.1669
201 123 LeftLarger PercCBExp1 Prime_4N Target_4A aGhEDHm DmFlfci Congruent left error Normal 834.7585
201 124 LeftLarger PercCBExp1 Prime_6N Target_6N JbegHDL iDIhElk Congruent right correct Normal 962.5018
201 125 LeftLarger PercCBExp1 Prime_6N Target_6A bCJaiKH GCcELHB Congruent right correct Normal 924.7885
201 126 LeftLarger PercCBExp1 Prime_1N Target_4N igmjfKI baefBhF Congruent left error Normal 858.4526
201 127 LeftLarger PercCBExp1 Prime_1N Target_1N biHGAdc AgbfEja Congruent left error Normal 759.7276
201 128 LeftLarger PercCBExp1 Prime_6N Target_1A BKLChfa FlBhfge Incongruent right error Normal 982.7719
201 129 LeftLarger PercCBExp1 Prime_9A Target_9N JhjEFMl lJecaBd Congruent left error Normal 1056.126
201 130 LeftLarger PercCBExp1 Prime_4N Target_4N ildKBjI ifHAgIM Congruent right correct Normal 1617.655
201 131 LeftLarger PercCBExp1 Prime_9A Target_6N fKjBgDa HAKLdfB Congruent right correct Normal 840.7178
201 132 LeftLarger PercCBExp1 Prime_4N Target_9N bcmkBjg eAfHIBi Incongruent right error Normal 658.896
201 133 LeftLarger PercCBExp1 Prime_4N Target_6A efMdhFB IHlbFie Incongruent right error Normal 662.5776
201 134 LeftLarger PercCBExp1 Prime_1N Target_9N dJAMmEh MGHaEhl Incongruent right error Normal 744.8294
201 135 LeftLarger PercCBExp1 Prime_4A Target_4N clakAGH LAhdFeG Congruent left error Normal 829.1156
201 136 LeftLarger PercCBExp1 Prime_1N Target_6A EcBAJDm jJmMhFd Incongruent left correct Normal 709.2879
201 137 LeftLarger PercCBExp1 Prime_6A Target_6A CGcgIli dMfHlBG Congruent left error Normal 1448.222
201 138 LeftLarger PercCBExp1 Prime_9A Target_1A bGJFcdL CgKMBma Incongruent left correct Normal 976.7356
201 139 LeftLarger PercCBExp1 Prime_6A Target_9N eDbLHdk HcgmMdK Congruent right correct Normal 636.1152
201 140 LeftLarger PercCBExp1 Prime_9N Target_6N jbMICAD GFJaemh Congruent right correct Normal 547.123
201 141 LeftLarger PercCBExp1 Prime_6N Target_4A ecaLbGH AbmfIkE Incongruent left correct Normal 834.048
201 142 LeftLarger PercCBExp1 Prime_9A Target_1N LlfDckH BMceiFd Incongruent right error Normal 842.9711
201 143 LeftLarger PercCBExp1 Prime_9N Target_1A JbFMgHA iEaHIkM Incongruent right error Normal 703.7593
201 144 LeftLarger PercCBExp1 Prime_9A Target_4N GdDBgmf mBjMbFh Incongruent left correct Normal 386.3388
201 145 LeftLarger PercCBExp1 Prime_4N Target_9A LGBaeEJ iEKFJaj Incongruent left correct Normal 842.7329
201 146 LeftLarger PercCBExp1 Prime_1A Target_9N BJCiIgk lAbakmh Incongruent right error Normal 567.2821
201 147 LeftLarger PercCBExp1 Prime_9A Target_9A ceKjCGk DeBgEAi Congruent left error Normal 1284.558
201 148 LeftLarger PercCBExp1 Prime_6N Target_9N jJchIMC emdjBgI Congruent right correct Normal 486.1425
201 149 LeftLarger PercCBExp1 Prime_1A Target_1N mHGBDdf egjIihG Congruent left error Normal 646.6798
201 150 LeftLarger PercCBExp1 Prime_4N Target_1N IHfliMG dcKmIkM Congruent right correct Normal 965.0695
201 151 LeftLarger PercCBExp1 Prime_1A Target_4A EflCiMh leBjick Congruent left error Normal 709.2318
201 152 LeftLarger PercCBExp1 Prime_4A Target_9A LCFJMGg MhKDajE Incongruent left correct Normal 727.919
201 153 LeftLarger PercCBExp1 Prime_9N Target_1N mBAaeFK IJgHGcK Incongruent right error Normal 740.0908
201 154 LeftLarger PercCBExp1 Prime_4A Target_9N AbcmKlL DHdelmJ Incongruent right error Normal 776.3837
201 155 LeftLarger PercCBExp1 Prime_1N Target_1A IGJmLec dlBfGLH Congruent left error Normal 4728.213
201 156 LeftLarger PercCBExp1 Prime_1A Target_1A JeglGCk KLHalDM Congruent right correct Normal 668.9131
201 157 LeftLarger PercCBExp1 Prime_4A Target_6N ACaehKI afBCIJk Incongruent right error Normal 821.8405
201 158 LeftLarger PercCBExp1 Prime_6N Target_4N GIdMmlL agEAlDf Incongruent right error Normal 568.1465
201 159 LeftLarger PercCBExp1 Prime_6A Target_4N iCdDLfB ECfIFdg Incongruent left correct Normal 3839.406
201 160 LeftLarger PercCBExp1 Prime_1N Target_6N IBedHCG CflgDMA Incongruent left correct Normal 989.7343
202 1 LeftSmaller PercCAPrac Prime_6A Target_1N JBcLhHm AfIemMi Incongruent left error Normal 992.8596
202 2 LeftSmaller PercCAPrac Prime_9A Target_4A EeAmIbj KfBlLIk Incongruent left error Normal 285.4961
202 3 LeftSmaller PercCAPrac Prime_1A Target_9N HGFmbLC fIjiKgG Incongruent right correct Normal 333.02
202 4 LeftSmaller PercCAPrac Prime_1A Target_6N mbIHhcE dEgJflB Incongruent right correct Normal 707.499
202 5 LeftSmaller PercCAPrac Prime_1N Target_6A DMLIlGb bAJCjKI Incongruent right correct Normal 1379.841
202 6 LeftSmaller PercCAPrac Prime_9A Target_6A FKljeEI JjFMhHf Congruent right error Late 5670.234
202 7 LeftSmaller PercCAPrac Prime_9A Target_4N kAFGDhe kamLjcI Incongruent right correct Normal 638.3039
202 8 LeftSmaller PercCAPrac Prime_4N Target_4A bagfiID DcMHfdB Congruent left correct Normal 281.0128
202 9 LeftSmaller PercCAPrac Prime_4N Target_9A kHMCJfa cIHajeL Incongruent left error Normal 376.7409
202 10 LeftSmaller PercCAPrac Prime_9N Target_6A JbcCmFe bBadjGE Congruent right error Normal 369.3119
202 11 LeftSmaller PercCAPrac Prime_6N Target_1N caMjiDE HhAILmJ Incongruent right correct Normal 3165.675
202 12 LeftSmaller PercCAPrac Prime_6A Target_9N iAbJIka efbMCED Congruent right error Normal 669.1756
202 13 LeftSmaller PercCAPrac Prime_9N Target_9A BKCDAFM iJAhEmI Congruent left correct Normal 627.8384
202 14 LeftSmaller PercCAPrac Prime_4A Target_9A LiHEkfd mKJjBcD Incongruent left error Normal 352.8785
202 15 LeftSmaller PercCAPrac Prime_4A Target_9N cmLMIKb mDgHCAJ Incongruent left error Normal 547.5315
202 16 LeftSmaller PercCAPrac Prime_4N Target_1N mgJaCKj abkGhcI Congruent right error Normal 524.0527
202 17 LeftSmaller PercCAExp1 Prime_1A Target_4N gfajbkE gfDmCMc Congruent right error Normal 460.4511
202 18 LeftSmaller PercCAExp1 Prime_9N Target_9A aEMiLBe MHceGdE Congruent right error Normal 466.7986
202 19 LeftSmaller PercCAExp1 Prime_6A Target_1A kdcIgCJ KmDbikJ Incongruent right correct Normal 2989.166
202 20 LeftSmaller PercCAExp1 Prime_4N Target_6N clkDJaA cMEiLeG Incongruent right correct Normal 207.6671
202 21 LeftSmaller PercCAExp1 Prime_6N Target_6N ClKcmAd kMeGlKI Congruent left correct Normal 2677.539
202 22 LeftSmaller PercCAExp1 Prime_1A Target_4A jieBchA acBIglA Congruent right error Late 7633.559
202 23 LeftSmaller PercCAExp1 Prime_4A Target_1A jDmKHAd aBCldLj Congruent right error Normal 287.4536
202 24 LeftSmaller PercCAExp1 Prime_1N Target_9N FKbMeGc LKdEAHi Incongruent left error Normal 365.9882
202 25 LeftSmaller PercCAExp1 Prime_1N Target_1N HMjADdB DLlAIde Congruent left correct Normal 2488.858
202 26 LeftSmaller PercCAExp1 Prime_6N Target_4A hbCmEkg KAJbMmE Incongruent right correct Normal 273.2228
202 27 LeftSmaller PercCAExp1 Prime_1A Target_9A CkLAflK KLIFick Incongruent right correct Normal 202.3961
202 28 LeftSmaller PercCAExp1 Prime_4A Target_1N iEMJBFh jGmdMKg Congruent left correct Early 93.01147
202 29 LeftSmaller PercCAExp1 Prime_4A Target_9A hDcAlmI KfHDCIh Incongruent right correct Early 2.902267
202 30 LeftSmaller PercCAExp1 Prime_1A Target_1N JlBIGMC AcdKfjG Congruent right error Early 18.65281
202 31 LeftSmaller PercCAExp1 Prime_6A Target_1N DBEdaei fhBKIbg Incongruent left error Normal 2237.548
202 32 LeftSmaller PercCAExp1 Prime_6N Target_4N ACDKFJm kfgeAKi Incongruent right correct Normal 289.9419
202 33 LeftSmaller PercCAExp1 Prime_4N Target_1N JBamGhi elAMjdk Congruent right error Normal 367.5201
202 34 LeftSmaller PercCAExp1 Prime_1A Target_6A hIejcDm AmeiLMD Incongruent right correct Normal 111.5433
202 35 LeftSmaller PercCAExp1 Prime_9N Target_4N iAGDmJd hDJFgdE Incongruent right correct Normal 258.8382
202 36 LeftSmaller PercCAExp1 Prime_9N Target_6A cMBijIf mCAFigH Congruent right error Normal 2264.086
202 37 LeftSmaller PercCAExp1 Prime_6A Target_6N kFfdDKI KgLHFlm Congruent right error Normal 384.312
202 38 LeftSmaller PercCAExp1 Prime_1N Target_6N hEmdLJM kJcIjie Incongruent left error Normal 561.073
202 39 LeftSmaller PercCAExp1 Prime_4A Target_4A fGcHikE aCJDjmk Congruent right error Early 64.55988
202 40 LeftSmaller PercCAExp1 Prime_6N Target_9A gdeEHbj HMBdbef Congruent right error Early 65.94102
202 41 LeftSmaller PercCAExp1 Prime_9A Target_1N lBimgFL dfkbhJc Incongruent right correct Normal 103.412
202 42 LeftSmaller PercCAExp1 Prime_1N Target_1A lMmaeFD jmlELgI Congruent left correct Normal 116.4706
202 43 LeftSmaller PercCAExp1 Prime_1N Target_9A bkFHDdB KlIiaej Incongruent right correct Normal 161.7698
202 44 LeftSmaller PercCAExp1 Prime_1N Target_4A MlHLEjI FbmjgGI Congruent right error Normal 117.9238
202 45 LeftSmaller PercCAExp1 Prime_1A Target_1A LBfaFbG gBaJElk Congruent right error Normal 149.0111
202 46 LeftSmaller PercCAExp1 Prime_9A Target_4A hiFbECA AFKeBCg Incongruent left error Normal 215.6521
202 47 LeftSmaller PercCAExp1 Prime_4N Target_1A fJeMldE LJFCbcB Congruent left correct Early 82.18816
202 48 LeftSmaller PercCAExp1 Prime_6N Target_6A LdhAKHb CHkaedB Congruent right error Early 37.31428
202 49 LeftSmaller PercCAExp1 Prime_4N Target_4N fkGDali FDChKce Congruent left correct Normal 3303.911
202 50 LeftSmaller PercCAExp1 Prime_4N Target_4A LMBdaeJ cAjdLIK Congruent left correct Normal 451.8759
202 51 LeftSmaller PercCAExp1 Prime_9A Target_9A AdJKDFc LdchiCA Congruent right error Early 70.37231
202 52 LeftSmaller PercCAExp1 Prime_4A Target_9N mCJcDle AjBdIgL Incongruent right correct Normal 190.1645
202 53 LeftSmaller PercCAExp1 Prime_9N Target_9N AbjaeFd AkilfdB Congruent right error Normal 2735.162
202 54 LeftSmaller PercCAExp1 Prime_4A Target_6A fJIFdDL FdGAMIc Incongruent right correct Normal 211.0166
202 55 LeftSmaller PercCAExp1 Prime_4A Target_4N iKkamjG jfCbkhA Congruent right error Normal 172.4325
202 56 LeftSmaller PercCAExp1 Prime_9A Target_1A kHbGDJL faBGCJe Incongruent left error Normal 362.5854
202 57 LeftSmaller PercCAExp1 Prime_6A Target_4A iLfIgDJ JlDKHed Incongruent right correct Normal 101.26
202 58 LeftSmaller PercCAExp1 Prime_4A Target_6N adGkLbH gKcAlDE Incongruent left error Late 5812.086
202 59 LeftSmaller PercCAExp1 Prime_6N Target_9N elmJMjF EdabBFM Congruent right error Normal 263.185
202 60 LeftSmaller PercCAExp1 Prime_1N Target_6A jCbFJgk jbglkmF Incongruent right correct Normal 2240.038
202 61 LeftSmaller PercCAExp1 Prime_1A Target_9N imekbHM FBIJheD Incongruent right correct Normal 176.901
202 62 LeftSmaller PercCAExp1 Prime_4N Target_6A lekEGaC ifHCLDb Incongruent right correct Normal 176.0896
202 63 LeftSmaller PercCAExp1 Prime_6A Target_9N EdmJIhM MJEijIm Congruent right error Normal 3147.061
202 64 LeftSmaller PercCAExp1 Prime_1N Target_4N gdHfbMK cMKbljJ Congruent right error Normal 2898.796
202 65 LeftSmaller PercCAExp1 Prime_1A Target_6N GCDgJIk liCdcKj Incongruent right correct Normal 307.2302
202 66 LeftSmaller PercCAExp1 Prime_9A Target_6A cliGLKm JBDFgGM Congruent right error Normal 608.9419
202 67 LeftSmaller PercCAExp1 Prime_4N Target_9A aBDfjdK GJIHAjh Incongruent left error Late 8356.761
202 68 LeftSmaller PercCAExp1 Prime_6N Target_1A JhlbjFe lHAiaBd Incongruent right correct Normal 1139.175
202 69 LeftSmaller PercCAExp1 Prime_9N Target_4A BeCJFgD jhfEdCM Incongruent right correct Normal 202.5779
202 70 LeftSmaller PercCAExp1 Prime_9A Target_6N lcgGAfL cIkmHDf Congruent right error Normal 338.9995
202 71 LeftSmaller PercCAExp1 Prime_9A Target_4N cCglmBD HMBhGgE Incongruent right correct Normal 2972.988
202 72 LeftSmaller PercCAExp1 Prime_6A Target_9A EidImKJ DJGgMib Congruent right error Normal 698.8633
202 73 LeftSmaller PercCAExp1 Prime_6N Target_1N hBfCkjI fclBEDm Incongruent left error Normal 390.4899
202 74 LeftSmaller PercCAExp1 Prime_9A Target_9N eCajIfH ckhIBGb Congruent right error Early 77.21109
202 75 LeftSmaller PercCAExp1 Prime_9N Target_6N FhmfHKJ iFfjkdL Congruent right error Early 28.39588
202 76 LeftSmaller PercCAExp1 Prime_4N Target_9N HmkAIMc gJLBFKM Incongruent right correct Normal 202.5328
202 77 LeftSmaller PercCAExp1 Prime_9N Target_1A FcILmEh JFhjAfB Incongruent left error Normal 3714.527
202 78 LeftSmaller PercCAExp1 Prime_6A Target_6A LJMljEg iBkMbdj Congruent left correct Normal 424.9304
202 79 LeftSmaller PercCAExp1 Prime_9N Target_1N HhiAlEd DedfHKm Incongruent right correct Normal 2231.044
202 80 LeftSmaller PercCAExp1 Prime_6A Target_4N GcgJBEI akFgAHb Incongruent right correct Normal 185.6443
202 81 LeftLarger PercCBPrac Prime_9N Target_4A iMJGmKH hIjicBM Incongruent left correct Normal 4228.368
202 82 LeftLarger PercCBPrac Prime_6N Target_6N MmfBiEb HdGJMbA Congruent right correct Normal 131.9358
202 83 LeftLarger PercCBPrac Prime_1A Target_1A cjDidkb MkhAIfB Congruent left error Early 33.61463
202 84 LeftLarger PercCBPrac Prime_1N Target_4A eagEdbJ LfEkhjA Congruent left error Early 2.852016
202 85 LeftLarger PercCBPrac Prime_9N Target_6A FimjBag KLfEHeI Congruent right correct Early 43.95994
202 86 LeftLarger PercCBPrac Prime_6N Target_1A dLbjkaB EglfGbd Incongruent left correct Early 81.79123
202 87 LeftLarger PercCBPrac Prime_1A Target_6N GafhHFK MeLgBdh Incongruent left correct Normal 149.741
202 88 LeftLarger PercCBPrac Prime_4N Target_9A hLGcfId dcgGHKC Incongruent right error Normal 212.7718
202 89 LeftLarger PercCBPrac Prime_9N Target_9N jlHKBLF bfLDmIK Congruent right correct Normal 261.8047
202 90 LeftLarger PercCBPrac Prime_1N Target_9A dIHcMmC LgdDHGA Incongruent left correct Normal 219.3918
202 91 LeftLarger PercCBPrac Prime_6N Target_6A hACaefF ihkEJfb Congruent right correct Normal 266.9978
202 92 LeftLarger PercCBPrac Prime_1N Target_6A AjeCMEL ACFBhik Incongruent left correct Normal 3732.375
202 93 LeftLarger PercCBPrac Prime_6A Target_4A IjJDMhK ljGiLdh Incongruent right error Normal 343.0896
202 94 LeftLarger PercCBPrac Prime_9A Target_1A KbLfEJl jHbDCaJ Incongruent right error Normal 2401.783
202 95 LeftLarger PercCBPrac Prime_9A Target_6N jBAlIMf mMjgGLC Congruent right correct Early 58.86614
202 96 LeftLarger PercCBPrac Prime_4N Target_1N aBlLDbi AlFbBeE Congruent right correct Early 83.60502
202 97 LeftLarger PercCBExp1 Prime_4N Target_6N fcIKalA falFiDJ Incongruent left correct Normal 986.5852
202 98 LeftLarger PercCBExp1 Prime_1A Target_6A cGHeEld GAIhflH Incongruent right error Normal 326.8953
202 99 LeftLarger PercCBExp1 Prime_4N Target_6A aJBIdEm AhjBdID Incongruent right error Normal 237.9658
202 100 LeftLarger PercCBExp1 Prime_6N Target_4A FAlJHMm IbHefDL Incongruent right error Early 83.09538
202 101 LeftLarger PercCBExp1 Prime_9A Target_1N LifGCKE lKfbLIm Incongruent left correct Early 4.965853
202 102 LeftLarger PercCBExp1 Prime_1A Target_4N BMAIgcl lGEaKFi Congruent right correct Late 5069.227
202 103 LeftLarger PercCBExp1 Prime_4N Target_9N EgfkmbA cAMkibj Incongruent right error Normal 311.8989
202 104 LeftLarger PercCBExp1 Prime_1A Target_4A AlefImF cIFAmdl Congruent right correct Normal 240.952
202 105 LeftLarger PercCBExp1 Prime_9N Target_1N ICijBHa kbFDaAg Incongruent right error Normal 273.9756
202 106 LeftLarger PercCBExp1 Prime_1N Target_9N fgFHEhd HkBihLf Incongruent right error Normal 347.8614
202 107 LeftLarger PercCBExp1 Prime_9N Target_9A aEiCldL jIMiaAG Congruent left error Normal 358.6687
202 108 LeftLarger PercCBExp1 Prime_6N Target_4N GiAMJbE CeBijGf Incongruent left correct Normal 449.2086
202 109 LeftLarger PercCBExp1 Prime_1N Target_4A cGMJjgE iMLFCeK Congruent right correct Normal 322.6696
202 110 LeftLarger PercCBExp1 Prime_6N Target_9A FHdiMAb ahIKJbM Congruent right correct Normal 234.912
202 111 LeftLarger PercCBExp1 Prime_9A Target_6N IaidFHe khCHcfg Congruent left error Normal 123.834
202 112 LeftLarger PercCBExp1 Prime_9N Target_4N fgDEBjb JMhDKLI Incongruent right error Normal 2680.079
202 113 LeftLarger PercCBExp1 Prime_9A Target_9A HMbJKjD cJIAaKM Congruent right correct Normal 599.914
202 114 LeftLarger PercCBExp1 Prime_1A Target_1A GChbJAE iDLBfbJ Congruent right correct Normal 389.2574
202 115 LeftLarger PercCBExp1 Prime_9A Target_1A mcIhHFa ekMgCEm Incongruent left correct Normal 400.3209
202 116 LeftLarger PercCBExp1 Prime_1N Target_1N fJCEhlI HfkiIjd Congruent right correct Normal 228.6907
202 117 LeftLarger PercCBExp1 Prime_1A Target_1N mdABIKE FdGMgKD Congruent right correct Normal 280.8432
202 118 LeftLarger PercCBExp1 Prime_6A Target_4A McfCGih GcAdBDI Incongruent right error Normal 423.6983
202 119 LeftLarger PercCBExp1 Prime_4N Target_4A DihBFeg HCcKGfi Congruent left error Normal 127.4429
202 120 LeftLarger PercCBExp1 Prime_4A Target_1A gedhjcb LmeIhCc Congruent left error Normal 165.1942
202 121 LeftLarger PercCBExp1 Prime_1N Target_9A KEFdeAf BKCaFgl Incongruent right error Normal 364.1864
202 122 LeftLarger PercCBExp1 Prime_9N Target_1A DkIfJAj mFEDdeb Incongruent left correct Normal 263.1615
202 123 LeftLarger PercCBExp1 Prime_1A Target_9A cfhCleM GEKAiJB Incongruent right error Normal 438.8119
202 124 LeftLarger PercCBExp1 Prime_6N Target_1N imbgLdC ClKGkLd Incongruent right error Normal 329.5233
202 125 LeftLarger PercCBExp1 Prime_1N Target_6A DIGfAJe DHKjIJG Incongruent right error Normal 307.1416
202 126 LeftLarger PercCBExp1 Prime_4A Target_9A MhckagH HLfmiGF Incongruent right error Normal 132.5635
202 127 LeftLarger PercCBExp1 Prime_1A Target_9N FceKGaD kLEdKDb Incongruent left correct Normal 2530.804
202 128 LeftLarger PercCBExp1 Prime_9N Target_9N bjDABMh aGHdkbf Congruent right correct Normal 852.9236
202 129 LeftLarger PercCBExp1 Prime_6A Target_6N BjeFiIC mLbekal Congruent right correct Normal 574.2234
202 130 LeftLarger PercCBExp1 Prime_4A Target_6A fAdEBcl eciLakh Incongruent left correct Normal 480.1324
202 131 LeftLarger PercCBExp1 Prime_9N Target_6N gCFHKBL dmHlaBD Congruent right correct Normal 452.97
202 132 LeftLarger PercCBExp1 Prime_9A Target_4A ildgKCI jgfMBHd Incongruent left correct Normal 179.9672
202 133 LeftLarger PercCBExp1 Prime_6A Target_9A mjKGLAl ILfhkjc Congruent right correct Normal 419.1331
202 134 LeftLarger PercCBExp1 Prime_6N Target_1A ElBjfDK eJgfKaE Incongruent right error Normal 124.6717
202 135 LeftLarger PercCBExp1 Prime_1N Target_4N ldmEJKC bFHEBKI Congruent right correct Normal 352.3141
202 136 LeftLarger PercCBExp1 Prime_4A Target_9N GHfEFla mhbeIDc Incongruent left correct Normal 396.2322
202 137 LeftLarger PercCBExp1 Prime_9A Target_4N fEAeDgB JbGHhMA Incongruent left correct Normal 2956.616
202 138 LeftLarger PercCBExp1 Prime_9N Target_6A aJAHIgi HFlBeMa Congruent left error Normal 407.7418
202 139 LeftLarger PercCBExp1 Prime_1N Target_1A ghbIlEj mHBAIJj Congruent right correct Normal 248.023
202 140 LeftLarger PercCBExp1 Prime_6A Target_6A AhEMIKJ aLKgHbf Congruent left error Normal 310.1941
202 141 LeftLarger PercCBExp1 Prime_4A Target_1N KJhjkbL BemGclJ Congruent right correct Normal 172.3376
202 142 LeftLarger PercCBExp1 Prime_4N Target_9A KhfCjJE BchDIgC Incongruent right error Early 75.99291
202 143 LeftLarger PercCBExp1 Prime_6A Target_1A fJhAMmB HIGADld Incongruent right error Normal 485.4162
202 144 LeftLarger PercCBExp1 Prime_6A Target_1N gdHkKfc cGgfiCE Incongruent left correct Normal 414.4426
202 145 LeftLarger PercCBExp1 Prime_9A Target_9N dmMjBDG leDIijH Congruent right correct Normal 2675.214
202 146 LeftLarger PercCBExp1 Prime_4N Target_4N gkLjHcC jBcJblC Congruent right correct Normal 360.7618
202 147 LeftLarger PercCBExp1 Prime_1N Target_6N jciFfHJ caELKlM Incongruent right error Normal 500.4916
202 148 LeftLarger PercCBExp1 Prime_9A Target_6A lDfMbJh AjKelcd Congruent right correct Normal 164.4111
202 149 LeftLarger PercCBExp1 Prime_6N Target_6N KGJEfBF bdFEfJg Congruent right correct Normal 3016.22
202 150 LeftLarger PercCBExp1 Prime_6N Target_9N bCKJdhH FAChiBb Congruent right correct Normal 515.0276
202 151 LeftLarger PercCBExp1 Prime_4A Target_4A iGeBMAl JBdhAmD Congruent right correct Normal 288.3067
202 152 LeftLarger PercCBExp1 Prime_1A Target_6N glkGdji bahHiGC Incongruent left correct Normal 3635.704
202 153 LeftLarger PercCBExp1 Prime_4A Target_4N JeciGfj iaEBcFl Congruent left error Normal 699.8071
202 154 LeftLarger PercCBExp1 Prime_6A Target_9N JEgGcek BklahDK Congruent left error Normal 243.2391
202 155 LeftLarger PercCBExp1 Prime_4N Target_1N hKfGgmc gEfbdFm Congruent right correct Normal 202.4295
202 156 LeftLarger PercCBExp1 Prime_9N Target_4A dGLCkbl mlkCjEh Incongruent right error Normal 316.8954
202 157 LeftLarger PercCBExp1 Prime_6A Target_4N aeMJmdb CFAMLhH Incongruent left correct Normal 269.5422
202 158 LeftLarger PercCBExp1 Prime_4N Target_1A HbCcdme JAiEMce Congruent left error Normal 266.0865
202 159 LeftLarger PercCBExp1 Prime_4A Target_6N EMAjegI bHfiedM Incongruent right error Early 2.86955
202 160 LeftLarger PercCBExp1 Prime_6N Target_6A Eekgafm ijaEfAG Congruent right correct Normal 173.2146
204 1 LeftLarger PercCAPrac Prime_6A Target_4N eKLickb CcLglmG Incongruent left correct Normal 731.8763
204 2 LeftLarger PercCAPrac Prime_9A Target_6N iGhelHk FHElhBK Congruent right correct Normal 175.166
204 3 LeftLarger PercCAPrac Prime_9N Target_4A LAIMFgj DKLkjHl Incongruent right error Late 14073.92
204 4 LeftLarger PercCAPrac Prime_9N Target_1N hfJebKB jhAlKde Incongruent right error Early 36.50882
204 5 LeftLarger PercCAPrac Prime_4A Target_9N aAgFbce IDGfcJi Incongruent right error Normal 214.5342
204 6 LeftLarger PercCAPrac Prime_6A Target_1A EHFAGMJ JAmklgc Incongruent left correct Normal 226.3282
204 7 LeftLarger PercCAPrac Prime_1N Target_4A GbAKehc JKBgiab Congruent left error Normal 242.7046
204 8 LeftLarger PercCAPrac Prime_1N Target_9A GlmLIAc lIfJDBg Incongruent right error Normal 2908.319
204 9 LeftLarger PercCAPrac Prime_4N Target_1A ceaBAMi FGbBiCa Congruent right correct Normal 342.196
204 10 LeftLarger PercCAPrac Prime_6A Target_9N ieIbljB AgEdImi Congruent right correct Early 85.6112
204 11 LeftLarger PercCAPrac Prime_1A Target_6A GakFKCi kEHKCji Incongruent left correct Normal 214.2949
204 12 LeftLarger PercCAPrac Prime_4N Target_1N jLDbhkg kBGLIDc Congruent right correct Late 15911.53
204 13 LeftLarger PercCAPrac Prime_4N Target_6A chjFLIC GEeJbka Incongruent left correct Normal 265.8966
204 14 LeftLarger PercCAPrac Prime_9A Target_1A bGiHLMj Dajfkhi Incongruent right error Normal 3664.25
204 15 LeftLarger PercCAPrac Prime_1N Target_9N edgAibk dJhgLDH Incongruent right error Normal 174.415
204 16 LeftLarger PercCAPrac Prime_6N Target_6N EJGKMDd hjdDIFg Congruent right correct Late 6138.721
204 17 LeftLarger PercCAPrac Prime_6A Target_9A ELCiabm fdGFjkI Congruent right correct Normal 3110.276
204 18 LeftLarger PercCAPrac Prime_6N Target_1A cKkHEaG DAjEFBk Incongruent right error Normal 193.9034
204 19 LeftLarger PercCAPrac Prime_9N Target_1A lbEdIeC DCFilJc Incongruent left correct Normal 3703.286
204 20 LeftLarger PercCAPrac Prime_9A Target_4A IbDdhMm ghFjKfH Incongruent left correct Normal 282.6643
204 21 LeftLarger PercCAPrac Prime_6A Target_6N HhLmMDe JaHAdMK Congruent left error Normal 139.5904
204 22 LeftLarger PercCAPrac Prime_1N Target_9N HCIgFBh hDbCegF Incongruent right error Normal 170.1344
204 23 LeftLarger PercCAPrac Prime_6N Target_6N MKclbif LKciAkf Congruent left error Normal 3206.998
204 24 LeftLarger PercCAPrac Prime_6N Target_6A KJmjgLl jIdLgKE Congruent right correct Early 18.89241
204 25 LeftLarger PercCAPrac Prime_1A Target_6N aLcAekG IgeAmiK Incongruent right error Normal 211.2635
204 26 LeftLarger PercCAPrac Prime_9N Target_4A kmFaHBL CIMcKbH Incongruent left correct Normal 2909.624
204 27 LeftLarger PercCAPrac Prime_4N Target_4A lImjMBD AglfKeB Congruent right correct Normal 223.0155
204 28 LeftLarger PercCAPrac Prime_9A Target_9A IfbjAFc LGAlIaE Congruent left error Normal 3087.752
204 29 LeftLarger PercCAPrac Prime_1A Target_4N lfAEJHD kDcFfld Congruent right correct Normal 117.4
204 30 LeftLarger PercCAPrac Prime_9N Target_6N BmMlGjK KadhFfL Congruent left error Normal 349.5717
204 31 LeftLarger PercCAPrac Prime_1A Target_4A jgFHdfB aFmIGjl Congruent left error Normal 184.1571
204 32 LeftLarger PercCAPrac Prime_4N Target_4N FaLBAcG melkAJH Congruent left error Normal 1917.058
204 33 LeftLarger PercCAExp1 Prime_4N Target_6A hHakGdM mckEIfb Incongruent left correct Normal 277.5463
204 34 LeftLarger PercCAExp1 Prime_9N Target_9A caIMKAH BejGDJE Congruent right correct Early 35.36678
204 35 LeftLarger PercCAExp1 Prime_1N Target_6N FcklMfa hecGCfk Incongruent left correct Normal 472.9856
204 36 LeftLarger PercCAExp1 Prime_6N Target_6N HbLKBiF MBKlgdJ Congruent right correct Early 2.705528
204 37 LeftLarger PercCAExp1 Prime_9N Target_9N bHikfCh FBEiDJH Congruent left error Early 93.06974
204 38 LeftLarger PercCAExp1 Prime_9N Target_4A KmMDAGH CmcEIAi Incongruent left correct Normal 2490.226
204 39 LeftLarger PercCAExp1 Prime_4A Target_9N AihIjda aCkcife Incongruent left correct Normal 120.8011
204 40 LeftLarger PercCAExp1 Prime_4N Target_1N dKgDFaI CHGBcMD Congruent right correct Normal 112.8365
204 41 LeftLarger PercCAExp1 Prime_6N Target_6A lbcaEek IbcLBgF Congruent left error Normal 2151.587
204 42 LeftLarger PercCAExp1 Prime_9N Target_1A KLBmEGM IHLjDeb Incongruent left correct Normal 174.4505
204 43 LeftLarger PercCAExp1 Prime_1N Target_9A jfGFeac icMEKAG Incongruent right error Early 90.34958
204 44 LeftLarger PercCAExp1 Prime_4N Target_9N EhiefHa gjcEABl Incongruent right error Early 26.41987
204 45 LeftLarger PercCAExp1 Prime_4A Target_6A DFacGhi ckgClFi Incongruent left correct Normal 4227.638
204 46 LeftLarger PercCAExp1 Prime_4A Target_1A hHDLiEl eACIhja Congruent left error Normal 113.1736
204 47 LeftLarger PercCAExp1 Prime_4N Target_4N KfkhFaM gjhJEfL Congruent right correct Normal 202.2391
204 48 LeftLarger PercCAExp1 Prime_4N Target_9A JKmIHbC FkeEKdh Incongruent left correct Late 9534.907
204 49 LeftLarger PercCAExp1 Prime_9N Target_6A FDMcmJL iKgAIbD Congruent right correct Normal 1270.411
204 50 LeftLarger PercCAExp1 Prime_6A Target_6N ebckFGl JIBfmLE Congruent right correct Early 71.90939
204 51 LeftLarger PercCAExp1 Prime_9A Target_9A MCIclhf LADmIkJ Congruent right correct Early 2.752141
204 52 LeftLarger PercCAExp1 Prime_6A Target_1A mfhlDeL fbkBaje Incongruent right error Early 47.80113
204 53 LeftLarger PercCAExp1 Prime_9N Target_1N eBIlLiH lMbdAjJ Incongruent right error Early 2.644571
204 54 LeftLarger PercCAExp1 Prime_1N Target_4N JKglibj aJmglfk Congruent right correct Normal 4385.698
204 55 LeftLarger PercCAExp1 Prime_9A Target_4A BKeEaGF GIbHcFa Incongruent right error Early 8.805202
204 56 LeftLarger PercCAExp1 Prime_1N Target_4A AaKmHhj JjahbgK Congruent right correct Early 2.844759
204 57 LeftLarger PercCAExp1 Prime_9N Target_4N mMCGgBF iLGlmbI Incongruent right error Early 2.647565
204 58 LeftLarger PercCAExp1 Prime_4N Target_4A JgcAKLh aDgkIhm Congruent right correct Early 2.920877
204 59 LeftLarger PercCAExp1 Prime_1A Target_4A ecdAmGh DGlKMcE Congruent right correct Early 2.850729
204 60 LeftLarger PercCAExp1 Prime_4A Target_4A LAajGKC lgfhjIH Congruent right correct Early 2.858656
204 61 LeftLarger PercCAExp1 Prime_1A Target_9A FBDJmEL fjdecEG Incongruent right error Early 2.91891
204 62 LeftLarger PercCAExp1 Prime_1A Target_6A EHCdbBi FklBJCM Incongruent right error Early 2.814172
204 63 LeftLarger PercCAExp1 Prime_6A Target_9N gbhMfjc IhgCeLk Congruent right correct Early 2.699739
204 64 LeftLarger PercCAExp1 Prime_1N Target_1N MIaeCgJ GgmDMeE Congruent right correct Normal 1917.527
204 65 LeftLarger PercCAExp1 Prime_9A Target_1N ChifHdG CBfgeAd Incongruent right error Early 2.798327
204 66 LeftLarger PercCAExp1 Prime_9A Target_9N GmgJlHd iFaCELD Congruent right correct Early 3.001091
204 67 LeftLarger PercCAExp1 Prime_9A Target_6A ecFkHij gBFAIDK Congruent right correct Early 2.978793
204 68 LeftLarger PercCAExp1 Prime_6N Target_4N dhBFeMg AdDlcbm Incongruent right error Normal 4837.819
204 69 LeftLarger PercCAExp1 Prime_1A Target_6N hCDEcAL gFmJfHh Incongruent right error Normal 3381.964
204 70 LeftLarger PercCAExp1 Prime_6A Target_1N LJIgmCK eLCjdml Incongruent right error Normal 2229.683
204 71 LeftLarger PercCAExp1 Prime_9A Target_4N JiKbeIg jdmHcbE Incongruent right error Early 4.117682
204 72 LeftLarger PercCAExp1 Prime_6N Target_1N mFcKJGC admlJcD Incongruent right error Normal 414.1143
204 73 LeftLarger PercCAExp1 Prime_1N Target_6A KcdkIBC jJlhBaE Incongruent right error Early 2.941645
204 74 LeftLarger PercCAExp1 Prime_6A Target_9A BEeMCkJ BFgGDAf Congruent right correct Early 3.168288
204 75 LeftLarger PercCAExp1 Prime_9N Target_6N EjCeBHc cdhiLfH Congruent right correct Early 3.096001
204 76 LeftLarger PercCAExp1 Prime_1A Target_4N KlagdMk gjhDEIK Congruent right correct Early 2.794687
204 77 LeftLarger PercCAExp1 Prime_6N Target_1A mhjJaBg lkALmMf Incongruent right error Early 3.022003
204 78 LeftLarger PercCAExp1 Prime_6N Target_9A CeJdkcb akIbHjE Congruent right correct Early 2.326376
204 79 LeftLarger PercCAExp1 Prime_4A Target_9A dcEMgmk GmDfKAe Incongruent right error Normal 2480.282
204 80 LeftLarger PercCAExp1 Prime_6N Target_4A MjEkIdF mgIBAEi Incongruent right error Normal 250.0044
204 81 LeftLarger PercCAExp1 Prime_6N Target_9N eMjFdmg fFbkDLh Congruent right correct Early 1.907198
204 82 LeftLarger PercCAExp1 Prime_4A Target_6N fKAdIjJ LCEbdMf Incongruent right error Early 1.977574
204 83 LeftLarger PercCAExp1 Prime_1A Target_1N fDBigcJ jFMIKDf Congruent right correct Early 2.91872
204 84 LeftLarger PercCAExp1 Prime_6A Target_4N GACjblm ceFdbKL Incongruent right error Early 3.109423
204 85 LeftLarger PercCAExp1 Prime_4N Target_1A kmFaBEe dALFaJH Congruent right correct Early 2.775448
204 86 LeftLarger PercCAExp1 Prime_4A Target_4N KhMCaAG HIECKbD Congruent right correct Early 2.92449
204 87 LeftLarger PercCAExp1 Prime_1A Target_9N gHfhGcK CEDgeid Incongruent right error Normal 178.1132
204 88 LeftLarger PercCAExp1 Prime_4N Target_6N mhkJHGi BeFkKHg Incongruent right error Normal 2219.396
204 89 LeftLarger PercCAExp1 Prime_4A Target_1N kiAflHc gBJeEDc Congruent right correct Normal 142.8151
204 90 LeftLarger PercCAExp1 Prime_9A Target_1A KaMijLl haMfKHJ Incongruent right error Normal 2422.51
204 91 LeftLarger PercCAExp1 Prime_1A Target_1A JIfdEcj BegflDd Congruent right correct Early 37.04405
204 92 LeftLarger PercCAExp1 Prime_1N Target_9N MJaFgLE LMIeAgm Incongruent right error Early 5.093521
204 93 LeftLarger PercCAExp1 Prime_6A Target_4A aMbJCIl emibjkg Incongruent right error Early 2.720271
204 94 LeftLarger PercCAExp1 Prime_6A Target_6A iHlfDcg leCfdgD Congruent left error Normal 4666.419
204 95 LeftLarger PercCAExp1 Prime_1N Target_1A KfbcdJa BbMLJHf Congruent right correct Normal 127.6654
204 96 LeftLarger PercCAExp1 Prime_9A Target_6N fGLbIEH lLmgacJ Congruent right correct Normal 3701.947
204 97 LeftSmaller PercCBPrac Prime_4N Target_1A igcjJmM IeahfBA Congruent right error Normal 1826.839
204 98 LeftSmaller PercCBPrac Prime_4N Target_9N IClhEKA MEFfGKB Incongruent right correct Early 12.82394
204 99 LeftSmaller PercCBPrac Prime_4A Target_4N kBFKahI egMbJiF Congruent right error Early 2.691803
204 100 LeftSmaller PercCBPrac Prime_1N Target_9N McgCdJl AfimlKg Incongruent right correct Early 2.925136
204 101 LeftSmaller PercCBPrac Prime_9N Target_1N KjJcilb LbhGIfc Incongruent right correct Early 3.010027
204 102 LeftSmaller PercCBPrac Prime_6A Target_6A lJFACEc FaALgkH Congruent right error Early 2.872743
204 103 LeftSmaller PercCBPrac Prime_9A Target_9N DkCiFKG dmKiJAh Congruent right error Early 2.918511
204 104 LeftSmaller PercCBPrac Prime_4A Target_9N ficBleE gHelCJh Incongruent right correct Normal 2169.232
204 105 LeftSmaller PercCBPrac Prime_4N Target_4N FCdJehb emAgbKc Congruent right error Early 3.047012
204 106 LeftSmaller PercCBPrac Prime_6A Target_9A ehfCFAL KCMglmB Congruent right error Early 3.074842
204 107 LeftSmaller PercCBPrac Prime_9N Target_4N dDEceaM GKcCLbm Incongruent right correct Early 26.98593
204 108 LeftSmaller PercCBPrac Prime_9A Target_1N GkHjJFM GEMIbiB Incongruent right correct Early 2.876174
204 109 LeftSmaller PercCBPrac Prime_1A Target_9N HemCBMD BgeIAGk Incongruent right correct Early 2.903768
204 110 LeftSmaller PercCBPrac Prime_1N Target_6A HBbEmai hbLGFec Incongruent right correct Normal 4915.85
204 111 LeftSmaller PercCBPrac Prime_9N Target_6N ILEGfdm AFlgBaM Congruent right error Early 71.49707
204 112 LeftSmaller PercCBPrac Prime_1N Target_9A bjdkEga bfMIDHm Incongruent right correct Normal 145.0334
204 113 LeftSmaller PercCBExp1 Prime_9A Target_1A lmCADci GMEcDla Incongruent right correct Normal 251.4632
204 114 LeftSmaller PercCBExp1 Prime_4N Target_4N GHlDJKi gaJhiKH Congruent right error Early 2.650541
204 115 LeftSmaller PercCBExp1 Prime_1A Target_9A dGBEAHF KDIdFLJ Incongruent right correct Normal 2272.398
204 116 LeftSmaller PercCBExp1 Prime_6A Target_6A CbDFEMm JLjegfk Congruent right error Early 2.832736
204 117 LeftSmaller PercCBExp1 Prime_4N Target_6N FKMELDh KMchAHa Incongruent right correct Early 12.84898
204 118 LeftSmaller PercCBExp1 Prime_4A Target_6N ChEjgMc HjBlcJa Incongruent right correct Early 2.877039
204 119 LeftSmaller PercCBExp1 Prime_6N Target_1N hgKBaLF gGJdbBj Incongruent right correct Early 2.916809
204 120 LeftSmaller PercCBExp1 Prime_4A Target_4A EJBHcmb AMIiEfF Congruent right error Early 2.855016
204 121 LeftSmaller PercCBExp1 Prime_4N Target_9A ELlIBjg DCeJgLd Incongruent right correct Early 2.995103
204 122 LeftSmaller PercCBExp1 Prime_1N Target_4N BcaILCi aefkBgJ Congruent right error Early 2.907789
204 123 LeftSmaller PercCBExp1 Prime_6N Target_6A efCgAEm ECghfcI Congruent right error Early 2.987148
204 124 LeftSmaller PercCBExp1 Prime_1A Target_6A BhgEFHL lJghMei Incongruent right correct Normal 2402.873
204 125 LeftSmaller PercCBExp1 Prime_9A Target_9A jGfdFmD eGAfIHE Congruent right error Early 2.924299
204 126 LeftSmaller PercCBExp1 Prime_6A Target_1N hcikIHC LiKGjIg Incongruent right correct Early 2.823801
204 127 LeftSmaller PercCBExp1 Prime_6A Target_4A lhiFKCg mEIbGLM Incongruent right correct Normal 106.3057
204 128 LeftSmaller PercCBExp1 Prime_6N Target_9N kmGBfcl mMJKcfl Congruent right error Normal 2085.821
204 129 LeftSmaller PercCBExp1 Prime_6A Target_4N keMHAFg IAFmglh Incongruent right correct Normal 428.0275
204 130 LeftSmaller PercCBExp1 Prime_9N Target_6N LMEHlmg ecAIFMD Congruent right error Normal 502.1918
204 131 LeftSmaller PercCBExp1 Prime_4A Target_1N bkglcML amkfJAC Congruent right error Early 2.940325
204 132 LeftSmaller PercCBExp1 Prime_9A Target_4A DaLEjhk GKcECJB Incongruent right correct Early 13.204
204 133 LeftSmaller PercCBExp1 Prime_6N Target_9A MDECfgI hEAfDKm Congruent right error Normal 2285.029
204 134 LeftSmaller PercCBExp1 Prime_4A Target_1A edamfhb IaibegD Congruent right error Early 2.952083
204 135 LeftSmaller PercCBExp1 Prime_4A Target_4N cLCfFGm mjFeGbk Congruent right error Early 2.733084
204 136 LeftSmaller PercCBExp1 Prime_6A Target_9A iBDjhae lkKhAdg Congruent right error Early 2.769251
204 137 LeftSmaller PercCBExp1 Prime_9A Target_9N jBCMmah KEAejai Congruent right error Early 3.079975
204 138 LeftSmaller PercCBExp1 Prime_1N Target_1A EkbdKmh mJAbEGg Congruent right error Normal 2415.38
204 139 LeftSmaller PercCBExp1 Prime_4A Target_6A kAdClLe MdELaIF Incongruent right correct Normal 2101.193
204 140 LeftSmaller PercCBExp1 Prime_9N Target_6A dAgBime bKdkmIM Congruent right error Early 22.56899
204 141 LeftSmaller PercCBExp1 Prime_9N Target_1N cELjmFK FdkEmjD Incongruent right correct Early 53.53684
204 142 LeftSmaller PercCBExp1 Prime_1N Target_6N iadIKbE AIEBDML Incongruent right correct Early 45.48024
204 143 LeftSmaller PercCBExp1 Prime_1A Target_1A DlAajiH mIelacG Congruent right error Normal 217.5081
204 144 LeftSmaller PercCBExp1 Prime_1N Target_9A mBfJebi CdFcbEk Incongruent right correct Late 6827.987
204 145 LeftSmaller PercCBExp1 Prime_4A Target_9A jeJCMDH JBFHMhm Incongruent right correct Early 2.904177
204 146 LeftSmaller PercCBExp1 Prime_9N Target_9A gAaIJkG HFBjAhD Congruent right error Early 2.833601
204 147 LeftSmaller PercCBExp1 Prime_6A Target_6N AMgEbmI DblEgmj Congruent right error Early 3.124459
204 148 LeftSmaller PercCBExp1 Prime_6A Target_9N KaEDMCe hGdKcMm Congruent right error Early 72.02551
204 149 LeftSmaller PercCBExp1 Prime_9N Target_4A LFKgaHM KMfLgBi Incongruent right correct Early 11.39406
204 150 LeftSmaller PercCBExp1 Prime_6N Target_4A jFDaIke BdeDHMh Incongruent right correct Early 38.79157
204 151 LeftSmaller PercCBExp1 Prime_9A Target_4N EgDCmiK HBJakDM Incongruent right correct Early 2.912113
204 152 LeftSmaller PercCBExp1 Prime_1N Target_9N EgeBHGA cMHBCJF Incongruent right correct Normal 4100.302
204 153 LeftSmaller PercCBExp1 Prime_9A Target_1N hlCGjka gEhacil Incongruent right correct Early 2.965552
204 154 LeftSmaller PercCBExp1 Prime_4A Target_9N lCjJbMd caCAHfi Incongruent right correct Early 2.916391
204 155 LeftSmaller PercCBExp1 Prime_4N Target_9N fiBlIjg aehAFdj Incongruent right correct Early 2.722191
204 156 LeftSmaller PercCBExp1 Prime_4N Target_6A IAcGkmC cCGegmh Incongruent right correct Early 3.00687
204 157 LeftSmaller PercCBExp1 Prime_1A Target_6N HmcLFCJ eAHkCjI Incongruent right correct Early 2.891801
204 158 LeftSmaller PercCBExp1 Prime_1A Target_4N LCamkFc IeFkEgj Congruent right error Early 2.928586
204 159 LeftSmaller PercCBExp1 Prime_9N Target_9N gKAhLId afJkAIe Congruent right error Normal 2421.265
204 160 LeftSmaller PercCBExp1 Prime_9N Target_4N gflGdAa fHaEgiB Incongruent right correct Early 2.78231
204 161 LeftSmaller PercCBExp1 Prime_1A Target_4A jdJMCGI JLmGFDk Congruent right error Normal 2698.43
204 162 LeftSmaller PercCBExp1 Prime_1A Target_9N FLcjChd aMBihdm Incongruent right correct Normal 3457.324
204 163 LeftSmaller PercCBExp1 Prime_6A Target_1A bDmAlKk fcdAmCL Incongruent right correct Early 2.869122
204 164 LeftSmaller PercCBExp1 Prime_6N Target_4N ABKdHMF mjEBCKM Incongruent right correct Early 2.779107
204 165 LeftSmaller PercCBExp1 Prime_9A Target_6A CblHBmk ahHiJbG Congruent right error Normal 2073.985
204 166 LeftSmaller PercCBExp1 Prime_9N Target_1A bBEJgKm CHKBaFg Incongruent right correct Early 3.030139
204 167 LeftSmaller PercCBExp1 Prime_4N Target_1N JcKimGB MDICfkL Congruent right error Early 2.76369
204 168 LeftSmaller PercCBExp1 Prime_6N Target_1A HABFLcG JGFjMfH Incongruent right correct Early 3.246744
204 169 LeftSmaller PercCBExp1 Prime_1A Target_1N IEGaebk LHEAgfJ Congruent right error Normal 3072.521
204 170 LeftSmaller PercCBExp1 Prime_9A Target_6N BakgbHK fJKFaAj Congruent right error Early 2.84303
204 171 LeftSmaller PercCBExp1 Prime_1N Target_1N fjkJCKc FfkIJKm Congruent right error Normal 2716.712
204 172 LeftSmaller PercCBExp1 Prime_4N Target_1A CjGkLFB CDcIdgf Congruent right error Early 3.096866
204 173 LeftSmaller PercCBExp1 Prime_1N Target_6A hBcLkCJ lGfkLjc Incongruent right correct Early 2.875747
204 174 LeftSmaller PercCBExp1 Prime_4N Target_4A MkeacGj HmAjgEM Congruent right error Late 8947.391
204 175 LeftSmaller PercCBExp1 Prime_6N Target_6N MijGFec HIjcLgM Congruent right error Early 2.990779
204 176 LeftSmaller PercCBExp1 Prime_1N Target_4A fAlkCGI iclgEmj Congruent right error Normal 3393.376
205 1 LeftLarger PercCAPrac Prime_9N Target_6N CcfiJBj GKgcdME Congruent right correct Normal 345.1606
205 2 LeftLarger PercCAPrac Prime_6N Target_4N mBMdbEj mgFfbIE Incongruent left correct Normal 283.8195
205 3 LeftLarger PercCAPrac Prime_4N Target_1A bmeEJiI EcChAmD Congruent right correct Early 57.02034
205 4 LeftLarger PercCAPrac Prime_1A Target_6N CbMEmhj mBcMjKg Incongruent left correct Early 43.87082
205 5 LeftLarger PercCAPrac Prime_9N Target_1A mfdMhCc AimHhlb Incongruent left correct Early 8.997928
205 6 LeftLarger PercCAPrac Prime_9A Target_9N CidJKBD FLBCaDj Congruent right correct Early 2.904476
205 7 LeftLarger PercCAPrac Prime_4N Target_6N lLhDFJe dFhEcBA Incongruent left correct Early 2.941048
205 8 LeftLarger PercCAPrac Prime_9N Target_9N JCFDdMj ABfMEmJ Congruent right correct Early 75.29407
205 9 LeftLarger PercCAPrac Prime_4A Target_6A BDHKcCh GJFcfkB Incongruent right error Early 78.70052
205 10 LeftLarger PercCAPrac Prime_4A Target_9N KgmEBGi JdAjHhK Incongruent left correct Normal 576.725
205 11 LeftLarger PercCAPrac Prime_6A Target_1N KGhIHJm KlFekHh Incongruent right error Normal 128.279
205 12 LeftLarger PercCAPrac Prime_6N Target_1N kGhljda CDMibBL Incongruent left correct Early 47.33544
205 13 LeftLarger PercCAPrac Prime_9A Target_4A EIjcBid LdCbhIM Incongruent right error Early 77.25201
205 14 LeftLarger PercCAPrac Prime_6N Target_9A MgCHKaE IikJhmf Congruent left error Normal 139.5489
205 15 LeftLarger PercCAPrac Prime_9A Target_9A ICHGDJm GejbldJ Congruent right correct Early 84.61475
205 16 LeftLarger PercCAPrac Prime_1N Target_4N cidGebA maCJBKM Congruent left error Normal 518.3026
205 17 LeftLarger PercCAExp1 Prime_4N Target_4N EIHALdC DjCMBgF Congruent right correct Normal 259.2979
205 18 LeftLarger PercCAExp1 Prime_6N Target_9A aEDBMAc aMDbiAE Congruent left error Early 62.71194
205 19 LeftLarger PercCAExp1 Prime_9A Target_4N GFIgcdM cKgLCal Incongruent right error Early 70.98682
205 20 LeftLarger PercCAExp1 Prime_4N Target_1N FDAjHim GheHbfM Congruent left error Normal 498.0228
205 21 LeftLarger PercCAExp1 Prime_1N Target_4N mAfFaKL EhBCImH Congruent right correct Normal 115.0649
205 22 LeftLarger PercCAExp1 Prime_1A Target_1A LhBHlge iHJMBhK Congruent left error Early 3.071287
205 23 LeftLarger PercCAExp1 Prime_1N Target_6A IGijdcJ mCHjcKk Incongruent right error Early 3.01483
205 24 LeftLarger PercCAExp1 Prime_1N Target_6N gmHiIlf dkHEGjB Incongruent left correct Normal 356.2392
205 25 LeftLarger PercCAExp1 Prime_1N Target_1A Bgihaml lbGIcEB Congruent right correct Normal 252.7219
205 26 LeftLarger PercCAExp1 Prime_4N Target_1A fGdALiF GbAMCld Congruent left error Normal 150.8814
205 27 LeftLarger PercCAExp1 Prime_9N Target_6A ghJACfj mMlFHLd Congruent right correct Early 69.02824
205 28 LeftLarger PercCAExp1 Prime_6A Target_1N BfJDeAa hEgkMFD Incongruent left correct Normal 232.9276
205 29 LeftLarger PercCAExp1 Prime_9A Target_6N iMCkGKa BMIFhiH Congruent right correct Normal 112.3544
205 30 LeftLarger PercCAExp1 Prime_6N Target_1A HGfjlbL aJdhcMj Incongruent left correct Normal 121.3808
205 31 LeftLarger PercCAExp1 Prime_1A Target_9A gLckfem eGKCIdl Incongruent left correct Early 51.7785
205 32 LeftLarger PercCAExp1 Prime_6A Target_9A faAhDGc LFBGaIH Congruent right correct Early 10.89727
205 33 LeftLarger PercCAExp1 Prime_1N Target_9N DLhIEAG ICBklJj Incongruent right error Early 20.1478
205 34 LeftLarger PercCAExp1 Prime_4N Target_9N MiacmHA fMEbAIi Incongruent left correct Early 30.92662
205 35 LeftLarger PercCAExp1 Prime_1N Target_4A HFBciGd hbmDgKj Congruent right correct Early 34.46267
205 36 LeftLarger PercCAExp1 Prime_4N Target_6N HKbLGcD hBbGFgd Incongruent left correct Early 3.164319
205 37 LeftLarger PercCAExp1 Prime_1A Target_4N fhmFaIk fFBECea Congruent left error Early 83.40577
205 38 LeftLarger PercCAExp1 Prime_1A Target_1N KfDhaIl chBmjkd Congruent right correct Early 2.856572
205 39 LeftLarger PercCAExp1 Prime_9N Target_9N gAHKIJc MKdJkLi Congruent left error Early 37.61291
205 40 LeftLarger PercCAExp1 Prime_4A Target_6N ChmjdJA cJeFAgE Incongruent right error Normal 395.559
205 41 LeftLarger PercCAExp1 Prime_6N Target_6A blCJBcI MdCDkfm Congruent right correct Early 67.10195
205 42 LeftLarger PercCAExp1 Prime_6N Target_9N baDmcEM bELeMID Congruent left error Early 61.78205
205 43 LeftLarger PercCAExp1 Prime_1A Target_6N ahCdEeB bdHjecF Incongruent right error Early 49.56477
205 44 LeftLarger PercCAExp1 Prime_9N Target_1A CcMKDBI kAldFHb Incongruent left correct Normal 257.5121
205 45 LeftLarger PercCAExp1 Prime_9N Target_4A LfBbEgl LcegHFE Incongruent left correct Early 97.13357
205 46 LeftLarger PercCAExp1 Prime_4A Target_6A ALKkGJg FHDKbIl Incongruent right error Normal 107.2088
205 47 LeftLarger PercCAExp1 Prime_6A Target_9N CFEbGmh IDmlfBF Congruent right correct Normal 141.1225
205 48 LeftLarger PercCAExp1 Prime_9A Target_9N fMgGBIb efaFhcH Congruent left error Early 55.41528
205 49 LeftLarger PercCAExp1 Prime_4A Target_9N MhCGmLB miglCkh Incongruent right error Normal 114.5529
205 50 LeftLarger PercCAExp1 Prime_6A Target_4N bghJEcj jCDdbHl Incongruent left correct Early 2.657034
205 51 LeftLarger PercCAExp1 Prime_1A Target_6A lMdKeGi JAkajHe Incongruent left correct Normal 211.3661
205 52 LeftLarger PercCAExp1 Prime_9A Target_6A IHjBMGe eMEchib Congruent right correct Early 82.27143
205 53 LeftLarger PercCAExp1 Prime_9N Target_6N dikjKlf HlcICDb Congruent left error Early 6.760256
205 54 LeftLarger PercCAExp1 Prime_6N Target_6N mAJhLHd mHaGkBJ Congruent left error Early 34.58393
205 55 LeftLarger PercCAExp1 Prime_4A Target_1N haKbFHA FcJMgbI Congruent right correct Early 70.1429
205 56 LeftLarger PercCAExp1 Prime_1N Target_1N kEJMdfD fhEDjma Congruent left error Normal 226.2974
205 57 LeftLarger PercCAExp1 Prime_9A Target_4A eAiBgFa HbCAlMh Incongruent right error Early 2.898917
205 58 LeftLarger PercCAExp1 Prime_4A Target_9A kGjelBc gKaDCEf Incongruent right error Early 2.992375
205 59 LeftLarger PercCAExp1 Prime_6N Target_4A fJkbdGe BLFfAlG Incongruent left correct Normal 113.0221
205 60 LeftLarger PercCAExp1 Prime_9A Target_1N fMckGBb BClHGhA Incongruent right error Early 73.16354
205 61 LeftLarger PercCAExp1 Prime_1A Target_4A cEfMliD lmKJbGj Congruent left error Early 37.74871
205 62 LeftLarger PercCAExp1 Prime_6A Target_6A GFAKlLE GiIBlhf Congruent right correct Normal 482.5682
205 63 LeftLarger PercCAExp1 Prime_4N Target_4A MDLhCiH JhLeDdG Congruent left error Normal 106.4213
205 64 LeftLarger PercCAExp1 Prime_6N Target_1N dFjEhDe IJCKEcB Incongruent right error Early 2.784282
205 65 LeftLarger PercCAExp1 Prime_9A Target_1A bAaHMij IDKkEaL Incongruent left correct Early 39.59223
205 66 LeftLarger PercCAExp1 Prime_4A Target_4A ICbgLia kLiJbKm Congruent right correct Early 72.91289
205 67 LeftLarger PercCAExp1 Prime_9N Target_9A LgFcmiD aFHEcCj Congruent left error Early 2.891644
205 68 LeftLarger PercCAExp1 Prime_4N Target_6A KFmHMfk HCfEike Incongruent right error Normal 163.8453
205 69 LeftLarger PercCAExp1 Prime_9N Target_1N jCcfbFH dAFieJk Incongruent left correct Normal 133.7247
205 70 LeftLarger PercCAExp1 Prime_1N Target_9A chaHlAE eGBKcDd Incongruent right error Normal 2775.763
205 71 LeftLarger PercCAExp1 Prime_6N Target_4N jIiFkEL DJHelmB Incongruent left correct Normal 237.3593
205 72 LeftLarger PercCAExp1 Prime_4N Target_9A DKMhBGI ieLAMcD Incongruent right error Early 67.91849
205 73 LeftLarger PercCAExp1 Prime_9N Target_4N BHaCFKJ LkMEAcf Incongruent left correct Early 99.60693
205 74 LeftLarger PercCAExp1 Prime_6A Target_6N aEmBIHM BmLbEac Congruent right correct Normal 186.5967
205 75 LeftLarger PercCAExp1 Prime_9A Target_9A KaEBCAJ AjBabfi Congruent right correct Normal 119.5698
205 76 LeftLarger PercCAExp1 Prime_4A Target_1A EmLJDCb ljFfhHK Congruent left error Early 25.21534
205 77 LeftLarger PercCAExp1 Prime_1A Target_9N HdflhcL FHbLmgd Incongruent left correct Early 96.1699
205 78 LeftLarger PercCAExp1 Prime_4A Target_4N CEDBJdb KlHhiDj Congruent right correct Early 64.73895
205 79 LeftLarger PercCAExp1 Prime_6A Target_1A GkIKCAc fLJhAdF Incongruent right error Early 86.31755
205 80 LeftLarger PercCAExp1 Prime_6A Target_4A EhKbecH idaBGFk Incongruent left correct Early 2.882663
205 81 LeftSmaller PercCBPrac Prime_4A Target_9A AjDkHdC eGdIlJH Incongruent right correct Normal 195.6458
205 82 LeftSmaller PercCBPrac Prime_1A Target_1A FilIEAb LEalkCF Congruent left correct Early 67.70334
205 83 LeftSmaller PercCBPrac Prime_9N Target_6N khjiJMe LkFadMc Congruent left correct Early 52.9894
205 84 LeftSmaller PercCBPrac Prime_9A Target_9A mhlGcjE DHdKBLC Congruent right error Early 56.79471
205 85 LeftSmaller PercCBPrac Prime_9N Target_4N bdKkGFf KlHbdCI Incongruent left error Normal 167.1756
205 86 LeftSmaller PercCBPrac Prime_4A Target_6N DJGLmEB ciJBMHl Incongruent left error Normal 186.873
205 87 LeftSmaller PercCBPrac Prime_4N Target_6N FaCicDE EDKMihI Incongruent right correct Normal 111.0368
205 88 LeftSmaller PercCBPrac Prime_6N Target_6A lgjCdeH AKIeFmE Congruent right error Normal 109.0707
205 89 LeftSmaller PercCBPrac Prime_9N Target_6A dAJjbIG eCkjgbD Congruent left correct Normal 108.233
205 90 LeftSmaller PercCBPrac Prime_6A Target_4N djAcIek MAfLKmB Incongruent right correct Normal 116.2649
205 91 LeftSmaller PercCBPrac Prime_6N Target_9A JChiGMa IDhfEeB Congruent left correct Early 32.96048
205 92 LeftSmaller PercCBPrac Prime_6A Target_6A ekFhHlM kFLcgfe Congruent right error Early 2.798613
205 93 LeftSmaller PercCBPrac Prime_6A Target_9N kHcGCMi IgJAdek Congruent right error Early 36.0226
205 94 LeftSmaller PercCBPrac Prime_4A Target_6A mkKDjFJ gFEmlJM Incongruent left error Early 83.0283
205 95 LeftSmaller PercCBPrac Prime_9A Target_6N fedikjm daibJKA Congruent right error Early 57.77186
205 96 LeftSmaller PercCBPrac Prime_4A Target_4N JbKfEDM cibLJEj Congruent left correct Early 74.2288
205 97 LeftSmaller PercCBExp1 Prime_9A Target_1A imkLcAg GcMheLF Incongruent right correct Normal 187.6994
205 98 LeftSmaller PercCBExp1 Prime_4N Target_6A cCIgaLJ JjBbeGA Incongruent left error Early 34.02039
205 99 LeftSmaller PercCBExp1 Prime_9A Target_4A IeFjCgi LkihcCB Incongruent right correct Early 52.03407
205 100 LeftSmaller PercCBExp1 Prime_1A Target_1A iICGfcK lkjbEBL Congruent left correct Early 83.2952
205 101 LeftSmaller PercCBExp1 Prime_1A Target_6A kKeiCIb JmdGcDC Incongruent right correct Early 30.36971
205 102 LeftSmaller PercCBExp1 Prime_1A Target_6N aLdilkB DhILBdc Incongruent left error Early 12.82206
205 103 LeftSmaller PercCBExp1 Prime_1A Target_4A CebhdKf KkIBeHC Congruent right error Early 12.72625
205 104 LeftSmaller PercCBExp1 Prime_1A Target_9A dligJKm FdMGbkJ Incongruent left error Early 61.47537
205 105 LeftSmaller PercCBExp1 Prime_1A Target_1N EAaLkKI CabKhBL Congruent right error Early 48.88661
205 106 LeftSmaller PercCBExp1 Prime_9N Target_4N jHDcgGm BbhjJAg Incongruent left error Normal 113.0206
205 107 LeftSmaller PercCBExp1 Prime_4A Target_1A JjBagAl bLKDIMa Congruent right error Normal 3109.515
205 108 LeftSmaller PercCBExp1 Prime_6A Target_6N CkKdEhF fGEKbCM Congruent left correct Normal 110.5237
205 109 LeftSmaller PercCBExp1 Prime_4N Target_1A ikMhdKF gHlFLkA Congruent right error Normal 172.1529
205 110 LeftSmaller PercCBExp1 Prime_4A Target_9N CGbBmef geGambB Incongruent left error Early 2.893999
205 111 LeftSmaller PercCBExp1 Prime_6A Target_6A LieDKhd mcgkjKI Congruent right error Early 26.5582
205 112 LeftSmaller PercCBExp1 Prime_6A Target_4N gAmadej McFhADg Incongruent left error Normal 110.7448
205 113 LeftSmaller PercCBExp1 Prime_6A Target_9N EeAfdbH JBhclIi Congruent right error Early 55.32032
205 114 LeftSmaller PercCBExp1 Prime_9A Target_1N JILHMFl ciblBCf Incongruent left error Early 97.8235
205 115 LeftSmaller PercCBExp1 Prime_4A Target_4A LfGdjFc eHhkjCF Congruent left correct Early 99.10413
205 116 LeftSmaller PercCBExp1 Prime_6N Target_1N DFMELil HMeAClI Incongruent right correct Early 29.1109
205 117 LeftSmaller PercCBExp1 Prime_6A Target_9A LDdAEFJ IbkDfBd Congruent right error Normal 106.4605
205 118 LeftSmaller PercCBExp1 Prime_4N Target_9A CJKLGBm eGaDAgE Incongruent left error Early 46.13801
205 119 LeftSmaller PercCBExp1 Prime_9N Target_6A cLDHkGI dAaeHjE Congruent right error Early 38.86766
205 120 LeftSmaller PercCBExp1 Prime_6N Target_1A MJDGBbL MIBgbJm Incongruent right correct Early 37.08552
205 121 LeftSmaller PercCBExp1 Prime_4N Target_4A EJkGMHD HCBakDA Congruent left correct Early 41.13805
205 122 LeftSmaller PercCBExp1 Prime_9N Target_1N kLeJBFl MaAkhCG Incongruent right correct Early 46.78837
205 123 LeftSmaller PercCBExp1 Prime_9A Target_6A lBbighF KbefcmA Congruent left correct Early 81.28786
205 124 LeftSmaller PercCBExp1 Prime_9A Target_9N iCkGjFa FeHBcgh Congruent right error Early 18.29829
205 125 LeftSmaller PercCBExp1 Prime_1N Target_4A JKDefcm BKCFhcJ Congruent left correct Early 2.93121
205 126 LeftSmaller PercCBExp1 Prime_1A Target_9N bjEfhFe BjhHmIc Incongruent right correct Normal 152.3904
205 127 LeftSmaller PercCBExp1 Prime_6N Target_6N CkaEHJG CfIaADd Congruent left correct Early 35.08609
205 128 LeftSmaller PercCBExp1 Prime_1N Target_9A jaDmILb kgiHGBE Incongruent right correct Early 66.05294
205 129 LeftSmaller PercCBExp1 Prime_4N Target_1N jgKhHEf aMbKeAG Congruent left correct Early 2.842239
205 130 LeftSmaller PercCBExp1 Prime_4N Target_9N ijCgdJc cHbBmlj Incongruent right correct Early 67.39944
205 131 LeftSmaller PercCBExp1 Prime_4N Target_4N eFjhbJE dDKbJMB Congruent left correct Normal 141.2916
205 132 LeftSmaller PercCBExp1 Prime_6A Target_4A kMBLHGi jiDEAFL Incongruent right correct Normal 146.3648
205 133 LeftSmaller PercCBExp1 Prime_4A Target_1N EjAHKlC MJieAFj Congruent left correct Early 14.9282
205 134 LeftSmaller PercCBExp1 Prime_4N Target_6N LFdEgmJ gflkLHm Incongruent right correct Early 52.2937
205 135 LeftSmaller PercCBExp1 Prime_4A Target_6A hLbKkcH FcbliDG Incongruent left error Normal 107.7135
205 136 LeftSmaller PercCBExp1 Prime_6A Target_1A LhCDAFK gHEAMcj Incongruent right correct Early 97.75592
205 137 LeftSmaller PercCBExp1 Prime_9N Target_1A GmfIgeC gdakHDl Incongruent left error Early 67.79081
205 138 LeftSmaller PercCBExp1 Prime_4A Target_9A gmlEcLh kCLKJlh Incongruent right correct Early 84.29438
205 139 LeftSmaller PercCBExp1 Prime_6N Target_6A LDBbIda BcMbFjA Congruent left correct Early 77.34055
205 140 LeftSmaller PercCBExp1 Prime_1N Target_1N hbkcAmK LGFElId Congruent right error Normal 136.1458
205 141 LeftSmaller PercCBExp1 Prime_9N Target_4A CbEhGfH IbDJFgd Incongruent left error Normal 213.8374
205 142 LeftSmaller PercCBExp1 Prime_9A Target_6N EHgJLib FdmGEJM Congruent right error Normal 251.8986
205 143 LeftSmaller PercCBExp1 Prime_4A Target_6N IhGdgFM mLKlHef Incongruent left error Normal 267.8574
205 144 LeftSmaller PercCBExp1 Prime_9A Target_4N HbBGACh dklLIjM Incongruent right correct Early 82.4113
205 145 LeftSmaller PercCBExp1 Prime_6N Target_4A KcFklLm jIglbEf Incongruent left error Early 53.68254
205 146 LeftSmaller PercCBExp1 Prime_9N Target_6N KbELcBg djBcGFL Congruent right error Normal 136.118
205 147 LeftSmaller PercCBExp1 Prime_9N Target_9A bDHkdCG KAdJfbL Congruent left correct Normal 139.8386
205 148 LeftSmaller PercCBExp1 Prime_1N Target_6N chKkabG MDbFBIm Incongruent right correct Normal 168.1247
205 149 LeftSmaller PercCBExp1 Prime_1N Target_6A DBAeFCj cMgJfbC Incongruent left error Early 83.09459
205 150 LeftSmaller PercCBExp1 Prime_1A Target_4N iHGJKhE mkHeIFf Congruent right error Normal 148.188
205 151 LeftSmaller PercCBExp1 Prime_1N Target_4N fgGEcAB JCGEAam Congruent left correct Normal 178.9129
205 152 LeftSmaller PercCBExp1 Prime_6N Target_4N BjmkKel CJFlIBa Incongruent right correct Normal 114.2065
205 153 LeftSmaller PercCBExp1 Prime_1N Target_1A AlmLeIk ceEFlCh Congruent right error Early 2.935487
205 154 LeftSmaller PercCBExp1 Prime_9A Target_9A BCIGHML JMedgil Congruent left correct Normal 440.8741
205 155 LeftSmaller PercCBExp1 Prime_6N Target_9N GcgIFaA BFKCaGg Congruent left correct Normal 781.2882
205 156 LeftSmaller PercCBExp1 Prime_9N Target_9N CGkmMEf abCkKMG Congruent left correct Early 11.25485
205 157 LeftSmaller PercCBExp1 Prime_6N Target_9A KLfcdgH JiMhgdK Congruent left correct Early 57.4994
205 158 LeftSmaller PercCBExp1 Prime_1N Target_9N KMfAFLa HdCbkec Incongruent right correct Early 95.53408
205 159 LeftSmaller PercCBExp1 Prime_4A Target_4N gaJiBed diDhlFM Congruent right error Normal 134.6881
205 160 LeftSmaller PercCBExp1 Prime_6A Target_1N KkbmHCF MFbigak Incongruent left error Normal 102.7433
206 1 LeftLarger PercCAPrac Prime_9N Target_9A BADlFEm iGfBgHl Congruent left error Normal 1476.033
206 2 LeftLarger PercCAPrac Prime_6A Target_4N FcabfMI LHJmKBa Incongruent left correct Normal 1312.337
206 3 LeftLarger PercCAPrac Prime_1A Target_9A ckBmFHM hICbcGa Incongruent right error Normal 560.6483
206 4 LeftLarger PercCAPrac Prime_4A Target_6N aGjbcie adAmHeG Incongruent right error Normal 913.9222
206 5 LeftLarger PercCAPrac Prime_1A Target_6A GafIMAh jAbBMfI Incongruent left correct Normal 881.6882
206 6 LeftLarger PercCAPrac Prime_1A Target_1A fGkJELB DMfbmJB Congruent right correct Normal 1141.271
206 7 LeftLarger PercCAPrac Prime_1A Target_9N kHeifFC AaFgLfC Incongruent left correct Normal 1605.324
206 8 LeftLarger PercCAPrac Prime_4N Target_1A DblLekm FabkGlc Congruent right correct Normal 1943.689
206 9 LeftLarger PercCAPrac Prime_4N Target_9A JiIheGC cChEeJg Incongruent left correct Normal 1131.319
206 10 LeftLarger PercCAPrac Prime_4N Target_4N GjEClMJ eDlkbjh Congruent left error Normal 1461.147
206 11 LeftLarger PercCAPrac Prime_4N Target_6N haBjCiK jfbemhJ Incongruent right error Normal 1473.302
206 12 LeftLarger PercCAPrac Prime_4A Target_1A LAlDFGk DhlcFEk Congruent left error Normal 1576.339
206 13 LeftLarger PercCAPrac Prime_1A Target_4A KfjEkMb GgHfADh Congruent left error Normal 1657.971
206 14 LeftLarger PercCAPrac Prime_9A Target_1A jJHFEGA bijgMHd Incongruent right error Normal 1473.507
206 15 LeftLarger PercCAPrac Prime_4A Target_9N dMLgKBa JlEHdfg Incongruent right error Normal 1166.329
206 16 LeftLarger PercCAPrac Prime_6A Target_4A jibHDkB dCmDGlJ Incongruent left correct Normal 922.9841
206 17 LeftLarger PercCAExp1 Prime_6N Target_1N MKEiBFD aEFHCiI Incongruent left correct Normal 811.6894
206 18 LeftLarger PercCAExp1 Prime_6N Target_6N hIABFCE LjlGMgJ Congruent left error Normal 878.319
206 19 LeftLarger PercCAExp1 Prime_4A Target_1A lJhFEAB KJlmcHA Congruent right correct Normal 638.0334
206 20 LeftLarger PercCAExp1 Prime_9A Target_1N CaHAfkg efjKaGC Incongruent right error Normal 826.0802
206 21 LeftLarger PercCAExp1 Prime_9A Target_4A EmDCJiB LiEaHhI Incongruent left correct Normal 703.5013
206 22 LeftLarger PercCAExp1 Prime_1A Target_1A JmfeFMh CcDgilF Congruent right correct Normal 1361.538
206 23 LeftLarger PercCAExp1 Prime_9N Target_1N mhaEBiD beMAgJH Incongruent right error Normal 880.2831
206 24 LeftLarger PercCAExp1 Prime_6A Target_6A AebCJfK jHCbdhc Congruent left error Normal 745.5615
206 25 LeftLarger PercCAExp1 Prime_4A Target_9N kaLgFcB jkhHlDE Incongruent left correct Normal 659.0676
206 26 LeftLarger PercCAExp1 Prime_1N Target_4A mBkJDFC aGlgDHm Congruent right correct Normal 1119.219
206 27 LeftLarger PercCAExp1 Prime_4N Target_4A gCJIDam ehFbLJC Congruent left error Normal 1110.806
206 28 LeftLarger PercCAExp1 Prime_4A Target_4A hmBDlGC GKDcBFb Congruent right correct Normal 1199.401
206 29 LeftLarger PercCAExp1 Prime_6A Target_1N LIEFHgG FIbmiLG Incongruent left correct Normal 1422.576
206 30 LeftLarger PercCAExp1 Prime_1A Target_6A AjaFIKC BAhLEKm Incongruent right error Normal 1597.333
206 31 LeftLarger PercCAExp1 Prime_4N Target_9A DHifJKM LeGifBj Incongruent right error Normal 1296.76
206 32 LeftLarger PercCAExp1 Prime_1A Target_9N LeEIMmJ dFJbAaI Incongruent left correct Normal 865.2802
206 33 LeftLarger PercCAExp1 Prime_4A Target_6A EFIHedG jDABhkE Incongruent right error Normal 2054.457
206 34 LeftLarger PercCAExp1 Prime_1A Target_1N EmglMbJ BeGAibJ Congruent left error Normal 932.7565
206 35 LeftLarger PercCAExp1 Prime_4A Target_1N AJbeMKf FMLIkej Congruent right correct Normal 781.3625
206 36 LeftLarger PercCAExp1 Prime_9N Target_4A majfDBJ EjfmDla Incongruent left correct Normal 613.6456
206 37 LeftLarger PercCAExp1 Prime_4N Target_9N CeJfkIi JlMHIme Incongruent right error Normal 1269.066
206 38 LeftLarger PercCAExp1 Prime_6N Target_6A bKGHmkc LIjBhgf Congruent right correct Normal 1579.122
206 39 LeftLarger PercCAExp1 Prime_9N Target_9A GjbDAmk dDgjkaM Congruent left error Normal 833.4216
206 40 LeftLarger PercCAExp1 Prime_6N Target_4N DCFbjEK BMmKhck Incongruent left correct Normal 944.7245
206 41 LeftLarger PercCAExp1 Prime_1N Target_1A JCKmfaj GhEjMcg Congruent left error Normal 638.1594
206 42 LeftLarger PercCAExp1 Prime_1N Target_9N mJgMDAI hCGDfIe Incongruent right error Normal 948.2851
206 43 LeftLarger PercCAExp1 Prime_6A Target_1A JkBACMI GCMfejA Incongruent right error Normal 1495.09
206 44 LeftLarger PercCAExp1 Prime_9N Target_9N cHBKDbi DckFAeM Congruent right correct Normal 1409.035
206 45 LeftLarger PercCAExp1 Prime_6N Target_1A cdBHafg jkbIJGi Incongruent left correct Normal 999.0732
206 46 LeftLarger PercCAExp1 Prime_6N Target_4A cABedMf FKBmeib Incongruent right error Normal 1601.388
206 47 LeftLarger PercCAExp1 Prime_9A Target_4N HIhbBDf EKJFGmi Incongruent left correct Normal 1545.221
206 48 LeftLarger PercCAExp1 Prime_1N Target_1N ejCchgk EcImDBC Congruent right correct Normal 917.6039
206 49 LeftLarger PercCAExp1 Prime_1N Target_4N HKEDdiF CfIbFlh Congruent right correct Normal 959.5867
206 50 LeftLarger PercCAExp1 Prime_4A Target_9A kgDmIHc CjglkBA Incongruent left correct Normal 996.4946
206 51 LeftLarger PercCAExp1 Prime_4N Target_1N bGKMeLI iFMIEmD Congruent left error Normal 1557.81
206 52 LeftLarger PercCAExp1 Prime_4N Target_6N lBbKJHi KbcakHf Incongruent right error Normal 1034.226
206 53 LeftLarger PercCAExp1 Prime_6N Target_9N idgKHlb Gbdlcmj Congruent left error Normal 923.5737
206 54 LeftLarger PercCAExp1 Prime_6A Target_9A bdFKJGf HMEjKCl Congruent right correct Normal 1208.312
206 55 LeftLarger PercCAExp1 Prime_6A Target_4A jJdcCBk FACIGaD Incongruent left correct Normal 594.6331
206 56 LeftLarger PercCAExp1 Prime_1N Target_6A GhMkjBE meGKjka Incongruent left correct Normal 935.6619
206 57 LeftLarger PercCAExp1 Prime_4A Target_4N MaijBcD ChdHLiF Congruent left error Normal 1288.542
206 58 LeftLarger PercCAExp1 Prime_9A Target_9A kIFBMlb lGIBhFc Congruent right correct Normal 684.2889
206 59 LeftLarger PercCAExp1 Prime_9A Target_1A IFBhCmM JfBmAIL Incongruent right error Normal 874.0532
206 60 LeftLarger PercCAExp1 Prime_4N Target_1A elaJKDB ljLDhad Congruent left error Normal 652.6412
206 61 LeftLarger PercCAExp1 Prime_1A Target_6N CJHGEbK LIlEAmk Incongruent right error Normal 1013.272
206 62 LeftLarger PercCAExp1 Prime_1N Target_9A bAlaFdE JhIaMcF Incongruent right error Normal 959.3242
206 63 LeftLarger PercCAExp1 Prime_9A Target_9N dmAalKB mhJfKla Congruent left error Normal 1040.867
206 64 LeftLarger PercCAExp1 Prime_9A Target_6N KdbHLCj hbDcFJE Congruent left error Normal 747.4611
206 65 LeftLarger PercCAExp1 Prime_9N Target_6N jLKBlJa BHIlcME Congruent right correct Normal 1067.468
206 66 LeftLarger PercCAExp1 Prime_4N Target_6A KaibLGM KedkDcl Incongruent right error Normal 998.1508
206 67 LeftLarger PercCAExp1 Prime_9N Target_1A gDFcfeK ADJaeCF Incongruent left correct Normal 1101.824
206 68 LeftLarger PercCAExp1 Prime_6A Target_4N mfdlJeG MFCgGHk Incongruent right error Normal 1611.144
206 69 LeftLarger PercCAExp1 Prime_6A Target_6N KHfMJlF cFJjfgA Congruent left error Normal 623.5855
206 70 LeftLarger PercCAExp1 Prime_4N Target_4N iBCFDEk flMeEmj Congruent left error Normal 1149.876
206 71 LeftLarger PercCAExp1 Prime_1A Target_9A dHBibDM hHbJfak Incongruent right error Normal 683.0446
206 72 LeftLarger PercCAExp1 Prime_6A Target_9N dKDlEjH aFjJgbl Congruent left error Normal 710.6772
206 73 LeftLarger PercCAExp1 Prime_9N Target_4N femcgKl cIiDHFB Incongruent right error Normal 969.827
206 74 LeftLarger PercCAExp1 Prime_9N Target_6A CacdKDI agkbFAh Congruent right correct Normal 1143.164
206 75 LeftLarger PercCAExp1 Prime_1N Target_6N cKbHIla kLDfEdG Incongruent left correct Normal 958.1337
206 76 LeftLarger PercCAExp1 Prime_1A Target_4A BmhjeIL fGheMDA Congruent right correct Normal 1225.905
206 77 LeftLarger PercCAExp1 Prime_6N Target_9A fbdliDG mledkhD Congruent left error Normal 1019.665
206 78 LeftLarger PercCAExp1 Prime_1A Target_4N lkdHefD HjGbmMc Congruent right correct Normal 836.8595
206 79 LeftLarger PercCAExp1 Prime_4A Target_6N CLFgabK iIbHDeg Incongruent left correct Normal 542.1228
206 80 LeftLarger PercCAExp1 Prime_9A Target_6A egMLaiK GkFMEaJ Congruent right correct Normal 995.8614
206 81 LeftSmaller PercCBPrac Prime_9A Target_4A dADLibe BAHekDf Incongruent left error Normal 1615.915
206 82 LeftSmaller PercCBPrac Prime_6N Target_1A FaBhbgH EechbKl Incongruent right correct Normal 1003.5
206 83 LeftSmaller PercCBPrac Prime_6N Target_4A HAgiebG fcejkgh Incongruent right correct Normal 1069.611
206 84 LeftSmaller PercCBPrac Prime_9N Target_1A bMeKiDC GkfBeJm Incongruent left error Normal 926.3249
206 85 LeftSmaller PercCBPrac Prime_1A Target_1A kfCHJlF mIHfLFK Congruent right error Normal 950.776
206 86 LeftSmaller PercCBPrac Prime_9A Target_4N KHkmcgl GgJCifb Incongruent left error Normal 527.1853
206 87 LeftSmaller PercCBPrac Prime_1A Target_9N dmiALDe emiaEdg Incongruent right correct Normal 468.6142
206 88 LeftSmaller PercCBPrac Prime_1N Target_9A jgBAklf aDfIMFe Incongruent left error Normal 826.157
206 89 LeftSmaller PercCBPrac Prime_9N Target_1N cmaHbdA KaiLdjf Incongruent right correct Normal 1076.278
206 90 LeftSmaller PercCBPrac Prime_4A Target_4A cbBAfdj mMHFJkf Congruent right error Normal 1083.479
206 91 LeftSmaller PercCBPrac Prime_4A Target_1A ieMABIG FEHkMhc Congruent left correct Normal 1935.924
206 92 LeftSmaller PercCBPrac Prime_1N Target_4N icBIFhk FemAjJD Congruent right error Normal 1163.243
206 93 LeftSmaller PercCBPrac Prime_9A Target_6N FidBlfJ LCakJcF Congruent left correct Normal 833.5403
206 94 LeftSmaller PercCBPrac Prime_1N Target_1N febdlcA lckmaLd Congruent left correct Normal 739.5072
206 95 LeftSmaller PercCBPrac Prime_1A Target_9A JGFLdBl lLDAfhM Incongruent right correct Normal 723.01
206 96 LeftSmaller PercCBPrac Prime_4N Target_1A mJAEIcj klCiLAD Congruent right error Normal 1597.407
206 97 LeftSmaller PercCBExp1 Prime_1N Target_9N DlAKLmF EaDckFK Incongruent left error Normal 793.853
206 98 LeftSmaller PercCBExp1 Prime_1A Target_4A mejJgKM IlFDJMk Congruent right error Normal 984.4232
206 99 LeftSmaller PercCBExp1 Prime_9A Target_1A dmMckIE hjLaieF Incongruent right correct Normal 740.9491
206 100 LeftSmaller PercCBExp1 Prime_6N Target_6A kgMbKDF DjebkFf Congruent left correct Normal 693.8273
206 101 LeftSmaller PercCBExp1 Prime_9N Target_9N bHJgeEL fCdiMkI Congruent left correct Normal 952.92
206 102 LeftSmaller PercCBExp1 Prime_1A Target_9A KamlBjg lFHgbIh Incongruent right correct Normal 830.8232
206 103 LeftSmaller PercCBExp1 Prime_9N Target_9A fEaIgkh gbBJmLl Congruent right error Normal 391.2478
206 104 LeftSmaller PercCBExp1 Prime_6N Target_6N MCdIhJf lbGgIji Congruent left correct Normal 738.1787
206 105 LeftSmaller PercCBExp1 Prime_1N Target_4N BmaLFKb KFjceMC Congruent right error Normal 964.9686
206 106 LeftSmaller PercCBExp1 Prime_1A Target_9N AGiJELa kGIgldB Incongruent right correct Normal 826.9808
206 107 LeftSmaller PercCBExp1 Prime_1N Target_1A ajikhAg IHdjcJG Congruent left correct Normal 435.2936
206 108 LeftSmaller PercCBExp1 Prime_4N Target_9N HFJKgem mCLHiGI Incongruent left error Normal 479.8522
206 109 LeftSmaller PercCBExp1 Prime_9N Target_4A ghBDdGc dMEDbLc Incongruent right correct Normal 500.8789
206 110 LeftSmaller PercCBExp1 Prime_1A Target_6N CbEIhBj AEfFkGI Incongruent left error Normal 525.3208
206 111 LeftSmaller PercCBExp1 Prime_4N Target_9A CMgdiFK LMjbKJc Incongruent left error Normal 849.3444
206 112 LeftSmaller PercCBExp1 Prime_1A Target_6A fFBiJha gcbiKeI Incongruent right correct Normal 985.7513
206 113 LeftSmaller PercCBExp1 Prime_1A Target_1A Mehflmj jkIhMBE Congruent right error Normal 1018.243
206 114 LeftSmaller PercCBExp1 Prime_9N Target_1N MIhCkJe JiMcAfj Incongruent left error Normal 1338.848
206 115 LeftSmaller PercCBExp1 Prime_9N Target_4N jJFKHcb KEbHGej Incongruent left error Normal 1591.298
206 116 LeftSmaller PercCBExp1 Prime_4N Target_6N bBmiMel jbeaKdC Incongruent right correct Normal 1134.613
206 117 LeftSmaller PercCBExp1 Prime_6N Target_4N FKLkHAh gMhDjEA Incongruent left error Normal 751.7696
206 118 LeftSmaller PercCBExp1 Prime_9A Target_9N eADCLEK dJklBIe Congruent right error Normal 679.5507
206 119 LeftSmaller PercCBExp1 Prime_1N Target_6A JlGkaAd BMJfkcG Incongruent left error Normal 709.7304
206 120 LeftSmaller PercCBExp1 Prime_4A Target_9A EAKFike CKJLDFH Incongruent left error Normal 573.2903
206 121 LeftSmaller PercCBExp1 Prime_4A Target_1N cbjgAhB hIaliCf Congruent right error Normal 860.345
206 122 LeftSmaller PercCBExp1 Prime_6A Target_6N aFALKck iJebMEC Congruent left correct Normal 1208.225
206 123 LeftSmaller PercCBExp1 Prime_1N Target_4A EdCBLJg lJLGEfF Congruent right error Normal 689.8248
206 124 LeftSmaller PercCBExp1 Prime_4N Target_1A JiMBHjC JkmjBKI Congruent left correct Normal 411.8545
206 125 LeftSmaller PercCBExp1 Prime_6A Target_1N DJFbcjf KMIiHAb Incongruent right correct Normal 507.6198
206 126 LeftSmaller PercCBExp1 Prime_4A Target_1A dGLmaBA EGcidMg Congruent left correct Normal 725.7049
206 127 LeftSmaller PercCBExp1 Prime_9A Target_6N JagIMhA EehBlIF Congruent right error Normal 1055.082
206 128 LeftSmaller PercCBExp1 Prime_6N Target_1A MJHLEjA hbAkHIF Incongruent right correct Normal 1197.371
206 129 LeftSmaller PercCBExp1 Prime_6A Target_1A bFBHMkA acgeLiH Incongruent right correct Normal 979.2003
206 130 LeftSmaller PercCBExp1 Prime_4A Target_4A gAMbcDh ibDIlJg Congruent left correct Normal 1054.115
206 131 LeftSmaller PercCBExp1 Prime_4N Target_6A GMBHajK mDdJagK Incongruent left error Normal 1143.674
206 132 LeftSmaller PercCBExp1 Prime_9A Target_9A hkgBJae GDCLBlm Congruent right error Normal 1111.143
206 133 LeftSmaller PercCBExp1 Prime_9N Target_6N GleMmkh ekAJBjI Congruent right error Normal 1168.248
206 134 LeftSmaller PercCBExp1 Prime_4A Target_6N hcebfaJ ICabgki Incongruent left error Normal 1312.82
206 135 LeftSmaller PercCBExp1 Prime_1N Target_6N fgGAMJB BEefcLb Incongruent right correct Normal 1131.021
206 136 LeftSmaller PercCBExp1 Prime_1A Target_1N mfglijd dKLEBHh Congruent left correct Normal 1249.82
206 137 LeftSmaller PercCBExp1 Prime_6A Target_9N FKaJbdm hcfFjID Congruent left correct Normal 1032.752
206 138 LeftSmaller PercCBExp1 Prime_9N Target_6A BDgFKie ImlJAdi Congruent left correct Normal 3875.889
206 139 LeftSmaller PercCBExp1 Prime_6N Target_9A LKJgDBk eBEFmgh Congruent right error Normal 1006.267
206 140 LeftSmaller PercCBExp1 Prime_1A Target_4N gicdKIj JDlCkmh Congruent left correct Normal 1368.822
206 141 LeftSmaller PercCBExp1 Prime_6N Target_4A eIkJEaG mDiMHjh Incongruent right correct Normal 1604.46
206 142 LeftSmaller PercCBExp1 Prime_4N Target_4A MfgBLKk aiLCKbI Congruent left correct Normal 1487.302
206 143 LeftSmaller PercCBExp1 Prime_9A Target_6A BGgJCKd fLdAmHD Congruent right error Normal 1443.748
206 144 LeftSmaller PercCBExp1 Prime_6A Target_4A BbIKFdc iAcglha Incongruent right correct Normal 1130.68
206 145 LeftSmaller PercCBExp1 Prime_6A Target_9A eGbCBFd gIJabBc Congruent left correct Normal 963.7429
206 146 LeftSmaller PercCBExp1 Prime_4A Target_6A hiKMmGB caAdJFD Incongruent right correct Normal 1341.153
206 147 LeftSmaller PercCBExp1 Prime_4A Target_4N cfIadBA aFHDhLI Congruent right error Normal 1402.618
206 148 LeftSmaller PercCBExp1 Prime_9A Target_4A AGIFMlk fKihDcL Incongruent left error Normal 889.4086
206 149 LeftSmaller PercCBExp1 Prime_1N Target_1N icHgfmj LBdjglG Congruent left correct Normal 1521.152
206 150 LeftSmaller PercCBExp1 Prime_6N Target_9N KLmHBEh bLBfDKj Congruent right error Normal 748.8874
206 151 LeftSmaller PercCBExp1 Prime_4A Target_9N jfIlGAb jGmaAci Incongruent left error Normal 979.0434
206 152 LeftSmaller PercCBExp1 Prime_9N Target_1A mFdehiM iMAFmDk Incongruent left error Normal 1093.694
206 153 LeftSmaller PercCBExp1 Prime_9A Target_1N MFfbiHc dHaIGAJ Incongruent right correct Normal 771.8932
206 154 LeftSmaller PercCBExp1 Prime_1N Target_9A FLbIKGk AdcjFkb Incongruent right correct Normal 1271.835
206 155 LeftSmaller PercCBExp1 Prime_6A Target_6A AbgFJiG CIikeFD Congruent left correct Normal 1116.876
206 156 LeftSmaller PercCBExp1 Prime_6A Target_4N aFLlMme lkfAaLm Incongruent right correct Normal 1767.97
206 157 LeftSmaller PercCBExp1 Prime_4N Target_1N kKAjGBE EkLlBdJ Congruent left correct Normal 1233.258
206 158 LeftSmaller PercCBExp1 Prime_6N Target_1N DLfgjGb bakGjil Incongruent left error Normal 985.1505
206 159 LeftSmaller PercCBExp1 Prime_4N Target_4N eDCEbAL gHMDiJf Congruent right error Normal 997.2092
206 160 LeftSmaller PercCBExp1 Prime_9A Target_4N iJAbKcC BjgDJdi Incongruent left error Normal 1353.017
207 1 LeftLarger PercCAPrac Prime_6N Target_4A blcKfEh JDBjHlF Incongruent right error Normal 1118.211
207 2 LeftLarger PercCAPrac Prime_1A Target_6A dGhaJje HGkFjhL Incongruent right error Normal 675.2708
207 3 LeftLarger PercCAPrac Prime_9N Target_4A hCbfBaD LEMbjIa Incongruent right error Normal 1218.456
207 4 LeftLarger PercCAPrac Prime_6N Target_1A dHjJLMi ALgkEFG Incongruent left correct Normal 539.7395
207 5 LeftLarger PercCAPrac Prime_9A Target_4N cbHDjka biKdfLM Incongruent left correct Normal 451.9341
207 6 LeftLarger PercCAPrac Prime_4N Target_9N DCFdEKH BChHJkK Incongruent right error Normal 541.9669
207 7 LeftLarger PercCAPrac Prime_9A Target_1N GmjlJML bDFdfKa Incongruent right error Normal 586.8445
207 8 LeftLarger PercCAPrac Prime_9N Target_4N alkcGdD LFAKgaH Incongruent left correct Normal 540.0218
207 9 LeftLarger PercCAPrac Prime_4N Target_4A DJakKBA fjGdHKm Congruent left error Normal 976.2025
207 10 LeftLarger PercCAPrac Prime_6N Target_9N mFjeKBM mlGgKiE Congruent right correct Early 63.41593
207 11 LeftLarger PercCAPrac Prime_1A Target_9A mcdgiGL iahDGlE Incongruent left correct Normal 374.1709
207 12 LeftLarger PercCAPrac Prime_1N Target_9A fIEiDgM aJfGhmA Incongruent left correct Normal 249.3507
207 13 LeftLarger PercCAPrac Prime_1N Target_1A DlkBcLm kdigbKD Congruent right correct Normal 161.7138
207 14 LeftLarger PercCAPrac Prime_9N Target_6A ihfkmlc leKiIAJ Congruent right correct Normal 702.8254
207 15 LeftLarger PercCAPrac Prime_1N Target_1N hcHaDCA MfKeCIF Congruent left error Normal 509.444
207 16 LeftLarger PercCAPrac Prime_9A Target_6N jCHKAFl cihMmKk Congruent right correct Normal 546.4987
207 17 LeftLarger PercCAExp1 Prime_6N Target_1A BbicIMj bEclFje Incongruent right error Normal 306.663
207 18 LeftLarger PercCAExp1 Prime_9A Target_1N KMChgkL MLjHFAE Incongruent right error Normal 125.7395
207 19 LeftLarger PercCAExp1 Prime_4N Target_4A bEjdJhM IfKBLAE Congruent left error Normal 122.492
207 20 LeftLarger PercCAExp1 Prime_9A Target_9A dEjhLGB CjlkDcA Congruent right correct Normal 138.4059
207 21 LeftLarger PercCAExp1 Prime_6N Target_4N cfdjAFm mjdFBlM Incongruent right error Normal 2891.078
207 22 LeftLarger PercCAExp1 Prime_6A Target_4A mIhFdBj CBMmKHe Incongruent left correct Normal 451.0087
207 23 LeftLarger PercCAExp1 Prime_4A Target_4A khElLmI aejdKAi Congruent right correct Normal 126.5422
207 24 LeftLarger PercCAExp1 Prime_4N Target_9N EDhfcLF BLIkGDC Incongruent right error Normal 189.2366
207 25 LeftLarger PercCAExp1 Prime_9N Target_9N eaDIBEK hfBgHld Congruent right correct Normal 535.3722
207 26 LeftLarger PercCAExp1 Prime_1A Target_4A gBGiMAJ CLEIbcA Congruent left error Normal 116.1521
207 27 LeftLarger PercCAExp1 Prime_6N Target_4A MhkIbmd LBlicAF Incongruent right error Early 99.61094
207 28 LeftLarger PercCAExp1 Prime_6N Target_6A EJKImLB cAGdjfI Congruent right correct Normal 328.3402
207 29 LeftLarger PercCAExp1 Prime_6A Target_1N bMDdKHl fKBlgDA Incongruent left correct Early 93.56433
207 30 LeftLarger PercCAExp1 Prime_6N Target_6N CDFdmjI fHlMchk Congruent left error Early 2.909774
207 31 LeftLarger PercCAExp1 Prime_9A Target_4A gDeELlJ ALHJeBg Incongruent right error Normal 694.0832
207 32 LeftLarger PercCAExp1 Prime_9N Target_6N jkIMJLE GIBHLiM Congruent right correct Normal 603.7631
207 33 LeftLarger PercCAExp1 Prime_1N Target_6N DeaEHkJ HLkhGIc Incongruent left correct Normal 502.5625
207 34 LeftLarger PercCAExp1 Prime_9N Target_4A lmGhcLF JiLhCBe Incongruent right error Normal 166.4398
207 35 LeftLarger PercCAExp1 Prime_1N Target_1A GjmHLfB AIeFdki Congruent right correct Normal 691.0189
207 36 LeftLarger PercCAExp1 Prime_1A Target_6A KefCmJG dGIAbHc Incongruent right error Normal 929.2954
207 37 LeftLarger PercCAExp1 Prime_4N Target_4N LmHfGFA hBHKeMj Congruent right correct Normal 796.9172
207 38 LeftLarger PercCAExp1 Prime_1N Target_4N JiMlGIC lahkGCE Congruent left error Normal 724.5212
207 39 LeftLarger PercCAExp1 Prime_4A Target_6N DHbJFci KlDACBI Incongruent left correct Normal 751.8252
207 40 LeftLarger PercCAExp1 Prime_6A Target_6N IafKmMB lDmJEgf Congruent right correct Normal 489.3362
207 41 LeftLarger PercCAExp1 Prime_4N Target_6N lfIAkgM MGDjJEc Incongruent right error Normal 224.3911
207 42 LeftLarger PercCAExp1 Prime_1A Target_4N IcFLgba jbmKAeh Congruent left error Normal 471.6433
207 43 LeftLarger PercCAExp1 Prime_1A Target_9A iGaKEAC egaDiJG Incongruent right error Normal 214.3713
207 44 LeftLarger PercCAExp1 Prime_4A Target_1A HFlcahi mJdlILB Congruent left error Normal 751.0674
207 45 LeftLarger PercCAExp1 Prime_1N Target_1N bEeHJlc GeLCgcl Congruent left error Normal 509.799
207 46 LeftLarger PercCAExp1 Prime_9A Target_6A maJbkgf DcLdGiE Congruent right correct Normal 1109.442
207 47 LeftLarger PercCAExp1 Prime_9A Target_1A DIMkfLi JHcdmgK Incongruent right error Normal 443.6021
207 48 LeftLarger PercCAExp1 Prime_6A Target_4N EDKaHIe iBFHEIc Incongruent right error Normal 202.2678
207 49 LeftLarger PercCAExp1 Prime_1A Target_1A bdLkfAK DjcGegE Congruent left error Normal 217.818
207 50 LeftLarger PercCAExp1 Prime_1A Target_6N IGLiABK MCdIicA Incongruent left correct Normal 432.9895
207 51 LeftLarger PercCAExp1 Prime_9A Target_6N ikhKcdF mdhLjbA Congruent left error Normal 802.674
207 52 LeftLarger PercCAExp1 Prime_4N Target_9A kiCIhbd ibfJGcd Incongruent right error Normal 439.3524
207 53 LeftLarger PercCAExp1 Prime_1N Target_6A KaAkEbM ABblGdc Incongruent right error Normal 564.1397
207 54 LeftLarger PercCAExp1 Prime_4N Target_1N GileAME dlBJGej Congruent left error Normal 321.2619
207 55 LeftLarger PercCAExp1 Prime_1N Target_4A MAgjCIk CMIHLEJ Congruent left error Normal 577.2062
207 56 LeftLarger PercCAExp1 Prime_9N Target_6A ciCfGFl FIfKLJG Congruent left error Normal 1065.107
207 57 LeftLarger PercCAExp1 Prime_4A Target_6A alDmcjE GblHDEA Incongruent left correct Normal 1043.678
207 58 LeftLarger PercCAExp1 Prime_4A Target_4N fKALacd jlhafAG Congruent left error Normal 624.7277
207 59 LeftLarger PercCAExp1 Prime_6A Target_1A KdgBijc KbAFGcE Incongruent right error Normal 879.1484
207 60 LeftLarger PercCAExp1 Prime_9N Target_1A hEKgMHc mlLGDHg Incongruent right error Normal 631.032
207 61 LeftLarger PercCAExp1 Prime_6A Target_9N eGBLAEf cdCIlJh Congruent right correct Normal 942.7366
207 62 LeftLarger PercCAExp1 Prime_4N Target_1A CEmMgLG imjlegf Congruent right correct Normal 1230.781
207 63 LeftLarger PercCAExp1 Prime_6N Target_1N MhJaLlg bJcfkIi Incongruent right error Normal 655.0977
207 64 LeftLarger PercCAExp1 Prime_9A Target_4N IbDFiAK HlfIdFm Incongruent left correct Normal 425.2642
207 65 LeftLarger PercCAExp1 Prime_4A Target_9A BdkMGiA DAaCfjb Incongruent left correct Normal 540.8771
207 66 LeftLarger PercCAExp1 Prime_6N Target_9A AflGkcM bdAjJmc Congruent left error Normal 470.0804
207 67 LeftLarger PercCAExp1 Prime_1A Target_9N Beajkmf lMmgdCI Incongruent right error Normal 202.2535
207 68 LeftLarger PercCAExp1 Prime_4N Target_6A DekGHac KCdhMDB Incongruent right error Normal 893.0309
207 69 LeftLarger PercCAExp1 Prime_6A Target_9A EheilIa BHhGaeF Congruent right correct Normal 678.085
207 70 LeftLarger PercCAExp1 Prime_4A Target_9N IdblmHa LGbdfci Incongruent right error Normal 350.7189
207 71 LeftLarger PercCAExp1 Prime_4A Target_1N gIaHjFi eibfKMg Congruent right correct Normal 1041.159
207 72 LeftLarger PercCAExp1 Prime_1N Target_9A IcahKdC GMkDFdC Incongruent left correct Normal 214.233
207 73 LeftLarger PercCAExp1 Prime_6A Target_6A mlDaiKd lKBHdMF Congruent left error Normal 474.2247
207 74 LeftLarger PercCAExp1 Prime_6N Target_9N JFhEDga KMIeLmA Congruent left error Normal 661.5457
207 75 LeftLarger PercCAExp1 Prime_1A Target_1N ifJGcLm hclgmGa Congruent right correct Normal 385.3561
207 76 LeftLarger PercCAExp1 Prime_9N Target_1N fJeBGli fcbmJgK Incongruent right error Normal 261.0004
207 77 LeftLarger PercCAExp1 Prime_1N Target_9N HAMlJhg DKaGFmB Incongruent right error Normal 402.429
207 78 LeftLarger PercCAExp1 Prime_9N Target_9A ElAKIJb eKfcEmI Congruent right correct Normal 471.9121
207 79 LeftLarger PercCAExp1 Prime_9N Target_4N ckimJah kmEhBAJ Incongruent left correct Normal 133.3651
207 80 LeftLarger PercCAExp1 Prime_9A Target_9N AdChGjE aeGcDLb Congruent right correct Normal 1986.135
207 81 LeftSmaller PercCBPrac Prime_4A Target_9N MBEcjeA afMgKjI Incongruent right correct Normal 139.6485
207 82 LeftSmaller PercCBPrac Prime_4A Target_1N klJHMAb LhCilkF Congruent left correct Normal 946.7038
207 83 LeftSmaller PercCBPrac Prime_6A Target_9N GlihmIJ JHLlDga Congruent right error Normal 383.3351
207 84 LeftSmaller PercCBPrac Prime_4N Target_9N aKJGbjd JhjHdkl Incongruent left error Normal 444.3915
207 85 LeftSmaller PercCBPrac Prime_1A Target_6N CbFJKim CmILEfG Incongruent left error Normal 468.3303
207 86 LeftSmaller PercCBPrac Prime_9A Target_4N dDhJblG HbmcklK Incongruent right correct Normal 874.3651
207 87 LeftSmaller PercCBPrac Prime_6A Target_6N KEGBaIm lELbhDd Congruent left correct Normal 1492.785
207 88 LeftSmaller PercCBPrac Prime_4A Target_9A AgfcieM BADglIi Incongruent left error Normal 899.1019
207 89 LeftSmaller PercCBPrac Prime_9A Target_9A GmFIiDl AfKhHkG Congruent left correct Normal 816.1584
207 90 LeftSmaller PercCBPrac Prime_6A Target_1N bjAmJaG lMKJCAe Incongruent right correct Normal 879.2013
207 91 LeftSmaller PercCBPrac Prime_6N Target_9N eiLmGIj mIKdBMi Congruent right error Normal 1179.536
207 92 LeftSmaller PercCBPrac Prime_9A Target_6N giCBKjl fdAciLH Congruent right error Normal 851.1485
207 93 LeftSmaller PercCBPrac Prime_4N Target_6N KbjkHfB mBbGDaA Incongruent left error Normal 3417.083
207 94 LeftSmaller PercCBPrac Prime_4A Target_4N bJmciGh iCBelAh Congruent left correct Normal 599.192
207 95 LeftSmaller PercCBPrac Prime_4N Target_1A lGjeEfg EFJMdLk Congruent left correct Normal 630.7001
207 96 LeftSmaller PercCBPrac Prime_6N Target_6A afejBlb MafcFLm Congruent left correct Normal 341.2891
207 97 LeftSmaller PercCBExp1 Prime_1A Target_9A KlAiHmk cJlkeFD Incongruent left error Normal 474.4744
207 98 LeftSmaller PercCBExp1 Prime_6A Target_4A KfkHeaA Ccahekf Incongruent right correct Normal 619.7763
207 99 LeftSmaller PercCBExp1 Prime_4A Target_6N iLBADkf gjGaIih Incongruent left error Normal 150.7124
207 100 LeftSmaller PercCBExp1 Prime_1A Target_6N FcMeClH GHFJgiI Incongruent left error Normal 653.976
207 101 LeftSmaller PercCBExp1 Prime_6N Target_1A IAilcKJ mHjILla Incongruent right correct Normal 959.4048
207 102 LeftSmaller PercCBExp1 Prime_9A Target_4N gAGCija gJDaLfb Incongruent left error Normal 579.4409
207 103 LeftSmaller PercCBExp1 Prime_6A Target_9A aAHibBD dLMeaIA Congruent right error Normal 1869.514
207 104 LeftSmaller PercCBExp1 Prime_9A Target_9N akdHBlh LIHklgA Congruent left correct Normal 1843.776
207 105 LeftSmaller PercCBExp1 Prime_6N Target_6N LFgaBkf FbMKdAJ Congruent right error Normal 315.4955
207 106 LeftSmaller PercCBExp1 Prime_1N Target_6A jMbmhLC JimjegD Incongruent right correct Normal 398.1709
207 107 LeftSmaller PercCBExp1 Prime_9A Target_6A AMidFhb alEHAMF Congruent left correct Normal 622.8179
207 108 LeftSmaller PercCBExp1 Prime_1N Target_1N EbmFIcD bdlFHKe Congruent left correct Normal 453.2588
207 109 LeftSmaller PercCBExp1 Prime_4N Target_4A kjgGKIH eidImaM Congruent left correct Normal 838.8955
207 110 LeftSmaller PercCBExp1 Prime_9N Target_6N gAjfhJD maJLMfD Congruent right error Normal 629.2982
207 111 LeftSmaller PercCBExp1 Prime_6A Target_6N meHdJLb CLbEmMf Congruent left correct Normal 252.4261
207 112 LeftSmaller PercCBExp1 Prime_4A Target_6A BcgDAFG GJhLcCg Incongruent left error Normal 679.1344
207 113 LeftSmaller PercCBExp1 Prime_6N Target_6A EGjcfMJ fdakcLD Congruent right error Normal 2247.181
207 114 LeftSmaller PercCBExp1 Prime_4A Target_4N iabJLlG eiCfFMg Congruent left correct Normal 506.2583
207 115 LeftSmaller PercCBExp1 Prime_1N Target_9A bicDGfm AHKFiaj Incongruent left error Normal 253.2638
207 116 LeftSmaller PercCBExp1 Prime_9N Target_6A khMBaDA jJlGBCg Congruent left correct Normal 2380.83
207 117 LeftSmaller PercCBExp1 Prime_6N Target_4A diCabjL cbiEmhM Incongruent right correct Normal 1906.166
207 118 LeftSmaller PercCBExp1 Prime_9N Target_9N djkMHDa fCkaBJl Congruent left correct Normal 826.0848
207 119 LeftSmaller PercCBExp1 Prime_6A Target_6A lCdakEM mjblCEG Congruent right error Normal 611.2561
207 120 LeftSmaller PercCBExp1 Prime_9A Target_1A CALmcDF HGghdDm Incongruent left error Normal 385.9423
207 121 LeftSmaller PercCBExp1 Prime_4A Target_1N AGbCLEi BkdCHGb Congruent right error Normal 744.9915
207 122 LeftSmaller PercCBExp1 Prime_1N Target_6N bFmeEaf DhifEla Incongruent right correct Normal 844.638
207 123 LeftSmaller PercCBExp1 Prime_1N Target_4A dhmLifc jcDAElF Congruent right error Normal 941.6947
207 124 LeftSmaller PercCBExp1 Prime_9A Target_1N efbFBDK MhIlckj Incongruent left error Normal 423.6348
207 125 LeftSmaller PercCBExp1 Prime_1A Target_1N HmGBlbK LHdJjhK Congruent right error Normal 553.9197
207 126 LeftSmaller PercCBExp1 Prime_4N Target_1A lagJfcd jKahdHg Congruent left correct Normal 535.5719
207 127 LeftSmaller PercCBExp1 Prime_6A Target_1A kMbejJc gekHCdb Incongruent right correct Normal 319.6115
207 128 LeftSmaller PercCBExp1 Prime_4A Target_9N hlfEKdF HhDlfid Incongruent right correct Normal 119.1916
207 129 LeftSmaller PercCBExp1 Prime_1A Target_4N CdlIJHD IjacgFJ Congruent left correct Normal 652.3266
207 130 LeftSmaller PercCBExp1 Prime_6A Target_1N mDIgHaK CdIJEhK Incongruent left error Normal 609.0503
207 131 LeftSmaller PercCBExp1 Prime_1N Target_1A eAKDEkF jJlhcKC Congruent right error Normal 510.3891
207 132 LeftSmaller PercCBExp1 Prime_4N Target_4N DmkFlcE faLIEdD Congruent right error Normal 834.6796
207 133 LeftSmaller PercCBExp1 Prime_4A Target_1A dKihMDc kcejCmd Congruent left correct Normal 399.8703
207 134 LeftSmaller PercCBExp1 Prime_9N Target_9A GBaHDAb feFClJa Congruent left correct Normal 396.6657
207 135 LeftSmaller PercCBExp1 Prime_9A Target_9A mAFMEhG ahFcjeG Congruent right error Normal 408.0573
207 136 LeftSmaller PercCBExp1 Prime_4N Target_6N IceGjdi EBbGmMC Incongruent right correct Normal 220.9928
207 137 LeftSmaller PercCBExp1 Prime_4N Target_1N bdBHhAK GhiKdfb Congruent right error Normal 2490.891
207 138 LeftSmaller PercCBExp1 Prime_4A Target_9A KeGEiMd glJacAi Incongruent left error Normal 746.6928
207 139 LeftSmaller PercCBExp1 Prime_9N Target_1A haMgdfB klFmagh Incongruent right correct Normal 585.3887
207 140 LeftSmaller PercCBExp1 Prime_1N Target_4N dJEKgHf kacgMAe Congruent right error Normal 831.3116
207 141 LeftSmaller PercCBExp1 Prime_6N Target_9A FceJLbM BLFJlcH Congruent left correct Normal 752.2041
207 142 LeftSmaller PercCBExp1 Prime_4N Target_9A HaMfmAC AGkbhFd Incongruent right correct Normal 524.782
207 143 LeftSmaller PercCBExp1 Prime_6A Target_4N hlFgmLK fbkCImB Incongruent right correct Normal 167.1875
