sub trial_no group_type block_type prime target mask1 mask2 congruency key_press key_error time_error RT
501 1 LeftSmaller RTTaskAPrac Prime_1A Target_4N BgaGeCh dJAehGI Congruent left correct Late 1496.309
501 2 LeftSmaller RTTaskAPrac Prime_4N Target_1N kdCIGfg geFaLcI Congruent left correct Normal 788.7754
501 3 LeftSmaller RTTaskAPrac Prime_1A Target_4N ahCBkdJ mBhGbJM Congruent left correct Normal 762.1973
501 4 LeftSmaller RTTaskAPrac Prime_1N Target_9N jLHDFdI jIGdDAi Incongruent right correct Normal 647.4439
501 5 LeftSmaller RTTaskAPrac Prime_4N Target_9A iAjbFJk ecKmCli Incongruent right correct Normal 903.98
501 6 LeftSmaller RTTaskAPrac Prime_6A Target_4A BAfJMIa HLJlcea Incongruent left correct Normal 857.6992
501 7 LeftSmaller RTTaskAPrac Prime_6A Target_9A leIhDMK AklMjGC Congruent right correct Normal 629.4537
501 8 LeftSmaller RTTaskAPrac Prime_1N Target_1A dMDeiEJ jfcbLJd Congruent left correct Normal 771.2489
501 9 LeftSmaller RTTaskAPrac Prime_4N Target_4A afhGieD jaFcKbH Congruent left correct Normal 786.093
501 10 LeftSmaller RTTaskAPrac Prime_9N Target_4N MBlJAHG AKhfieC Incongruent left correct Normal 722.1564
501 11 LeftSmaller RTTaskAPrac Prime_9N Target_9A JkMeIgd FJGBejm Congruent right correct Normal 546.9409
501 12 LeftSmaller RTTaskAPrac Prime_4A Target_4N GKgaMcD kfEmCec Congruent left correct Normal 508.5633
501 13 LeftSmaller RTTaskAPrac Prime_4A Target_6N GakLIHf ehBiDbk Incongruent right correct Normal 902.7269
501 14 LeftSmaller RTTaskAPrac Prime_6N Target_1A JkLibHG eaAHcmk Incongruent left correct Normal 656.975
501 15 LeftSmaller RTTaskAPrac Prime_1N Target_1N cJAgLjM hlBImGf Congruent left correct Normal 573.7093
501 16 LeftSmaller RTTaskAPrac Prime_4N Target_4N lkJKMfh egLIbFB Congruent left correct Normal 544.4132
501 17 LeftSmaller RTTaskAPrac Prime_9N Target_6N bEcDhil eilFDgh Congruent right correct Normal 684.3476
501 18 LeftSmaller RTTaskAExp1 Prime_9A Target_6N mIMCLaB iACHcEb Congruent right correct Normal 599.7237
501 19 LeftSmaller RTTaskAExp1 Prime_6N Target_9N MJdejHF LcMAmDi Congruent right correct Normal 590.4869
501 20 LeftSmaller RTTaskAExp1 Prime_6N Target_1A fFamIEK fMBbjkl Incongruent left correct Normal 511.2143
501 21 LeftSmaller RTTaskAExp1 Prime_4A Target_6A HJLibGC ImeblcE Incongruent right correct Normal 530.1558
501 22 LeftSmaller RTTaskAExp1 Prime_6A Target_1A LcfBFai cmlfjkb Incongruent left correct Normal 511.3732
501 23 LeftSmaller RTTaskAExp1 Prime_1A Target_9N dAgDKim hLEJKGm Incongruent right correct Normal 523.8145
501 24 LeftSmaller RTTaskAExp1 Prime_1N Target_1A heDfLBE KHikBhl Congruent left correct Normal 487.8826
501 25 LeftSmaller RTTaskAExp1 Prime_4N Target_4N cKMhFAI HAmDJgG Congruent left correct Normal 693.3543
501 26 LeftSmaller RTTaskAExp1 Prime_9N Target_4N LKICMdD edlchfB Incongruent left correct Normal 872.3781
501 27 LeftSmaller RTTaskAExp1 Prime_9N Target_4A IfjcFHh mkFjhJH Incongruent left correct Normal 591.2689
501 28 LeftSmaller RTTaskAExp1 Prime_4A Target_6N DjHbFIE hbCjeDf Incongruent left error Normal 779.1544
501 29 LeftSmaller RTTaskAExp1 Prime_4A Target_6N HgEFAha acLlIkd Incongruent right correct Normal 723.5138
501 30 LeftSmaller RTTaskAExp1 Prime_4N Target_9A lcEIHKA eILDicJ Incongruent right correct Normal 574.5439
501 31 LeftSmaller RTTaskAExp1 Prime_1A Target_9A mlHdchD LejkGaf Incongruent right correct Normal 537.8649
501 32 LeftSmaller RTTaskAExp1 Prime_9N Target_1N hGadflm LkbfiMg Incongruent left correct Normal 671.4564
501 33 LeftSmaller RTTaskAExp1 Prime_1A Target_1N mBjibJf AiCBbde Congruent left correct Normal 749.4013
501 34 LeftSmaller RTTaskAExp1 Prime_1A Target_4N MCbaIJA DljaBCh Congruent left correct Normal 731.8373
501 35 LeftSmaller RTTaskAExp1 Prime_1N Target_1N BIGmbca LelbIGk Congruent left correct Normal 610.1792
501 36 LeftSmaller RTTaskAExp1 Prime_9A Target_4A cJehmKl bDiLGja Incongruent left correct Normal 590.5003
501 37 LeftSmaller RTTaskAExp1 Prime_1N Target_6N HGahLiB DfcMkEI Incongruent right correct Normal 655.7268
501 38 LeftSmaller RTTaskAExp1 Prime_6A Target_6A GKjLCbI cbMmekg Congruent right correct Normal 573.9152
501 39 LeftSmaller RTTaskAExp1 Prime_4A Target_9A mdFCcBh diIjlaM Incongruent right correct Normal 621.8383
501 40 LeftSmaller RTTaskAExp1 Prime_6A Target_4A lDEBafA ILHjbKc Incongruent left correct Normal 708.1727
501 41 LeftSmaller RTTaskAExp1 Prime_1A Target_4A abdADEH jDheLiA Congruent left correct Normal 571.9108
501 42 LeftSmaller RTTaskAExp1 Prime_4N Target_6N AdEmGlL EeCKMgb Incongruent right correct Normal 695.6235
501 43 LeftSmaller RTTaskAExp1 Prime_9N Target_6N dbagkMD iadKgfD Congruent right correct Normal 581.4467
501 44 LeftSmaller RTTaskAExp1 Prime_9A Target_4N hkiaIAG iEBKfGL Incongruent left correct Normal 577.5073
501 45 LeftSmaller RTTaskAExp1 Prime_9A Target_6A afFbMJh gLEbCHK Congruent right correct Normal 888.1176
501 46 LeftSmaller RTTaskAExp1 Prime_6A Target_4N kKDdJbe MIBhkbK Incongruent left correct Normal 588.0695
501 47 LeftSmaller RTTaskAExp1 Prime_6N Target_1N GfjBDJh GFHLfAC Incongruent left correct Normal 549.0133
501 48 LeftSmaller RTTaskAExp1 Prime_9A Target_1A fMildhE BDAhGmK Incongruent left correct Normal 522.1215
501 49 LeftSmaller RTTaskAExp1 Prime_6N Target_6A FIAfBkE FjkEIBG Congruent right correct Normal 533.918
501 50 LeftSmaller RTTaskAExp1 Prime_4A Target_1A AGaDghl LgmaEcf Congruent left correct Normal 501.6271
501 51 LeftSmaller RTTaskAExp1 Prime_4N Target_1A JKHhgMk fJlEAiC Congruent left correct Normal 456.899
501 52 LeftSmaller RTTaskAExp1 Prime_9A Target_1N klegfLE fEjiDCH Incongruent left correct Normal 503.033
501 53 LeftSmaller RTTaskAExp1 Prime_6A Target_1N jGfeMAi IkicgKG Incongruent left correct Normal 523.9961
501 54 LeftSmaller RTTaskAExp1 Prime_4A Target_4N aiAFhKl EmjkhBd Congruent left correct Normal 935.5521
501 55 LeftSmaller RTTaskAExp1 Prime_4A Target_4A dEjbCLi aMLcHBK Congruent left correct Normal 544.4778
501 56 LeftSmaller RTTaskAExp1 Prime_9N Target_9N HMDaKAJ FGcDkhj Congruent right correct Normal 637.978
501 57 LeftSmaller RTTaskAExp1 Prime_1N Target_9N hDAaBEe aLClGgM Incongruent right correct Normal 553.8465
501 58 LeftSmaller RTTaskAExp1 Prime_6A Target_9N KJFmcab ifIlEHJ Congruent right correct Normal 595.6426
501 59 LeftSmaller RTTaskAExp1 Prime_4N Target_1N MCicdLj jfBcdIJ Congruent left correct Normal 588.9761
501 60 LeftSmaller RTTaskAExp1 Prime_4N Target_6A bgAjLlh BdmjKJb Incongruent right correct Normal 730.8672
501 61 LeftSmaller RTTaskAExp1 Prime_6A Target_9A BGfEJjc AdifMFa Congruent right correct Normal 485.7682
501 62 LeftSmaller RTTaskAExp1 Prime_1N Target_4A GmAfIME kdKmBCf Congruent left correct Normal 585.359
501 63 LeftSmaller RTTaskAExp1 Prime_1A Target_1A AhDLEKM IBcfaCH Congruent left correct Normal 522.9495
501 64 LeftSmaller RTTaskAExp1 Prime_4A Target_9N IGJELjd MIEgheb Incongruent right correct Normal 443.0079
501 65 LeftSmaller RTTaskAExp1 Prime_4N Target_9N LAgDBEi bAEacCD Incongruent right correct Normal 572.5238
501 66 LeftSmaller RTTaskAExp1 Prime_6N Target_4N ehBIgjH dkILHaA Incongruent left correct Normal 615.7905
501 67 LeftSmaller RTTaskAExp1 Prime_6N Target_4A ihlEGAH eJlDkEd Incongruent left correct Normal 730.316
501 68 LeftSmaller RTTaskAExp1 Prime_1N Target_9A JgLAhMe FMAcgfE Incongruent right correct Normal 563.6203
501 69 LeftSmaller RTTaskAExp1 Prime_6N Target_9A LghecaB DKALGlh Congruent right correct Normal 457.5242
501 70 LeftSmaller RTTaskAExp1 Prime_4A Target_1N GgcBDFK jDcbBHG Congruent left correct Normal 561.3489
501 71 LeftSmaller RTTaskAExp1 Prime_1A Target_6N GhIjaim egfHjiF Incongruent right correct Normal 577.0755
501 72 LeftSmaller RTTaskAExp1 Prime_1N Target_6A dhAKlMg klDbmKd Incongruent right correct Normal 542.5052
501 73 LeftSmaller RTTaskAExp1 Prime_1N Target_4N LMAjhik EiLmjag Congruent left correct Normal 620.2667
501 74 LeftSmaller RTTaskAExp1 Prime_6N Target_6N dEmcMlj eaBGbfC Congruent right correct Normal 538.2958
501 75 LeftSmaller RTTaskAExp1 Prime_9A Target_9A mhLGClD HAifabG Congruent right correct Normal 622.083
501 76 LeftSmaller RTTaskAExp1 Prime_9N Target_6A kFEKCjd LFkDMHB Congruent right correct Normal 565.1976
501 77 LeftSmaller RTTaskAExp1 Prime_9N Target_1A jfakbdB lcebjgd Incongruent left correct Normal 564.5294
501 78 LeftSmaller RTTaskAExp1 Prime_1A Target_6A lBfiHDj HLlimbK Incongruent right correct Normal 624.3558
501 79 LeftSmaller RTTaskAExp1 Prime_9A Target_9N akhCHDM hfHcKbM Congruent right correct Normal 616.1511
501 80 LeftSmaller RTTaskAExp1 Prime_4N Target_4A lFbgKaJ mCHgBIL Congruent left correct Normal 495.4993
501 81 LeftSmaller RTTaskAExp1 Prime_6A Target_6N EelJjhC hHmeijJ Congruent right correct Normal 608.7548
501 82 LeftSmaller RTTaskAExp1 Prime_9N Target_9A EdGmaeh HbcEGfi Congruent right correct Normal 581.8078
501 83 LeftSmaller RTTaskAExp2 Prime_1N Target_1N LliDGkA GidgHeb Congruent left correct Normal 594.9006
501 84 LeftSmaller RTTaskAExp2 Prime_4A Target_9A EIHeaMA FHlEKja Incongruent right correct Normal 486.1254
501 85 LeftSmaller RTTaskAExp2 Prime_1A Target_9N CEdmlGe MeiCjGf Incongruent right correct Normal 581.9351
501 86 LeftSmaller RTTaskAExp2 Prime_4N Target_9N fECFADi DACHkEd Incongruent right correct Normal 540.6434
501 87 LeftSmaller RTTaskAExp2 Prime_1A Target_4A KdBAMgI HkeIMgK Congruent left correct Normal 564.6068
501 88 LeftSmaller RTTaskAExp2 Prime_1A Target_1N mfiFhle heMBbEA Congruent left correct Normal 539.3151
501 89 LeftSmaller RTTaskAExp2 Prime_1A Target_4N FmhDkIg JFlECed Congruent left correct Late 1109.83
501 90 LeftSmaller RTTaskAExp2 Prime_9A Target_6A HchmABL BeFALfH Congruent right correct Normal 628.0126
501 91 LeftSmaller RTTaskAExp2 Prime_1N Target_4N JedhcMF CfJeFGH Congruent left correct Normal 729.8094
501 92 LeftSmaller RTTaskAExp2 Prime_6N Target_4N bgCMdBH GHJikLD Incongruent left correct Normal 538.4125
501 93 LeftSmaller RTTaskAExp2 Prime_9N Target_6N MAeBaHD JhGLbMm Congruent right correct Normal 511.4851
501 94 LeftSmaller RTTaskAExp2 Prime_4A Target_4A lLmajEA CMDJFGb Congruent left correct Normal 589.0597
501 95 LeftSmaller RTTaskAExp2 Prime_6N Target_6A iEdHeBj ABJEFml Congruent right correct Normal 796.5115
501 96 LeftSmaller RTTaskAExp2 Prime_6N Target_1N AGLhKdl HadBhMm Incongruent left correct Normal 627.5001
501 97 LeftSmaller RTTaskAExp2 Prime_9A Target_9N HEMhmkF cBjDmeK Congruent right correct Normal 573.3392
501 98 LeftSmaller RTTaskAExp2 Prime_6A Target_6A bIiBAfF MgLDeBi Congruent right correct Normal 800.8037
501 99 LeftSmaller RTTaskAExp2 Prime_9A Target_6N gfKdcJD DgfHFBG Congruent right correct Normal 540.227
501 100 LeftSmaller RTTaskAExp2 Prime_6N Target_9A cjKidHL kHKeDgE Congruent right correct Normal 540.198
501 101 LeftSmaller RTTaskAExp2 Prime_6A Target_4A MBHgmlf kagfFjm Incongruent left correct Normal 577.1071
501 102 LeftSmaller RTTaskAExp2 Prime_4N Target_1A MgECIjd akfBCdH Congruent left correct Normal 504.1996
501 103 LeftSmaller RTTaskAExp2 Prime_9A Target_1N dfCaEFl MfbcBLe Incongruent left correct Normal 517.5611
501 104 LeftSmaller RTTaskAExp2 Prime_6N Target_4A kjelGJb kGcDjBl Incongruent left correct Normal 614.5228
501 105 LeftSmaller RTTaskAExp2 Prime_6N Target_9N CbcBFMk hdLHEIj Congruent right correct Normal 503.1947
501 106 LeftSmaller RTTaskAExp2 Prime_9A Target_1A gJBcdfe IJFjgfB Incongruent left correct Normal 464.2876
501 107 LeftSmaller RTTaskAExp2 Prime_9A Target_4N JeDcEkF fdjCGhJ Incongruent left correct Normal 774.2477
501 108 LeftSmaller RTTaskAExp2 Prime_4N Target_4A FCLfABH CjLDJBm Congruent left correct Normal 510.5749
501 109 LeftSmaller RTTaskAExp2 Prime_6N Target_1N egcaGkB gCHIBGJ Incongruent left correct Normal 579.5876
501 110 LeftSmaller RTTaskAExp2 Prime_4N Target_1N iDjEkga mMjdJce Congruent left correct Normal 473.9782
501 111 LeftSmaller RTTaskAExp2 Prime_1A Target_4N bmGKBIc jgbJafi Congruent left correct Normal 739.8051
501 112 LeftSmaller RTTaskAExp2 Prime_9N Target_4A acEFBbM hgMJEcL Incongruent left correct Normal 616.163
501 113 LeftSmaller RTTaskAExp2 Prime_6N Target_1A IhEiLGJ jFfAkLK Incongruent left correct Normal 518.5959
501 114 LeftSmaller RTTaskAExp2 Prime_1A Target_9A DlChIgb IjCbaHe Incongruent right correct Normal 538.2002
501 115 LeftSmaller RTTaskAExp2 Prime_4A Target_9N BAMLeGD CeJLjkM Incongruent right correct Normal 481.5449
501 116 LeftSmaller RTTaskAExp2 Prime_1N Target_6N eailkHA ilAkDMK Incongruent right correct Normal 601.2239
501 117 LeftSmaller RTTaskAExp2 Prime_1N Target_6A eIHFlhc DLGfJem Incongruent right correct Normal 681.9089
501 118 LeftSmaller RTTaskAExp2 Prime_6A Target_9A KAaLfDk ACdEbIm Congruent right correct Normal 554.7006
501 119 LeftSmaller RTTaskAExp2 Prime_6A Target_4N MBdGEJH ekjDKdh Incongruent left correct Normal 583.5866
501 120 LeftSmaller RTTaskAExp2 Prime_9N Target_1N AdDfjmb jDiMJKl Incongruent left correct Normal 589.5715
501 121 LeftSmaller RTTaskAExp2 Prime_1N Target_1A fDjEIMC DbgJFhB Congruent left correct Normal 529.5752
501 122 LeftSmaller RTTaskAExp2 Prime_1N Target_9A CFaBHmG AmiBflH Incongruent right correct Normal 525.1997
501 123 LeftSmaller RTTaskAExp2 Prime_9N Target_4N LmbDiMd eBcGlfK Incongruent left correct Normal 702.9016
501 124 LeftSmaller RTTaskAExp2 Prime_4N Target_9A DbEhGIi hGkgJec Incongruent right correct Normal 535.5078
501 125 LeftSmaller RTTaskAExp2 Prime_4N Target_6N cIflJEH ekldMaF Incongruent right correct Normal 803.5596
501 126 LeftSmaller RTTaskAExp2 Prime_9N Target_9A ficdFAJ MCJbkaL Congruent right correct Normal 480.5173
501 127 LeftSmaller RTTaskAExp2 Prime_4A Target_4N DABHGJj LliJeCH Congruent left correct Normal 546.4757
501 128 LeftSmaller RTTaskAExp2 Prime_1A Target_6N ahcFCfg AmKHCIL Incongruent right correct Normal 535.7671
501 129 LeftSmaller RTTaskAExp2 Prime_4A Target_1N DIGmLjl DlJjCkE Congruent left correct Normal 552.1742
501 130 LeftSmaller RTTaskAExp2 Prime_4A Target_1A bHAjGKm JGdlKBC Congruent left correct Normal 496.6612
501 131 LeftSmaller RTTaskAExp2 Prime_4A Target_6A GFkeCMJ MlIBbKd Incongruent right correct Normal 634.015
501 132 LeftSmaller RTTaskAExp2 Prime_4N Target_4N fDiGCjL AgiaKbm Congruent left correct Normal 638.5223
501 133 LeftSmaller RTTaskAExp2 Prime_1A Target_1A fFLlaBC cLbKgfi Congruent left correct Normal 522.3458
501 134 LeftSmaller RTTaskAExp2 Prime_9A Target_9A ImjdaCe AmkahbC Congruent right correct Normal 561.9093
501 135 LeftSmaller RTTaskAExp2 Prime_9N Target_6A fkjledL iBhmaMj Congruent right correct Normal 642.3118
501 136 LeftSmaller RTTaskAExp2 Prime_1N Target_4A jGhDIKA cLBMAhm Congruent left correct Normal 532.0791
501 137 LeftSmaller RTTaskAExp2 Prime_1N Target_9N mAJKelg kMmeaFi Incongruent right correct Normal 500.7919
501 138 LeftSmaller RTTaskAExp2 Prime_6A Target_9N cGHMLJK mifDhdJ Congruent right correct Normal 515.3009
501 139 LeftSmaller RTTaskAExp2 Prime_9A Target_4A AiflbBC hiHFMGg Incongruent left correct Normal 496.9443
501 140 LeftSmaller RTTaskAExp2 Prime_9N Target_1A CDcgkel BfbKMId Incongruent left correct Normal 518.4194
501 141 LeftSmaller RTTaskAExp2 Prime_6A Target_1A gEFiJal jDFadei Incongruent left correct Normal 527.8376
501 142 LeftSmaller RTTaskAExp2 Prime_6N Target_6N HDcmfIa FJIEagH Congruent right correct Normal 612.06
501 143 LeftSmaller RTTaskAExp2 Prime_4A Target_6N abgHIFL iBjCDfg Incongruent right correct Normal 552.6187
501 144 LeftSmaller RTTaskAExp2 Prime_1A Target_6A hCHfblF djMaiHF Incongruent right correct Normal 565.7227
501 145 LeftSmaller RTTaskAExp2 Prime_4N Target_6A EcaGJAh bDJFaHG Incongruent right correct Normal 544.4335
501 146 LeftSmaller RTTaskAExp2 Prime_6A Target_1N aliGmJC ckEAdbB Incongruent left correct Normal 593.6171
501 147 LeftSmaller RTTaskAExp2 Prime_9N Target_9N GIcljHk HmFfkeC Congruent right correct Normal 495.2806
501 148 LeftSmaller RTTaskAExp2 Prime_6A Target_6N KMhLaCD LAKICed Congruent right correct Normal 826.2756
501 149 LeftLarger RTTaskBPrac Prime_6N Target_9A CKLkacE ACBmJli Congruent left correct Normal 591.7987
501 150 LeftLarger RTTaskBPrac Prime_9A Target_9N HMAEfIC EmKhHei Congruent left correct Normal 501.3065
501 151 LeftLarger RTTaskBPrac Prime_1N Target_1N ebBCKah jhGKlDk Congruent right correct Normal 624.2555
501 152 LeftLarger RTTaskBPrac Prime_1A Target_6A EAdbkBM jmhkfEg Incongruent left correct Late 1296.603
501 153 LeftLarger RTTaskBPrac Prime_4N Target_6N cLgEIhd BmCkdKj Incongruent left correct Normal 652.6997
501 154 LeftLarger RTTaskBPrac Prime_9N Target_4A hGkdLcK HegDacl Incongruent right correct Normal 995.6292
501 155 LeftLarger RTTaskBPrac Prime_4N Target_9A BEcgIia lbEeidM Incongruent left correct Normal 725.0959
501 156 LeftLarger RTTaskBPrac Prime_9A Target_6N lEdmFkG hHLmGkE Congruent left correct Normal 669.5647
501 157 LeftLarger RTTaskBPrac Prime_6N Target_6A DdEaJkK acHFBdJ Congruent left correct Normal 513.0573
501 158 LeftLarger RTTaskBPrac Prime_6A Target_4A beHDhFl HdJKfae Incongruent right correct Normal 669.8793
501 159 LeftLarger RTTaskBPrac Prime_6N Target_4A fkKhAIc kLceFhE Incongruent right correct Normal 768.965
501 160 LeftLarger RTTaskBPrac Prime_1A Target_4A ejcAKfI iDjJGAb Congruent right correct Normal 662.6318
501 161 LeftLarger RTTaskBPrac Prime_6A Target_6N mgEAHaD JEgAFeH Congruent left correct Normal 630.6188
501 162 LeftLarger RTTaskBPrac Prime_6A Target_1N GLkfCBD LlFfHmh Incongruent right correct Normal 797.5115
501 163 LeftLarger RTTaskBPrac Prime_1A Target_6A IladmbK IFKhaGM Incongruent left correct Normal 851.6659
501 164 LeftLarger RTTaskBPrac Prime_9N Target_1N LbhGgId FiflgJd Incongruent right correct Normal 669.0984
501 165 LeftLarger RTTaskBPrac Prime_1A Target_9N DHmIdLA FieCBcA Incongruent left correct Normal 729.3932
501 166 LeftLarger RTTaskBExp1 Prime_6N Target_4N EHmifDM dCmhLDb Incongruent right correct Normal 902.4252
501 167 LeftLarger RTTaskBExp1 Prime_9N Target_1A gaHiLIG JAHmDfL Incongruent left error Normal 555.3296
501 168 LeftLarger RTTaskBExp1 Prime_6A Target_4N fBDmbdJ BEkHgjC Incongruent right correct Normal 938.6874
501 169 LeftLarger RTTaskBExp1 Prime_1N Target_6A MhjAGIl kfiAdKH Incongruent left correct Normal 714.9751
501 170 LeftLarger RTTaskBExp1 Prime_9N Target_9A egCbmFI KfbeGiB Congruent left correct Normal 704.772
501 171 LeftLarger RTTaskBExp1 Prime_9N Target_4A FAclhfj aKgAdFb Incongruent right correct Normal 698.1276
501 172 LeftLarger RTTaskBExp1 Prime_4A Target_9A LAeHhGf dKlafGh Incongruent left correct Normal 705.5623
501 173 LeftLarger RTTaskBExp1 Prime_1A Target_4A jMdFBhE BIbJAdl Congruent right correct Normal 973.0227
501 174 LeftLarger RTTaskBExp1 Prime_4N Target_6A FbjHEMe LDHdJme Incongruent left correct Normal 672.885
501 175 LeftLarger RTTaskBExp1 Prime_1N Target_9N egdKaGH chbEaGB Incongruent left correct Late 1598.824
501 176 LeftLarger RTTaskBExp1 Prime_6A Target_9N KMdflEG kecBjMF Congruent left correct Normal 655.2161
501 177 LeftLarger RTTaskBExp1 Prime_6N Target_6N BdbCihl efMFibC Congruent left correct Normal 585.514
501 178 LeftLarger RTTaskBExp1 Prime_4A Target_9N LfBmlkA CBiakEL Incongruent left correct Normal 619.8511
501 179 LeftLarger RTTaskBExp1 Prime_9N Target_1A fCilamJ JDjlimg Incongruent right correct Normal 605.181
501 180 LeftLarger RTTaskBExp1 Prime_4A Target_6A HDJCIkm eMjfdIC Incongruent left correct Normal 600.9008
501 181 LeftLarger RTTaskBExp1 Prime_9N Target_6N CJbAkEc AIgLeFD Congruent left correct Normal 634.604
501 182 LeftLarger RTTaskBExp1 Prime_4N Target_1N CMDAcJi DGckFlg Congruent right correct Normal 504.2993
501 183 LeftLarger RTTaskBExp1 Prime_9A Target_1N bHcBiFK befDABj Incongruent right correct Normal 562.9602
501 184 LeftLarger RTTaskBExp1 Prime_9A Target_9N McjDibl dkMEaCI Congruent left correct Normal 597.9563
501 185 LeftLarger RTTaskBExp1 Prime_9A Target_4N HCDfebA CEIHmGd Incongruent right correct Normal 732.9267
501 186 LeftLarger RTTaskBExp1 Prime_4A Target_1N EBKbjLd amEghIF Congruent right correct Normal 706.6375
501 187 LeftLarger RTTaskBExp1 Prime_4A Target_6N EjHCfBl bclDAEa Incongruent left correct Normal 937.5777
501 188 LeftLarger RTTaskBExp1 Prime_1A Target_6N bkgiahE FGfbMJh Incongruent left correct Normal 678.0619
501 189 LeftLarger RTTaskBExp1 Prime_4N Target_9A GLlCFAm kgMHFBm Incongruent left correct Normal 553.087
501 190 LeftLarger RTTaskBExp1 Prime_6A Target_4A adKiBeL JijGFkD Incongruent right correct Normal 567.2262
501 191 LeftLarger RTTaskBExp1 Prime_1N Target_4A BkLMcJb IcHKbMk Congruent right correct Normal 703.1759
501 192 LeftLarger RTTaskBExp1 Prime_6N Target_4A iIeJCDd IEGJkMc Incongruent right correct Normal 631.3759
501 193 LeftLarger RTTaskBExp1 Prime_4N Target_1A jHkhILC gHLfkID Congruent right correct Normal 684.8222
501 194 LeftLarger RTTaskBExp1 Prime_6A Target_1A BKdlMJA hKdMaDc Incongruent right correct Normal 716.7415
501 195 LeftLarger RTTaskBExp1 Prime_9N Target_9N JbhIdlf FgdflIm Congruent left correct Normal 753.0587
501 196 LeftLarger RTTaskBExp1 Prime_9A Target_1A CJdmDAj lDgKeBh Incongruent right correct Normal 808.5639
501 197 LeftLarger RTTaskBExp1 Prime_1A Target_1A IGkJigA JMfciDa Congruent right correct Normal 688.3233
501 198 LeftLarger RTTaskBExp1 Prime_9N Target_4N KmcAfhi KAbjmhJ Incongruent right correct Normal 722.079
501 199 LeftLarger RTTaskBExp1 Prime_1N Target_4N ieLIFhH LagEmKh Congruent right correct Normal 754.978
501 200 LeftLarger RTTaskBExp1 Prime_6A Target_6N FHgMbjG GBCalDI Congruent left correct Normal 599.1679
501 201 LeftLarger RTTaskBExp1 Prime_6N Target_1A ikAfdMF KMkgHdC Incongruent right correct Normal 617.9927
501 202 LeftLarger RTTaskBExp1 Prime_1N Target_1A CGekDhi AKfbDkG Congruent right correct Normal 584.0956
501 203 LeftLarger RTTaskBExp1 Prime_9A Target_6A aAMEiJm DFIMjal Congruent left correct Normal 710.5379
501 204 LeftLarger RTTaskBExp1 Prime_1A Target_9N dIMimKA decaCBL Incongruent right error Normal 682.1063
501 205 LeftLarger RTTaskBExp1 Prime_1N Target_9A gCahkDm ekdlGLA Incongruent left correct Normal 945.2306
501 206 LeftLarger RTTaskBExp1 Prime_9N Target_1N KHdLMjI ECJiHMG Incongruent right correct Normal 618.554
501 207 LeftLarger RTTaskBExp1 Prime_9A Target_9A MImideg MJBgDim Congruent right error Normal 837.8784
501 208 LeftLarger RTTaskBExp1 Prime_1N Target_9N fAEkCLg efILjbF Incongruent left correct Normal 888.1072
501 209 LeftLarger RTTaskBExp1 Prime_6N Target_6A hDimeAg LgEfiMd Congruent left correct Normal 724.7085
501 210 LeftLarger RTTaskBExp1 Prime_4A Target_4N lDbIGFH LiICgBD Congruent right correct Normal 713.1817
501 211 LeftLarger RTTaskBExp1 Prime_6A Target_9A fkFbBCj DeiLGAB Congruent left correct Late 1052.76
501 212 LeftLarger RTTaskBExp1 Prime_1A Target_4N DemBKLl BAHbeam Congruent right correct Normal 589.6024
501 213 LeftLarger RTTaskBExp1 Prime_6N Target_9N EDcCLje cbCaBKf Congruent left correct Normal 611.8082
501 214 LeftLarger RTTaskBExp1 Prime_4N Target_9N LMkfHDF mCgGiBA Incongruent left correct Normal 489.857
501 215 LeftLarger RTTaskBExp1 Prime_1N Target_1N lAFEKdJ DkdigFb Congruent right correct Normal 654.3336
501 216 LeftLarger RTTaskBExp1 Prime_9A Target_6N MhjibmI jlbkeKi Congruent left correct Normal 690.3125
501 217 LeftLarger RTTaskBExp1 Prime_6A Target_1N BkFIbeJ EHDKCmh Incongruent right correct Normal 644.628
501 218 LeftLarger RTTaskBExp1 Prime_9A Target_4A IBDAgeG Dciekdh Incongruent right correct Normal 683.2934
501 219 LeftLarger RTTaskBExp1 Prime_4N Target_6N jgaekJM KfEFgea Incongruent left correct Normal 667.2935
501 220 LeftLarger RTTaskBExp1 Prime_4N Target_4N eHmicfD CjHDMgf Congruent right correct Normal 615.9159
501 221 LeftLarger RTTaskBExp1 Prime_6N Target_9A ehEfIbc KLlmiac Congruent left correct Normal 627.976
501 222 LeftLarger RTTaskBExp1 Prime_4A Target_4A fCEjhLg FcGaJMk Congruent right correct Normal 743.6745
501 223 LeftLarger RTTaskBExp1 Prime_4N Target_4A EcbKdeF DdbjkJG Congruent right correct Normal 597.9731
501 224 LeftLarger RTTaskBExp1 Prime_1A Target_6A gehCAbJ JaEGkdF Incongruent left correct Normal 710.4699
501 225 LeftLarger RTTaskBExp1 Prime_1A Target_9A hCBgjeE caELdeh Incongruent left correct Normal 474.2906
501 226 LeftLarger RTTaskBExp1 Prime_6A Target_9A mKeHFJB jiBMgdA Congruent left correct Normal 530.3658
501 227 LeftLarger RTTaskBExp1 Prime_6A Target_6A hlLgFBk gbCdLej Congruent left correct Normal 735.3547
501 228 LeftLarger RTTaskBExp1 Prime_6N Target_1N haECeFi jDmbGfH Incongruent right correct Normal 732.7417
501 229 LeftLarger RTTaskBExp1 Prime_1N Target_6N lbHKmhI FCBjmfl Incongruent left correct Normal 723.0133
501 230 LeftLarger RTTaskBExp1 Prime_9A Target_9A ELGMABb fKdLbJk Congruent left correct Normal 698.4298
501 231 LeftLarger RTTaskBExp1 Prime_4A Target_1A CjiDMkK DcCmjdF Congruent right correct Normal 594.0409
501 232 LeftLarger RTTaskBExp1 Prime_1A Target_9N KDBgkaj IdHAgfD Incongruent right error Normal 876.7461
501 233 LeftLarger RTTaskBExp1 Prime_9N Target_6A LIEGJfj JGaBLCA Congruent left correct Normal 598.6296
501 234 LeftLarger RTTaskBExp1 Prime_1A Target_9N HgmMECf JhbgECG Incongruent left correct Normal 519.5681
501 235 LeftLarger RTTaskBExp1 Prime_1A Target_1N MKIDlJB imcgDfL Congruent right correct Normal 566.2471
501 236 LeftLarger RTTaskBExp2 Prime_9N Target_1N mJbakGK gGkLcmI Incongruent right correct Normal 706.6913
501 237 LeftLarger RTTaskBExp2 Prime_6A Target_1A BifEICh AIbhEem Incongruent right correct Normal 547.032
501 238 LeftLarger RTTaskBExp2 Prime_1N Target_9A hKdLeIc hMEFgKJ Incongruent left correct Normal 622.6393
501 239 LeftLarger RTTaskBExp2 Prime_4N Target_4N FAEDgJi GFEiJfl Congruent right correct Normal 673.1923
501 240 LeftLarger RTTaskBExp2 Prime_1A Target_4N hJIeHbd LjMgiFc Congruent right correct Normal 604.3367
501 241 LeftLarger RTTaskBExp2 Prime_4A Target_4N EGKcBHi DiAflbB Congruent right correct Normal 645.7249
501 242 LeftLarger RTTaskBExp2 Prime_4N Target_9N gfBjFMI ElhJMji Incongruent left correct Normal 496.0634
501 243 LeftLarger RTTaskBExp2 Prime_1N Target_1A JEheafc EfIGCAc Congruent right correct Normal 687.0382
501 244 LeftLarger RTTaskBExp2 Prime_6A Target_1N HlFAMDh emIlMgh Incongruent right correct Normal 582.3572
501 245 LeftLarger RTTaskBExp2 Prime_1A Target_1N aDeMGIF FGeAaLB Congruent right correct Normal 826.699
501 246 LeftLarger RTTaskBExp2 Prime_9A Target_1A BgjLcmI eDcbLGj Incongruent right correct Normal 565.9125
501 247 LeftLarger RTTaskBExp2 Prime_6N Target_9N ilkKFAf KjgHhkL Congruent left correct Normal 588.8274
501 248 LeftLarger RTTaskBExp2 Prime_9A Target_9A CfcMEAL dhIiJFe Congruent left correct Normal 576.7879
501 249 LeftLarger RTTaskBExp2 Prime_9N Target_6A jAhJCHg faDHmgd Congruent left correct Normal 524.4234
501 250 LeftLarger RTTaskBExp2 Prime_4N Target_1N EJLDcfA aCHbGKh Congruent right correct Normal 641.4682
501 251 LeftLarger RTTaskBExp2 Prime_9A Target_6N MjeGmKc dkecJHG Congruent left correct Normal 542.8207
501 252 LeftLarger RTTaskBExp2 Prime_4N Target_1A jGCMdID mglkaLC Congruent right correct Normal 582.8875
501 253 LeftLarger RTTaskBExp2 Prime_6A Target_6N iJEIfFj HAbfFIE Congruent left correct Normal 681.4505
501 254 LeftLarger RTTaskBExp2 Prime_1A Target_9N BhmLclG HIMeAFB Incongruent left correct Normal 544.8044
501 255 LeftLarger RTTaskBExp2 Prime_1A Target_1A CIBhkLb dfMBAgb Congruent right correct Normal 553.4597
501 256 LeftLarger RTTaskBExp2 Prime_6A Target_9N CcadMIf BbdGJge Congruent left correct Normal 553.3419
501 257 LeftLarger RTTaskBExp2 Prime_4N Target_4A haKiDGe CJgcmda Congruent right correct Normal 641.2243
501 258 LeftLarger RTTaskBExp2 Prime_4A Target_1N mJMjalF Dmeajgd Congruent right correct Normal 659.5589
501 259 LeftLarger RTTaskBExp2 Prime_9N Target_9N KDIdbEj JiFdcmE Congruent left correct Normal 572.1972
501 260 LeftLarger RTTaskBExp2 Prime_6N Target_6N GkaiABL MegLFAl Congruent left correct Normal 537.6539
501 261 LeftLarger RTTaskBExp2 Prime_4A Target_4A AdIKFlC jHGiKbF Congruent right correct Normal 686.0995
501 262 LeftLarger RTTaskBExp2 Prime_6N Target_4N ChdAEFG LamIDBC Incongruent right correct Normal 850.0418
501 263 LeftLarger RTTaskBExp2 Prime_1A Target_9A kgmdcJa lhEAjfD Incongruent left correct Normal 586.6554
501 264 LeftLarger RTTaskBExp2 Prime_1N Target_6N JchHlAf AdbciFB Incongruent left correct Normal 606.9847
501 265 LeftLarger RTTaskBExp2 Prime_6N Target_9A FjgDeAk MebIBhk Congruent left correct Normal 568.0488
501 266 LeftLarger RTTaskBExp2 Prime_6N Target_4A dheGkDg bcDHhjg Incongruent right correct Normal 619.0222
501 267 LeftLarger RTTaskBExp2 Prime_9N Target_1A jAfFEbi KEMGACj Incongruent right correct Normal 758.7241
501 268 LeftLarger RTTaskBExp2 Prime_1N Target_4A JcEiGdh HGiFfMI Congruent right correct Late 1099.576
501 269 LeftLarger RTTaskBExp2 Prime_4A Target_1A DdLGHFC AaELciG Congruent left error Normal 684.7972
501 270 LeftLarger RTTaskBExp2 Prime_4A Target_1A hbkJIja GBbjmHi Congruent right correct Normal 768.8833
501 271 LeftLarger RTTaskBExp2 Prime_1N Target_4A ckiMeEI miFACga Congruent right correct Normal 663.1198
501 272 LeftLarger RTTaskBExp2 Prime_9A Target_6A LIDCKHA jhMbDHK Congruent left correct Normal 631.1875
501 273 LeftLarger RTTaskBExp2 Prime_6A Target_6A bLBcAkJ dCmHAfi Congruent left correct Normal 508.9689
501 274 LeftLarger RTTaskBExp2 Prime_6N Target_1A ekAEjbG MBgDdmj Incongruent right correct Normal 794.5989
501 275 LeftLarger RTTaskBExp2 Prime_6A Target_4N BCMgJGk EHLBJKf Incongruent right correct Normal 769.8221
501 276 LeftLarger RTTaskBExp2 Prime_6N Target_6A fEDkJhB cJILEGA Congruent left correct Normal 701.8654
501 277 LeftLarger RTTaskBExp2 Prime_9A Target_4N medDJKk IJacElj Incongruent right correct Normal 707.5726
501 278 LeftLarger RTTaskBExp2 Prime_4A Target_9A ehkiKMF McLFiCI Incongruent left correct Normal 894.0837
501 279 LeftLarger RTTaskBExp2 Prime_9A Target_4A ibGkaFC IkLlAbf Incongruent right correct Normal 626.5301
501 280 LeftLarger RTTaskBExp2 Prime_6N Target_1N DGEjKIB kFmaHCJ Incongruent right correct Normal 823.9946
501 281 LeftLarger RTTaskBExp2 Prime_9N Target_4N EjIHMAd iCJckdj Incongruent right correct Normal 700.0961
501 282 LeftLarger RTTaskBExp2 Prime_1N Target_6A AhjdiLM afgEMAe Incongruent left correct Normal 973.983
501 283 LeftLarger RTTaskBExp2 Prime_4A Target_6A jghieLk gekLmji Incongruent left correct Normal 574.8796
501 284 LeftLarger RTTaskBExp2 Prime_4N Target_6A HADBFIl gCIDGif Incongruent left correct Normal 540.8485
501 285 LeftLarger RTTaskBExp2 Prime_1N Target_1N iEMGHAb dHhMIAg Congruent right correct Normal 771.5695
501 286 LeftLarger RTTaskBExp2 Prime_4N Target_6N AICKdHL jghKLib Incongruent left correct Normal 658.7532
501 287 LeftLarger RTTaskBExp2 Prime_1N Target_9N aFhbkji EJckDeA Incongruent left correct Normal 696.2087
501 288 LeftLarger RTTaskBExp2 Prime_1A Target_6A IcKheJk abDfGJK Incongruent left correct Normal 551.926
501 289 LeftLarger RTTaskBExp2 Prime_6A Target_4A dDfKECm CbBKHcl Incongruent right correct Normal 618.6957
501 290 LeftLarger RTTaskBExp2 Prime_4A Target_9N MEdDFKj laEmgJb Incongruent left correct Normal 642.7255
501 291 LeftLarger RTTaskBExp2 Prime_9A Target_1N iGKlBEh EdIFjCg Incongruent right correct Normal 676.7674
501 292 LeftLarger RTTaskBExp2 Prime_9N Target_6N MGhIaBK cfLaKbg Congruent left correct Normal 977.105
501 293 LeftLarger RTTaskBExp2 Prime_9N Target_9A dEkMgec BlkbgEG Congruent left correct Normal 530.0505
501 294 LeftLarger RTTaskBExp2 Prime_4A Target_6N bfhKLAj GgbEAMh Incongruent left correct Normal 614.0293
501 295 LeftLarger RTTaskBExp2 Prime_1N Target_4N DAHhkfI aheAbdD Congruent right correct Normal 671.9803
501 296 LeftLarger RTTaskBExp2 Prime_9A Target_9N fadFLEI CJmecdE Congruent left correct Normal 624.7765
501 297 LeftLarger RTTaskBExp2 Prime_1A Target_4A JBMLlFf ADdjFmJ Congruent right correct Normal 641.3843
501 298 LeftLarger RTTaskBExp2 Prime_4N Target_9A EIJdgCc dFkafAI Incongruent left correct Normal 566.8585
501 299 LeftLarger RTTaskBExp2 Prime_1A Target_6N DGmbglK DElACgc Incongruent left correct Normal 781.887
501 300 LeftLarger RTTaskBExp2 Prime_9N Target_4A aEGfkBC amMfHCd Incongruent right correct Normal 578.014
501 301 LeftLarger RTTaskBExp2 Prime_6A Target_9A MGFcdhL AcbjEek Congruent left correct Normal 567.3564
502 1 LeftSmaller RTTaskAPrac Prime_9A Target_4A KFLifCa JCDBgGm Incongruent left correct Normal 460.6914
502 2 LeftSmaller RTTaskAPrac Prime_9A Target_6N MmhKaJC gJcEGIe Congruent right correct Normal 611.0041
502 3 LeftSmaller RTTaskAPrac Prime_6A Target_1N BcIhHKA dMDfJKI Incongruent left correct Normal 527.806
502 4 LeftSmaller RTTaskAPrac Prime_9A Target_1N GDmFEcJ BjbmHMk Incongruent left correct Normal 416.4134
502 5 LeftSmaller RTTaskAPrac Prime_9N Target_9N idIaJbC bBIhmHa Congruent right correct Normal 324.5393
502 6 LeftSmaller RTTaskAPrac Prime_9A Target_1A HKBMAJL EAcIFfj Incongruent left correct Normal 390.4603
502 7 LeftSmaller RTTaskAPrac Prime_9N Target_9A MEBbadg bdLHmlg Congruent right correct Normal 364.638
502 8 LeftSmaller RTTaskAPrac Prime_9N Target_4N BiCjJMh HiclEMb Incongruent left correct Normal 561.2126
502 9 LeftSmaller RTTaskAPrac Prime_9A Target_4A AckGfCM mCBAfcM Incongruent left correct Normal 498.8488
502 10 LeftSmaller RTTaskAPrac Prime_4A Target_6A iAlcCbe MjgmAlE Incongruent right correct Normal 474.0496
502 11 LeftSmaller RTTaskAPrac Prime_4N Target_6N JLDHjGd BHFCGdD Incongruent right correct Normal 472.5415
502 12 LeftSmaller RTTaskAPrac Prime_9N Target_4A AHDbEJg kDfCgAM Incongruent left correct Normal 423.6606
502 13 LeftSmaller RTTaskAPrac Prime_1N Target_4N egbKLAI dkihjgA Congruent left correct Normal 515.3342
502 14 LeftSmaller RTTaskAPrac Prime_9A Target_6A FGMLlkE emckBDg Congruent right correct Normal 428.9397
502 15 LeftSmaller RTTaskAPrac Prime_4N Target_1N eELkhma BMiCJcb Congruent left correct Normal 465.4931
502 16 LeftSmaller RTTaskAPrac Prime_4N Target_6A MadJKAk hJjkeLg Incongruent right correct Normal 467.8287
502 17 LeftSmaller RTTaskAPrac Prime_6N Target_4N MmABlgf eCHaGjc Incongruent left correct Normal 435.1952
502 18 LeftSmaller RTTaskAExp1 Prime_1A Target_1N LjJklcd cHBFDgk Congruent left correct Normal 494.4177
502 19 LeftSmaller RTTaskAExp1 Prime_1A Target_1A IbegaFl bkfALCi Congruent left correct Normal 351.734
502 20 LeftSmaller RTTaskAExp1 Prime_1A Target_6N lGcEAjb idGcMKF Incongruent right correct Normal 324.5872
502 21 LeftSmaller RTTaskAExp1 Prime_9A Target_1N aBHCcMJ cKhHmFI Incongruent left correct Normal 326.6568
502 22 LeftSmaller RTTaskAExp1 Prime_1A Target_9N aHKmLIi AeaBcGf Incongruent right correct Normal 385.5953
502 23 LeftSmaller RTTaskAExp1 Prime_9A Target_6A GAEBCkc LEHMbDl Congruent left error Normal 386.1811
502 24 LeftSmaller RTTaskAExp1 Prime_4N Target_1N MFibLfD HdmkgEc Congruent left correct Normal 374.0158
502 25 LeftSmaller RTTaskAExp1 Prime_4N Target_9N JGdajbk gAHaImk Incongruent right correct Normal 475.3497
502 26 LeftSmaller RTTaskAExp1 Prime_6A Target_1N eIbjaJm bCIAhia Incongruent left correct Normal 437.3242
502 27 LeftSmaller RTTaskAExp1 Prime_1N Target_1N IdGjmKk hmLJiKc Congruent left correct Normal 353.0219
502 28 LeftSmaller RTTaskAExp1 Prime_9A Target_4N dcGAghI bgCfeFj Incongruent left correct Normal 540.0835
502 29 LeftSmaller RTTaskAExp1 Prime_6A Target_9N HjDEiGI jcaGHFL Congruent right correct Normal 562.4359
502 30 LeftSmaller RTTaskAExp1 Prime_6A Target_4A MfGJabL DgmJlaI Incongruent left correct Normal 401.2828
502 31 LeftSmaller RTTaskAExp1 Prime_6A Target_1A AmebfiH LlBidkj Incongruent left correct Normal 391.3252
502 32 LeftSmaller RTTaskAExp1 Prime_9N Target_1N deiaKMA FhJAGfC Incongruent left correct Normal 448.9675
502 33 LeftSmaller RTTaskAExp1 Prime_6N Target_9A cBbCfea fEMKeBb Congruent right correct Normal 427.7343
502 34 LeftSmaller RTTaskAExp1 Prime_9A Target_6A ecKHAIg mcDIJLG Congruent right correct Normal 456.3877
502 35 LeftSmaller RTTaskAExp1 Prime_1A Target_9A AhiLFDa aMfBkGh Incongruent right correct Normal 437.2556
502 36 LeftSmaller RTTaskAExp1 Prime_4A Target_6A CEJGDMB jmdLcig Incongruent right correct Normal 429.066
502 37 LeftSmaller RTTaskAExp1 Prime_4N Target_6N gIcmGAf DhElmjH Incongruent right correct Normal 432.9156
502 38 LeftSmaller RTTaskAExp1 Prime_1N Target_1A LgDGJHB gkEFdca Congruent left correct Normal 428.8372
502 39 LeftSmaller RTTaskAExp1 Prime_1N Target_6N idjKFIG aGKElmI Incongruent right correct Normal 409.6611
502 40 LeftSmaller RTTaskAExp1 Prime_1A Target_6A KmHCJhG HICdlDm Incongruent right correct Normal 433.0289
502 41 LeftSmaller RTTaskAExp1 Prime_9N Target_4A lKaLhGe CjJbMEA Incongruent left correct Normal 479.3458
502 42 LeftSmaller RTTaskAExp1 Prime_4N Target_4A jHbGKki eHgmcaJ Congruent left correct Normal 372.2959
502 43 LeftSmaller RTTaskAExp1 Prime_6A Target_6A FmEjhik fDLKBal Congruent right correct Normal 398.4702
502 44 LeftSmaller RTTaskAExp1 Prime_4N Target_9A IeLCacl adEIKFl Incongruent right correct Normal 448.8479
502 45 LeftSmaller RTTaskAExp1 Prime_9N Target_9N MeFbdEH iheIEaH Congruent right correct Normal 378.3029
502 46 LeftSmaller RTTaskAExp1 Prime_1N Target_4N LdfGhkD ABDkIde Congruent left correct Normal 535.0669
502 47 LeftSmaller RTTaskAExp1 Prime_6N Target_9N hCLdibA kFgLhAc Congruent right correct Normal 420.7839
502 48 LeftSmaller RTTaskAExp1 Prime_4A Target_9N eaLkMEG aFJjHie Incongruent right correct Normal 449.2598
502 49 LeftSmaller RTTaskAExp1 Prime_1A Target_4A HhgjlID EhmdLJI Congruent left correct Normal 439.4182
502 50 LeftSmaller RTTaskAExp1 Prime_6N Target_4N HJKfFgm BKlIDjm Incongruent left correct Normal 492.8473
502 51 LeftSmaller RTTaskAExp1 Prime_6N Target_1N LDbgfmc hJmiBIM Incongruent left correct Normal 436.8618
502 52 LeftSmaller RTTaskAExp1 Prime_9N Target_4N FGLICmj clbFkGI Incongruent left correct Normal 444.9329
502 53 LeftSmaller RTTaskAExp1 Prime_6N Target_1A kJbDmGh eaJIbjH Incongruent left correct Normal 409.2854
502 54 LeftSmaller RTTaskAExp1 Prime_9A Target_4A jKICkda AhmGkfD Incongruent left correct Normal 374.9519
502 55 LeftSmaller RTTaskAExp1 Prime_1N Target_9N EJkiIFm DKiMEAe Incongruent right correct Normal 537.1722
502 56 LeftSmaller RTTaskAExp1 Prime_9A Target_9N ljFDdIm bJcegfB Congruent right correct Normal 424.1225
502 57 LeftSmaller RTTaskAExp1 Prime_1N Target_9A EiHFLec cafbACK Incongruent right correct Normal 462.4634
502 58 LeftSmaller RTTaskAExp1 Prime_4A Target_4A HcJemkE HgIEDGc Congruent left correct Normal 407.5364
502 59 LeftSmaller RTTaskAExp1 Prime_4A Target_1N cjbFJeK lCJKGgD Congruent left correct Normal 462.111
502 60 LeftSmaller RTTaskAExp1 Prime_4N Target_4N CIghAfl AbgmBhl Congruent left correct Normal 445.7475
502 61 LeftSmaller RTTaskAExp1 Prime_4A Target_6N meCgaIi DbgmKic Incongruent right correct Normal 466.9181
502 62 LeftSmaller RTTaskAExp1 Prime_4A Target_4N aLbJBMk MfhAEKg Congruent left correct Normal 393.2363
502 63 LeftSmaller RTTaskAExp1 Prime_6A Target_6N LlMCjcA JAeDCbM Congruent right correct Normal 414.1705
502 64 LeftSmaller RTTaskAExp1 Prime_9A Target_1A CFldAaM djEecaC Incongruent left correct Normal 416.4923
502 65 LeftSmaller RTTaskAExp1 Prime_6A Target_4N eJFcBIM kLcCAlF Incongruent left correct Normal 466.3772
502 66 LeftSmaller RTTaskAExp1 Prime_1N Target_6A mikHGgD KeJDhfA Incongruent right correct Normal 451.2836
502 67 LeftSmaller RTTaskAExp1 Prime_4N Target_6A iMJEmbg KdlcbmA Incongruent right correct Normal 515.4747
502 68 LeftSmaller RTTaskAExp1 Prime_4A Target_9A jemMfDL CKFbjEk Incongruent right correct Normal 417.276
502 69 LeftSmaller RTTaskAExp1 Prime_9N Target_1A aAKGFCL bdmGhIH Incongruent left correct Normal 441.7453
502 70 LeftSmaller RTTaskAExp1 Prime_9N Target_6A HbgJake ECeIaDj Congruent right correct Normal 505.2034
502 71 LeftSmaller RTTaskAExp1 Prime_9A Target_9A KAGbdMD LmeCbld Congruent right correct Normal 375.3679
502 72 LeftSmaller RTTaskAExp1 Prime_4N Target_1A amhDjel AIJGFjm Congruent left correct Normal 404.38
502 73 LeftSmaller RTTaskAExp1 Prime_9N Target_6N cEKBahi bKcDHBk Congruent right correct Normal 553.8291
502 74 LeftSmaller RTTaskAExp1 Prime_1N Target_4A eiGMaDm aImDEGd Congruent right error Normal 456.274
502 75 LeftSmaller RTTaskAExp1 Prime_6N Target_4A gKHECdA MFJHijB Incongruent left correct Normal 453.3752
502 76 LeftSmaller RTTaskAExp1 Prime_9A Target_6N gJfMmhC beIDcFC Congruent right correct Normal 511.9838
502 77 LeftSmaller RTTaskAExp1 Prime_6N Target_6A BgDJFcl MaKGAkl Congruent right correct Normal 455.1561
502 78 LeftSmaller RTTaskAExp1 Prime_9N Target_9A afgCljB cmFgKlC Congruent right correct Normal 389.5589
502 79 LeftSmaller RTTaskAExp1 Prime_1A Target_4N cifjHFJ hAIfFGl Congruent left correct Normal 503.0299
502 80 LeftSmaller RTTaskAExp1 Prime_6A Target_9A MEGFbAC IdHFmjM Congruent right correct Normal 363.4723
502 81 LeftSmaller RTTaskAExp1 Prime_6N Target_6N bEiFgcm BlfbKDe Congruent right correct Normal 509.2343
502 82 LeftSmaller RTTaskAExp1 Prime_1N Target_4A ikImLHM heLjFkM Congruent left correct Normal 428.7846
502 83 LeftSmaller RTTaskAExp1 Prime_4A Target_1A fJjeELh mMhBIFf Congruent left correct Normal 489.3589
502 84 LeftSmaller RTTaskAExp2 Prime_6N Target_1N ligHMJA HglBKhi Incongruent left correct Normal 481.4716
502 85 LeftSmaller RTTaskAExp2 Prime_4N Target_1N dABhkbf FcIaKmB Congruent left correct Normal 449.9339
502 86 LeftSmaller RTTaskAExp2 Prime_6N Target_4N HhbLCkl bJMHfkG Incongruent left correct Normal 592.3747
502 87 LeftSmaller RTTaskAExp2 Prime_1N Target_4A BDJEjfe KGDaJfE Congruent left correct Normal 524.0796
502 88 LeftSmaller RTTaskAExp2 Prime_1A Target_1N FihKjAf aEBjLig Congruent left correct Normal 368.1648
502 89 LeftSmaller RTTaskAExp2 Prime_6A Target_4A jgemAIF JibMCld Incongruent left correct Normal 387.3762
502 90 LeftSmaller RTTaskAExp2 Prime_6A Target_1A ihaCfEH EFhMIaB Incongruent left correct Normal 314.1527
502 91 LeftSmaller RTTaskAExp2 Prime_1A Target_6A CfbMJKm aHJCMcj Incongruent right correct Normal 447.1398
502 92 LeftSmaller RTTaskAExp2 Prime_4N Target_9N kDEHIiB LcKDGjF Incongruent right correct Normal 587.3418
502 93 LeftSmaller RTTaskAExp2 Prime_1N Target_4N dGLcEej fEcCADd Congruent left correct Normal 457.9787
502 94 LeftSmaller RTTaskAExp2 Prime_9A Target_6N EGhJidf AFmIlhC Congruent left error Normal 448.0051
502 95 LeftSmaller RTTaskAExp2 Prime_4N Target_1A kAgdHCI KdGDbCm Congruent left correct Normal 359.878
502 96 LeftSmaller RTTaskAExp2 Prime_4N Target_6N GLfHgJb BJLMIhd Incongruent right correct Normal 484.5399
502 97 LeftSmaller RTTaskAExp2 Prime_4A Target_1N DBgJKAf KcilhAH Congruent left correct Normal 434.1391
502 98 LeftSmaller RTTaskAExp2 Prime_9N Target_4N mDbCjAa cFHJDdi Incongruent left correct Normal 515.1815
502 99 LeftSmaller RTTaskAExp2 Prime_6N Target_9A dCLFemM GFeMEJd Congruent right correct Normal 414.1622
502 100 LeftSmaller RTTaskAExp2 Prime_6N Target_6N IAHdLED ChmaDfb Congruent right correct Normal 531.3521
502 101 LeftSmaller RTTaskAExp2 Prime_9A Target_4N cGLfgHe LhgedaC Incongruent left correct Normal 424.9187
502 102 LeftSmaller RTTaskAExp2 Prime_4N Target_9A BeMJaEl ACMHDIG Incongruent right correct Normal 391.4065
502 103 LeftSmaller RTTaskAExp2 Prime_9N Target_1A CmJliDe BkechJA Incongruent left correct Normal 468.0932
502 104 LeftSmaller RTTaskAExp2 Prime_9N Target_6A ibJBlLD fCBhLAg Congruent right correct Normal 548.0376
502 105 LeftSmaller RTTaskAExp2 Prime_1A Target_4A egdBmGH gDIKaJA Congruent left correct Normal 439.0018
502 106 LeftSmaller RTTaskAExp2 Prime_6N Target_1A gmdCJGf kIhgMLf Incongruent left correct Normal 453.3325
502 107 LeftSmaller RTTaskAExp2 Prime_1N Target_9A lFHadGk CkDHgEa Incongruent right correct Normal 403.9174
502 108 LeftSmaller RTTaskAExp2 Prime_4A Target_9N CjAbJGI CELdegA Incongruent right correct Normal 415.1898
502 109 LeftSmaller RTTaskAExp2 Prime_9N Target_9N bFilmIj aBGKjbe Congruent right correct Normal 436.4251
502 110 LeftSmaller RTTaskAExp2 Prime_1N Target_6A aMhLblm GdemLgl Incongruent right correct Normal 470.15
502 111 LeftSmaller RTTaskAExp2 Prime_6A Target_9N cfElKBF hEBKdai Congruent right correct Normal 422.2867
502 112 LeftSmaller RTTaskAExp2 Prime_9A Target_9N kLKDCeh KMLFmHj Congruent right correct Normal 390.1836
502 113 LeftSmaller RTTaskAExp2 Prime_4A Target_9A aBlMjHb iChGLlJ Incongruent right correct Normal 404.1317
502 114 LeftSmaller RTTaskAExp2 Prime_1A Target_4N iBcbfDG FmLIkiK Congruent left correct Normal 527.4458
502 115 LeftSmaller RTTaskAExp2 Prime_6A Target_4N lLbmjBE KLIakCd Incongruent left correct Normal 521.9133
502 116 LeftSmaller RTTaskAExp2 Prime_9N Target_4A JdHBCMh BIMGLfe Incongruent left correct Normal 444.216
502 117 LeftSmaller RTTaskAExp2 Prime_1A Target_1A KfdihkI KFkelfb Congruent left correct Normal 389.9997
502 118 LeftSmaller RTTaskAExp2 Prime_1N Target_9N eblEiKm KGciaAj Incongruent right correct Normal 474.4641
502 119 LeftSmaller RTTaskAExp2 Prime_9A Target_6N bfLAmhk gJBEkIh Congruent right correct Normal 690.0862
502 120 LeftSmaller RTTaskAExp2 Prime_9A Target_6A BkdFieg jcAbhfl Congruent right correct Normal 416.0818
502 121 LeftSmaller RTTaskAExp2 Prime_4A Target_6A acJAklF GLIaFAB Incongruent right correct Normal 422.5495
502 122 LeftSmaller RTTaskAExp2 Prime_4A Target_4N GbIMJKe CjdLDfi Congruent left correct Normal 453.192
502 123 LeftSmaller RTTaskAExp2 Prime_9N Target_9A cMLmJil dJKbHfF Congruent right correct Normal 344.1465
502 124 LeftSmaller RTTaskAExp2 Prime_6A Target_6N LCHklDF kdMhmjH Congruent right correct Normal 556.8611
502 125 LeftSmaller RTTaskAExp2 Prime_9N Target_1N ikfJDgB cHfgGKe Incongruent left correct Normal 523.3081
502 126 LeftSmaller RTTaskAExp2 Prime_4N Target_4N aiGLMEd MeJLbDc Congruent left correct Normal 449.1033
502 127 LeftSmaller RTTaskAExp2 Prime_6N Target_4A iHcadJM cdCaLgE Incongruent left correct Normal 419.8277
502 128 LeftSmaller RTTaskAExp2 Prime_9A Target_9A ikKhDde AIjGaLC Congruent right correct Normal 431.4132
502 129 LeftSmaller RTTaskAExp2 Prime_1A Target_6N edGAEgH hdFbLcG Incongruent right correct Normal 426.1268
502 130 LeftSmaller RTTaskAExp2 Prime_6N Target_6A IcLMCdf fGdIFKJ Congruent right correct Normal 402.1983
502 131 LeftSmaller RTTaskAExp2 Prime_9A Target_4A hGmgAFH DfKiHdm Incongruent left correct Normal 462.0411
502 132 LeftSmaller RTTaskAExp2 Prime_9A Target_1N fbDKdkg gdifEhH Incongruent left correct Normal 474.4837
502 133 LeftSmaller RTTaskAExp2 Prime_4A Target_6N khiHbMJ cCBALFJ Incongruent right correct Normal 570.9362
502 134 LeftSmaller RTTaskAExp2 Prime_1N Target_1N ELbaGjC kcMFjdi Congruent left correct Normal 401.2748
502 135 LeftSmaller RTTaskAExp2 Prime_6A Target_1N lFbAdgj HjAmBFk Incongruent left correct Normal 429.0698
502 136 LeftSmaller RTTaskAExp2 Prime_4A Target_1A bmDLHFi jAEdhCJ Congruent left correct Normal 384.3722
502 137 LeftSmaller RTTaskAExp2 Prime_9N Target_6N AdgmCFB lcFibkA Congruent right correct Normal 451.0095
502 138 LeftSmaller RTTaskAExp2 Prime_1A Target_9A mGfElcg feEdKFH Incongruent right correct Normal 488.0223
502 139 LeftSmaller RTTaskAExp2 Prime_4N Target_6A JMGgdBc hckDJMf Incongruent right correct Normal 428.3504
502 140 LeftSmaller RTTaskAExp2 Prime_4A Target_4A mgLIfiA kLbdKGl Congruent left correct Normal 373.2773
502 141 LeftSmaller RTTaskAExp2 Prime_6A Target_9A ilMFGdC CBbjdgm Congruent right correct Normal 410.3746
502 142 LeftSmaller RTTaskAExp2 Prime_1A Target_9N MKdhklE ecELdFI Incongruent right correct Normal 582.7623
502 143 LeftSmaller RTTaskAExp2 Prime_6A Target_6A haEdAbF mHMifIE Congruent right correct Normal 445.0986
502 144 LeftSmaller RTTaskAExp2 Prime_1N Target_6N fKGEhmC HlLCcMA Incongruent right correct Normal 365.3238
502 145 LeftSmaller RTTaskAExp2 Prime_9A Target_1A JHdjIkF KGHkgfC Incongruent left correct Normal 446.8562
502 146 LeftSmaller RTTaskAExp2 Prime_4N Target_4A bJLDIge kLBCAiG Congruent left correct Normal 472.6984
502 147 LeftSmaller RTTaskAExp2 Prime_1N Target_1A clafiBF bCIGaHk Congruent left correct Normal 406.1356
502 148 LeftSmaller RTTaskAExp2 Prime_6N Target_9N kfHFeLB gKmhkId Congruent right correct Normal 467.4236
502 149 LeftLarger RTTaskBPrac Prime_6N Target_6N mkbEGfd bkMdciA Congruent left correct Normal 498.3984
502 150 LeftLarger RTTaskBPrac Prime_9A Target_9N chHMbBF HgCejMa Congruent left correct Normal 544.1438
502 151 LeftLarger RTTaskBPrac Prime_1N Target_9A IMFmLAH eHajbDC Incongruent left correct Normal 435.4063
502 152 LeftLarger RTTaskBPrac Prime_1A Target_6A GAgMmkI GIjchEd Incongruent left correct Normal 462.808
502 153 LeftLarger RTTaskBPrac Prime_6A Target_9A jgckGlf aHJBKEd Congruent left correct Normal 322.7305
502 154 LeftLarger RTTaskBPrac Prime_1N Target_9N LDdKlEC mcafHlF Incongruent left correct Normal 359.6068
502 155 LeftLarger RTTaskBPrac Prime_6N Target_9N jbBEkcD GIgHLFj Congruent left correct Normal 313.2344
502 156 LeftLarger RTTaskBPrac Prime_9N Target_6N EmiGHCM GBHFjIl Congruent left correct Normal 371.8647
502 157 LeftLarger RTTaskBPrac Prime_1A Target_9N hAHimkJ BJHjEeA Incongruent left correct Normal 403.0131
502 158 LeftLarger RTTaskBPrac Prime_6N Target_1A HgGEKAa fFGhdlb Incongruent right correct Normal 435.7603
502 159 LeftLarger RTTaskBPrac Prime_1A Target_6N GIEhdBl HJgeMlF Incongruent left correct Normal 382.3551
502 160 LeftLarger RTTaskBPrac Prime_4N Target_6N AJgelbc kdimcMJ Incongruent left correct Normal 412.1591
502 161 LeftLarger RTTaskBPrac Prime_4N Target_4A heamlMJ IiJCdFA Congruent left error Normal 443.1403
502 162 LeftLarger RTTaskBPrac Prime_4N Target_4A GiKlmCk ElCKLmM Congruent right correct Normal 478.0898
502 163 LeftLarger RTTaskBPrac Prime_4A Target_9N DHhalfK gAIkLlh Incongruent left correct Normal 466.6281
502 164 LeftLarger RTTaskBPrac Prime_1A Target_1N EFhIbjM GClgfbM Congruent right correct Normal 481.9781
502 165 LeftLarger RTTaskBPrac Prime_1A Target_4N BMgdabD fjBeCEc Congruent right correct Normal 543.3159
502 166 LeftLarger RTTaskBExp1 Prime_1N Target_6A FJgEKah mEcabKg Incongruent left correct Normal 455.4452
502 167 LeftLarger RTTaskBExp1 Prime_6A Target_9A bGdaBfK celIBDj Congruent left correct Normal 353.1915
502 168 LeftLarger RTTaskBExp1 Prime_4N Target_6N kHiabCj lcdGMfi Incongruent left correct Normal 354.3851
502 169 LeftLarger RTTaskBExp1 Prime_6A Target_6A fFcKHBL GFeEabB Congruent left correct Normal 335.5915
502 170 LeftLarger RTTaskBExp1 Prime_4N Target_9N ajAiIGD ABidFkj Incongruent left correct Normal 383.7986
502 171 LeftLarger RTTaskBExp1 Prime_9A Target_4N dhJHaeE lcAHCIL Incongruent right correct Normal 492.8907
502 172 LeftLarger RTTaskBExp1 Prime_9A Target_6N LcMFJjk HIbhgAk Congruent left correct Normal 472.8152
502 173 LeftLarger RTTaskBExp1 Prime_4A Target_1N hiaIkMB BMjhAEk Congruent right correct Normal 517.8984
502 174 LeftLarger RTTaskBExp1 Prime_1A Target_1N bmIKgEB kalebgE Congruent right correct Normal 408.7603
502 175 LeftLarger RTTaskBExp1 Prime_9A Target_1A dfLEkBJ JfbcGAg Incongruent right correct Normal 427.5679
502 176 LeftLarger RTTaskBExp1 Prime_6A Target_4N GHIJKFh HfmMACh Incongruent right correct Normal 401.5634
502 177 LeftLarger RTTaskBExp1 Prime_4N Target_9A DecCAhb kaBIDGb Incongruent left correct Normal 429.541
502 178 LeftLarger RTTaskBExp1 Prime_9A Target_6A gkciBjm baFeIgk Congruent left correct Normal 407.9434
502 179 LeftLarger RTTaskBExp1 Prime_9A Target_1N gCKEBHF IhJifEd Incongruent right correct Normal 435.4399
502 180 LeftLarger RTTaskBExp1 Prime_6N Target_9A AFbGIEL HDhKAil Congruent left correct Normal 412.9397
502 181 LeftLarger RTTaskBExp1 Prime_1N Target_4N fgLabJi cLHMjGl Congruent right correct Normal 511.2656
502 182 LeftLarger RTTaskBExp1 Prime_1A Target_4N MeIfcbB LdfhbJI Congruent right correct Normal 564.436
502 183 LeftLarger RTTaskBExp1 Prime_1A Target_9A dfHlDGj BhMDbGH Incongruent left correct Normal 412.5576
502 184 LeftLarger RTTaskBExp1 Prime_9N Target_1A LHAMEgG GbiCJdB Incongruent right correct Normal 421.9364
502 185 LeftLarger RTTaskBExp1 Prime_6A Target_1A EGlejkg JILhAFf Incongruent right correct Normal 377.4541
502 186 LeftLarger RTTaskBExp1 Prime_1A Target_6N bDdLEFk IAKlkfM Incongruent left correct Normal 469.5653
502 187 LeftLarger RTTaskBExp1 Prime_6A Target_9N bFCeLME JibjmIe Congruent left correct Normal 492.235
502 188 LeftLarger RTTaskBExp1 Prime_9A Target_4A lfCHLdg EBaKFMD Incongruent right correct Normal 460.4927
502 189 LeftLarger RTTaskBExp1 Prime_4A Target_6N Hhbdejg AbEGfej Incongruent left correct Normal 461.2947
502 190 LeftLarger RTTaskBExp1 Prime_4A Target_1A gbBeAkh afJemjg Congruent right correct Normal 360.8588
502 191 LeftLarger RTTaskBExp1 Prime_9N Target_1N JlbLGdH jCdelic Incongruent right correct Normal 455.5396
502 192 LeftLarger RTTaskBExp1 Prime_4A Target_9N mBJkahL JELfBiM Incongruent left correct Normal 489.5516
502 193 LeftLarger RTTaskBExp1 Prime_9A Target_9N HCiKIDl HflEJim Congruent left correct Normal 457.7278
502 194 LeftLarger RTTaskBExp1 Prime_6A Target_1N cHaIieL jBaAlic Incongruent right correct Normal 392.7968
502 195 LeftLarger RTTaskBExp1 Prime_6N Target_1A KAGmeFc BLMjlcb Incongruent right correct Normal 424.4936
502 196 LeftLarger RTTaskBExp1 Prime_1N Target_9N hgAbajF KfEgJCl Incongruent left correct Normal 429.4347
502 197 LeftLarger RTTaskBExp1 Prime_1N Target_1A FILMjJh gehLJIG Congruent right correct Normal 351.3663
502 198 LeftLarger RTTaskBExp1 Prime_1N Target_9A JBlaDMG LajElkd Incongruent left correct Normal 492.9545
502 199 LeftLarger RTTaskBExp1 Prime_6N Target_6N dGcKJEa MkhIfAH Congruent left correct Normal 402.452
502 200 LeftLarger RTTaskBExp1 Prime_4N Target_4N hDKcJmI dmEkfaA Congruent right correct Normal 512.7684
502 201 LeftLarger RTTaskBExp1 Prime_4N Target_1N djMbcih gmhjAHM Congruent right correct Normal 478.3496
502 202 LeftLarger RTTaskBExp1 Prime_6N Target_1N CadIKMh AmhGjJC Incongruent right correct Normal 454.3417
502 203 LeftLarger RTTaskBExp1 Prime_1N Target_4A DjbkMAE GgJfIEM Congruent right correct Normal 509.0155
502 204 LeftLarger RTTaskBExp1 Prime_9A Target_9A lIdGAja HeFkKgl Congruent left correct Normal 395.0754
502 205 LeftLarger RTTaskBExp1 Prime_6N Target_9N hFbmjgA BElfLei Congruent right error Normal 450.6562
502 206 LeftLarger RTTaskBExp1 Prime_1A Target_9N HIfmcEg aIdjhbg Incongruent left correct Normal 442.1245
502 207 LeftLarger RTTaskBExp1 Prime_4N Target_1A kMmKieH hMgmABf Congruent right correct Normal 417.2162
502 208 LeftLarger RTTaskBExp1 Prime_9N Target_6A GDkBjIJ ifGImJa Congruent left correct Normal 469.7509
502 209 LeftLarger RTTaskBExp1 Prime_4A Target_6A KfIAmGH jMEHliD Incongruent left correct Normal 466.8667
502 210 LeftLarger RTTaskBExp1 Prime_1N Target_6N aheCKji JLbGfEI Incongruent left correct Normal 480.1837
502 211 LeftLarger RTTaskBExp1 Prime_1A Target_1A bmDkeMa mFJejid Congruent right correct Normal 381.766
502 212 LeftLarger RTTaskBExp1 Prime_6N Target_6A lHhJKEC lJfMmEL Congruent left correct Normal 375.6046
502 213 LeftLarger RTTaskBExp1 Prime_1N Target_1N gHcDBmI GehkJma Congruent right correct Normal 517.559
502 214 LeftLarger RTTaskBExp1 Prime_4A Target_4N gKaFDCj kDeaIGA Congruent right correct Normal 416.9631
502 215 LeftLarger RTTaskBExp1 Prime_4A Target_9A BHeEGFl gEecDFG Incongruent left correct Normal 444.5858
502 216 LeftLarger RTTaskBExp1 Prime_6N Target_4N LmeAidG hLMCeIK Incongruent right correct Normal 541.2897
502 217 LeftLarger RTTaskBExp1 Prime_6A Target_6N bBaJkKH FJgCBKh Congruent left correct Normal 424.497
502 218 LeftLarger RTTaskBExp1 Prime_1A Target_6A mdceGJj KMlJebg Incongruent left correct Normal 453.2016
502 219 LeftLarger RTTaskBExp1 Prime_1A Target_4A EdJCbgm aeFcIGi Congruent right correct Normal 551.1564
502 220 LeftLarger RTTaskBExp1 Prime_4A Target_4A jhecfmC gKMAmjE Congruent right correct Normal 451.5976
502 221 LeftLarger RTTaskBExp1 Prime_4N Target_6A LgEceAa bjflAJa Incongruent left correct Normal 492.8182
502 222 LeftLarger RTTaskBExp1 Prime_6N Target_9N HamDiJl DGbLaeg Congruent left correct Normal 474.2684
502 223 LeftLarger RTTaskBExp1 Prime_6N Target_4A mFLGgMj iADMeHC Incongruent right correct Normal 462.592
502 224 LeftLarger RTTaskBExp1 Prime_9N Target_9A IfjKmAB mckiKEe Congruent left correct Normal 372.906
502 225 LeftLarger RTTaskBExp1 Prime_4N Target_4A GLAdaKh kiMAgab Congruent right correct Normal 348.847
502 226 LeftLarger RTTaskBExp1 Prime_9N Target_4N AjLJBef lAfHgKE Incongruent right correct Normal 502.446
502 227 LeftLarger RTTaskBExp1 Prime_9N Target_6N GLBgmMC jcLIKAi Congruent left correct Normal 504.2585
502 228 LeftLarger RTTaskBExp1 Prime_9N Target_9N EbCBmAa iEGdJbK Congruent left correct Normal 389.1136
502 229 LeftLarger RTTaskBExp1 Prime_6A Target_4A AlMbFiD KABMajk Incongruent right correct Normal 482.3123
502 230 LeftLarger RTTaskBExp1 Prime_9N Target_4A mHkIMab jfCHIKe Incongruent right correct Normal 491.3791
502 231 LeftLarger RTTaskBExp2 Prime_6A Target_1A IibDcCH MFhKdmE Incongruent right correct Normal 508.9687
502 232 LeftLarger RTTaskBExp2 Prime_6N Target_1A gieDMFE eGIacKE Incongruent right correct Normal 417.8026
502 233 LeftLarger RTTaskBExp2 Prime_4N Target_1A EmMHaJi cJDALBh Congruent right correct Normal 369.8713
502 234 LeftLarger RTTaskBExp2 Prime_1A Target_6N DkbBejK AlaLdEh Incongruent left correct Normal 443.5573
502 235 LeftLarger RTTaskBExp2 Prime_9N Target_6A IdJMjki jmhLAGB Congruent left correct Normal 355.6817
502 236 LeftLarger RTTaskBExp2 Prime_4N Target_6N FImKJjA kHfeCag Incongruent left correct Normal 455.0661
502 237 LeftLarger RTTaskBExp2 Prime_4N Target_9N KEDBJfM KjJlDmd Incongruent left correct Normal 484.6451
502 238 LeftLarger RTTaskBExp2 Prime_4N Target_4A AJHicLm KIJEaBf Congruent right correct Normal 440.7882
502 239 LeftLarger RTTaskBExp2 Prime_9A Target_6N HfKILjg lHGcJhf Congruent left correct Normal 392.7363
502 240 LeftLarger RTTaskBExp2 Prime_4A Target_1A IfkBheE EBmicJb Congruent right correct Normal 361.9168
502 241 LeftLarger RTTaskBExp2 Prime_4N Target_4N IAlJDhc BbGMaIe Congruent right correct Normal 404.9728
502 242 LeftLarger RTTaskBExp2 Prime_6N Target_4A cbAIGHK iAFDmHG Incongruent right correct Normal 409.1404
502 243 LeftLarger RTTaskBExp2 Prime_1N Target_4N mlLJKGb KMklbAG Congruent right correct Normal 457.6162
502 244 LeftLarger RTTaskBExp2 Prime_1N Target_9A IhJbCmG JfMaLel Incongruent left correct Normal 413.9554
502 245 LeftLarger RTTaskBExp2 Prime_6A Target_6N lbHaIAh cdamfBK Congruent left correct Normal 523.6948
502 246 LeftLarger RTTaskBExp2 Prime_9N Target_9A IgdHCKf iHcfhEd Congruent left correct Normal 356.911
502 247 LeftLarger RTTaskBExp2 Prime_4N Target_9A mcEjMag mghMLkD Incongruent left correct Normal 407.6194
502 248 LeftLarger RTTaskBExp2 Prime_9A Target_1A glMKiIc liHkcBL Incongruent right correct Normal 403.9343
502 249 LeftLarger RTTaskBExp2 Prime_9N Target_1N ADcaMCb IDehfMd Incongruent right correct Normal 542.6067
502 250 LeftLarger RTTaskBExp2 Prime_6N Target_4N mGaDhBb kCdfGmB Incongruent left error Normal 363.2045
502 251 LeftLarger RTTaskBExp2 Prime_6A Target_4A BebcdDm LBdiGlE Incongruent right correct Normal 539.5641
502 252 LeftLarger RTTaskBExp2 Prime_1A Target_4N HbfDgBF gGKfAeH Congruent right correct Normal 490.0256
502 253 LeftLarger RTTaskBExp2 Prime_9A Target_9N hdDcMjA mLHIkli Congruent left correct Normal 507.5875
502 254 LeftLarger RTTaskBExp2 Prime_1N Target_1N KJMHgmI eGcgKfb Congruent right correct Normal 477.7822
502 255 LeftLarger RTTaskBExp2 Prime_6N Target_9N MlibhGH Akhjcgb Congruent left correct Normal 524.367
502 256 LeftLarger RTTaskBExp2 Prime_1A Target_6A keDIham KfHEIFL Incongruent left correct Normal 393.2082
502 257 LeftLarger RTTaskBExp2 Prime_9N Target_6N AKEhbCf JGhCKaB Congruent left correct Normal 390.6468
502 258 LeftLarger RTTaskBExp2 Prime_1N Target_6A AMDbGmE fIJedLm Incongruent left correct Normal 433.3093
502 259 LeftLarger RTTaskBExp2 Prime_9N Target_4A GIaMEeL BfDbGLJ Incongruent right correct Normal 456.312
502 260 LeftLarger RTTaskBExp2 Prime_9A Target_1N FbLcejB iAbdFhK Incongruent right correct Normal 460.8849
502 261 LeftLarger RTTaskBExp2 Prime_4A Target_6A MEdCHiB KablCcd Incongruent left correct Normal 443.9705
502 262 LeftLarger RTTaskBExp2 Prime_6N Target_4N mDjBAGb FDEKHch Incongruent right correct Normal 431.1602
502 263 LeftLarger RTTaskBExp2 Prime_9A Target_4N KebicGF iHAkefd Incongruent right correct Normal 384.6344
502 264 LeftLarger RTTaskBExp2 Prime_1A Target_1A fbAMBie bElBaLK Congruent right correct Normal 395.971
502 265 LeftLarger RTTaskBExp2 Prime_1A Target_9A iKhjbmk jhIHKMC Incongruent left correct Normal 406.0419
502 266 LeftLarger RTTaskBExp2 Prime_4A Target_9N EdjKDei FhKlaAI Incongruent left correct Normal 466.1986
502 267 LeftLarger RTTaskBExp2 Prime_1A Target_4A HbKjDAa hbMAfGg Congruent right correct Normal 476.5301
502 268 LeftLarger RTTaskBExp2 Prime_1A Target_1N DlKhHjm AegKMfj Congruent right correct Normal 524.5283
502 269 LeftLarger RTTaskBExp2 Prime_6A Target_6A dMBjFKh ifDAHFl Congruent left correct Normal 639.6216
502 270 LeftLarger RTTaskBExp2 Prime_9A Target_9A HifKDck FebMdhi Congruent left correct Normal 340.6346
502 271 LeftLarger RTTaskBExp2 Prime_6A Target_1N AGaeDkh bekhfgm Incongruent left error Normal 360.3887
502 272 LeftLarger RTTaskBExp2 Prime_1N Target_6N JKBijGD bgFKLam Incongruent left correct Normal 495.4781
502 273 LeftLarger RTTaskBExp2 Prime_1N Target_9N BejKIca GhcMgCj Incongruent left correct Normal 403.1646
502 274 LeftLarger RTTaskBExp2 Prime_9N Target_1A eGMFcDd FghDlLa Incongruent right correct Normal 380.6537
502 275 LeftLarger RTTaskBExp2 Prime_4A Target_9A CHIbefA fbjDLJE Incongruent left correct Normal 431.8431
502 276 LeftLarger RTTaskBExp2 Prime_4A Target_4N iLKgdFI LFIkiHa Congruent right correct Normal 391.1556
502 277 LeftLarger RTTaskBExp2 Prime_6A Target_1N lcIibgA jAHmClB Incongruent right correct Normal 475.2421
502 278 LeftLarger RTTaskBExp2 Prime_4A Target_1N iMkfKhb BbCmMlh Congruent right correct Normal 432.9381
502 279 LeftLarger RTTaskBExp2 Prime_4A Target_4A lGfiDeM mFecgja Congruent right correct Normal 336.4854
502 280 LeftLarger RTTaskBExp2 Prime_4N Target_1N CEgiKJc BGhfFkA Congruent right correct Normal 366.9334
502 281 LeftLarger RTTaskBExp2 Prime_6N Target_9A hcdDFAe AlbeKLH Congruent left correct Normal 406.6876
502 282 LeftLarger RTTaskBExp2 Prime_6N Target_1N hBjiIAm HIAbCfm Incongruent right correct Normal 544.2492
502 283 LeftLarger RTTaskBExp2 Prime_6A Target_9A CJLfIEH efbJFgG Congruent left correct Normal 369.3281
502 284 LeftLarger RTTaskBExp2 Prime_6N Target_6A fbHBLIi aIhFGAD Congruent left correct Normal 416.4208
502 285 LeftLarger RTTaskBExp2 Prime_1A Target_9N kLhHfFd GDbCfcm Incongruent right error Normal 393.9889
502 286 LeftLarger RTTaskBExp2 Prime_1A Target_9N gHLjmiE eHBigLk Incongruent left correct Normal 493
502 287 LeftLarger RTTaskBExp2 Prime_9N Target_9N Eihflmj hgMCEkF Congruent left correct Normal 392.553
502 288 LeftLarger RTTaskBExp2 Prime_9A Target_6A HmCFMaJ KLDAkda Congruent left correct Normal 486.3674
502 289 LeftLarger RTTaskBExp2 Prime_6N Target_6N lgIiBJh mbhLCAf Congruent left correct Normal 392.1896
502 290 LeftLarger RTTaskBExp2 Prime_6A Target_9N ehimDlJ DGEgKkF Congruent left correct Normal 354.5354
502 291 LeftLarger RTTaskBExp2 Prime_1N Target_4A mkeJhfL jEGgeld Congruent left error Normal 470.7383
502 292 LeftLarger RTTaskBExp2 Prime_6A Target_4N fcBLeJb KBkAGhj Incongruent right correct Normal 504.2184
502 293 LeftLarger RTTaskBExp2 Prime_1N Target_4A JfkEBKm JIKLdej Congruent right correct Normal 426.3523
502 294 LeftLarger RTTaskBExp2 Prime_1N Target_1A gCMHBJk aCLIHEm Congruent right correct Normal 378.4557
502 295 LeftLarger RTTaskBExp2 Prime_4N Target_6A fiGbglL fLJGEDI Incongruent left correct Normal 521.0574
502 296 LeftLarger RTTaskBExp2 Prime_9A Target_4A dDicBfC GmjbkAB Incongruent right correct Normal 514.4022
502 297 LeftLarger RTTaskBExp2 Prime_4A Target_6N LCfbBdj MgeLbhK Incongruent left correct Normal 459.831
502 298 LeftLarger RTTaskBExp2 Prime_9N Target_4N EaflCci eMEGbgi Incongruent right correct Normal 457.9933
503 1 LeftLarger RTTaskAPrac Prime_1N Target_4A fiHkamA GgAMcHJ Congruent right correct Late 1660.045
503 2 LeftLarger RTTaskAPrac Prime_1N Target_4A jiKcDgh LKEgjic Congruent right correct Normal 559.1877
503 3 LeftLarger RTTaskAPrac Prime_9N Target_9A CLBMkbf jEcCMLH Congruent left correct Normal 536.5722
503 4 LeftLarger RTTaskAPrac Prime_9A Target_6N GfdhjiE jFCkega Congruent right error Normal 725.7616
503 5 LeftLarger RTTaskAPrac Prime_6N Target_4A CgGmMbE fHhBKdl Incongruent right correct Normal 933.4736
503 6 LeftLarger RTTaskAPrac Prime_1A Target_1A iLljHFb gBJdADH Congruent right correct Late 1023.496
503 7 LeftLarger RTTaskAPrac Prime_1A Target_6N bkJMaFi fCmBeLI Incongruent left correct Normal 561.8708
503 8 LeftLarger RTTaskAPrac Prime_1A Target_1A idcjGfE BLCHcik Congruent right correct Normal 664.2576
503 9 LeftLarger RTTaskAPrac Prime_9A Target_6N dILClMA fEgKbeF Congruent left correct Normal 882.8712
503 10 LeftLarger RTTaskAPrac Prime_4A Target_1N meclHBM KGFgfie Congruent left error Normal 766.2919
503 11 LeftLarger RTTaskAPrac Prime_4N Target_4N jdkeEAl MAicDea Congruent right correct Normal 936.1613
503 12 LeftLarger RTTaskAPrac Prime_4A Target_1N iDmbMlG BbIfJFj Congruent left error Normal 847.1846
503 13 LeftLarger RTTaskAPrac Prime_1N Target_1N BceIajJ BmfhAMD Congruent right correct Normal 638.1394
503 14 LeftLarger RTTaskAPrac Prime_9A Target_4N jahcHdF HAjhFJG Incongruent right correct Normal 570.4603
503 15 LeftLarger RTTaskAPrac Prime_9N Target_6N bhGJjHd LfIbJHA Congruent left correct Normal 535.7252
503 16 LeftLarger RTTaskAPrac Prime_4A Target_4N kKFDAjh ackJHFI Congruent right correct Normal 714.5081
503 17 LeftLarger RTTaskAPrac Prime_4N Target_9N gEblIHk gcChfde Incongruent left correct Normal 552.076
503 18 LeftLarger RTTaskAPrac Prime_1N Target_1A EmhclJe LehfaMG Congruent right correct Normal 474.2317
503 19 LeftLarger RTTaskAPrac Prime_6N Target_6N aJFIdfc KFfMgCk Congruent left correct Normal 561.4123
503 20 LeftLarger RTTaskAPrac Prime_1A Target_9A aIkdcHK dGKBFem Incongruent right error Normal 487.5786
503 21 LeftLarger RTTaskAPrac Prime_1A Target_9A ebJEBhC lCkEbcA Incongruent right error Normal 418.7553
503 22 LeftLarger RTTaskAPrac Prime_4A Target_1N FLjcgei hlfKAHj Congruent left error Normal 432.1851
503 23 LeftLarger RTTaskAPrac Prime_4A Target_1N IDfhHBe IEMDcFC Congruent right correct Normal 823.3754
503 24 LeftLarger RTTaskAPrac Prime_1A Target_9A hjHDeiF MDFLefh Incongruent left correct Normal 575.5481
503 25 LeftLarger RTTaskAExp1 Prime_6N Target_4N BICMkmf mcDeCFB Incongruent right correct Normal 664.8357
503 26 LeftLarger RTTaskAExp1 Prime_9N Target_1A GfJblHd CMkDhgm Incongruent right correct Normal 561.8623
503 27 LeftLarger RTTaskAExp1 Prime_4N Target_9N chJjlFL kiBbMeD Incongruent left correct Normal 525.4256
503 28 LeftLarger RTTaskAExp1 Prime_6N Target_9N cEdaHJh dAbfIDF Congruent left correct Normal 506.9224
503 29 LeftLarger RTTaskAExp1 Prime_6N Target_4A biLIgEJ HDaJEBF Incongruent right correct Normal 486.2672
503 30 LeftLarger RTTaskAExp1 Prime_6A Target_9N iAajkLF jAhgIlM Congruent left correct Normal 567.781
503 31 LeftLarger RTTaskAExp1 Prime_9N Target_6N kIACmFh aJciAjG Congruent left correct Normal 543.0734
503 32 LeftLarger RTTaskAExp1 Prime_6A Target_4A eDliHfd aLDMhiG Incongruent right correct Normal 454.6065
503 33 LeftLarger RTTaskAExp1 Prime_4N Target_9A JecgdBM HjaBdFD Incongruent left correct Normal 448.4262
503 34 LeftLarger RTTaskAExp1 Prime_4A Target_4N cEDAFKJ eigDBhA Congruent right correct Normal 430.3363
503 35 LeftLarger RTTaskAExp1 Prime_6A Target_1N MIaEjbJ CIfhkdL Incongruent left error Normal 501.9029
503 36 LeftLarger RTTaskAExp1 Prime_4A Target_9N DCLjiFg kJCcLKg Incongruent left correct Normal 528.1179
503 37 LeftLarger RTTaskAExp1 Prime_4N Target_6A LbBfiFD bEHDJGI Incongruent left correct Normal 621.4507
503 38 LeftLarger RTTaskAExp1 Prime_6N Target_1N MmagBGE HKjeDgm Incongruent right correct Normal 520.7053
503 39 LeftLarger RTTaskAExp1 Prime_9N Target_9A kJLclFE aBlcgdE Congruent left correct Normal 546.8839
503 40 LeftLarger RTTaskAExp1 Prime_4N Target_1N gkcDfHK ghKDlCE Congruent right correct Normal 607.0795
503 41 LeftLarger RTTaskAExp1 Prime_1N Target_4A dalCfhB aHMJgbG Congruent right correct Normal 782.1217
503 42 LeftLarger RTTaskAExp1 Prime_6N Target_9A MHiIDaE jKabiLh Congruent left correct Normal 444.9312
503 43 LeftLarger RTTaskAExp1 Prime_9N Target_9N KDgEHkl dlcKihI Congruent left correct Normal 428.2111
503 44 LeftLarger RTTaskAExp1 Prime_1N Target_1A GCbjdmi DmjcKEf Congruent right correct Normal 360.0069
503 45 LeftLarger RTTaskAExp1 Prime_4A Target_6N fleAgDd CLJdIDj Incongruent left correct Normal 707.9193
503 46 LeftLarger RTTaskAExp1 Prime_1A Target_9A MjhaciF jCMJGFh Incongruent left correct Normal 463.4778
503 47 LeftLarger RTTaskAExp1 Prime_1A Target_1A HaKheiE GHKCglk Congruent right correct Normal 407.203
503 48 LeftLarger RTTaskAExp1 Prime_1N Target_9N aIcfmHL jGBCkbl Incongruent left correct Normal 410.7985
503 49 LeftLarger RTTaskAExp1 Prime_4A Target_1A bAckKmL DcldFgk Congruent right correct Normal 418.5241
503 50 LeftLarger RTTaskAExp1 Prime_1A Target_6A gEIFkCM hFBecDL Incongruent right error Normal 812.5641
503 51 LeftLarger RTTaskAExp1 Prime_6N Target_6A hCdKBAD hHjDbdK Congruent left correct Normal 379.5942
503 52 LeftLarger RTTaskAExp1 Prime_1A Target_6N CdgAIEa fbFjGad Incongruent left correct Normal 484.6089
503 53 LeftLarger RTTaskAExp1 Prime_9N Target_6A lgDjkBL DdgbfMh Congruent left correct Normal 496.6407
503 54 LeftLarger RTTaskAExp1 Prime_9A Target_9A cjhGIAF mKdAGfl Congruent left correct Normal 633.9511
503 55 LeftLarger RTTaskAExp1 Prime_4A Target_6A GCMLFIa mMilahg Incongruent left correct Normal 508.9757
503 56 LeftLarger RTTaskAExp1 Prime_1N Target_1N dgDlAJi FBlaLfi Congruent right correct Normal 454.5451
503 57 LeftLarger RTTaskAExp1 Prime_1A Target_4N cmiFKaI JEDACIm Congruent left error Normal 410.0496
503 58 LeftLarger RTTaskAExp1 Prime_1A Target_9N KDhmdHB Lgclema Incongruent left correct Normal 584.9977
503 59 LeftLarger RTTaskAExp1 Prime_4A Target_1N MBJaHfC jdCaBgm Congruent right correct Normal 597.913
503 60 LeftLarger RTTaskAExp1 Prime_4N Target_4N KeliBFD blKCdHJ Congruent right correct Normal 691.0886
503 61 LeftLarger RTTaskAExp1 Prime_9A Target_4A mJcdFhC dIhgFcG Incongruent right correct Normal 553.1415
503 62 LeftLarger RTTaskAExp1 Prime_4N Target_1A ahFCMiD HkmILdA Congruent right correct Normal 437.4066
503 63 LeftLarger RTTaskAExp1 Prime_9N Target_4N DKCagEm EkLeGhj Incongruent right correct Normal 475.9339
503 64 LeftLarger RTTaskAExp1 Prime_1A Target_4A mIcdgBa jCFAhiD Congruent right correct Normal 368.8654
503 65 LeftLarger RTTaskAExp1 Prime_6A Target_1A ChBdEam AfKBIFC Incongruent right correct Normal 383.3566
503 66 LeftLarger RTTaskAExp1 Prime_4N Target_4A kMeBFIH LFGhCJH Congruent right correct Normal 355.3222
503 67 LeftLarger RTTaskAExp1 Prime_1A Target_6A cCdaIfM Baihjcl Incongruent right error Normal 330.998
503 68 LeftLarger RTTaskAExp1 Prime_9A Target_4N FJGlhjL lIfgCjd Incongruent right correct Normal 561.9893
503 69 LeftLarger RTTaskAExp1 Prime_6A Target_6N KFHaAMb FgildGJ Congruent left correct Normal 506.167
503 70 LeftLarger RTTaskAExp1 Prime_9A Target_1A KaleibI ekDBEIL Incongruent right correct Normal 818.2394
503 71 LeftLarger RTTaskAExp1 Prime_6A Target_1N bmFMAeK ELHlhKm Incongruent right correct Normal 457.8001
503 72 LeftLarger RTTaskAExp1 Prime_1A Target_1N LbMfEem EabKkcL Congruent right correct Normal 361.3284
503 73 LeftLarger RTTaskAExp1 Prime_4N Target_6N mflkhLA BJihmfH Incongruent left correct Normal 649.6778
503 74 LeftLarger RTTaskAExp1 Prime_6A Target_6A dAEBkjb fCckjHl Congruent left correct Normal 788.0042
503 75 LeftLarger RTTaskAExp1 Prime_9A Target_6A lkGegjD hdBekMF Congruent left correct Normal 420.4788
503 76 LeftLarger RTTaskAExp1 Prime_9N Target_4A jeligHB LgAjmec Incongruent right correct Normal 779.874
503 77 LeftLarger RTTaskAExp1 Prime_9N Target_1N kDjlJKL bkcIFef Incongruent right correct Normal 654.0573
503 78 LeftLarger RTTaskAExp1 Prime_4A Target_9A BKLbamE FdbcIKm Incongruent left correct Normal 564.1072
503 79 LeftLarger RTTaskAExp1 Prime_6A Target_4N hDHJiIC khKlGBC Incongruent right correct Normal 692.8376
503 80 LeftLarger RTTaskAExp1 Prime_1A Target_6A AkFidLe EJKGbDe Incongruent left correct Normal 708.4901
503 81 LeftLarger RTTaskAExp1 Prime_6A Target_9A hedBgbA hDKIgFf Congruent left correct Normal 489.8357
503 82 LeftLarger RTTaskAExp1 Prime_6N Target_6N lHJbCah eHjdLbG Congruent left correct Normal 535.7751
503 83 LeftLarger RTTaskAExp1 Prime_4A Target_4A ljeDChI cKEhjJd Congruent right correct Normal 581.0502
503 84 LeftLarger RTTaskAExp1 Prime_1N Target_6N LMafGAd hKJljmC Incongruent left correct Normal 570.6951
503 85 LeftLarger RTTaskAExp1 Prime_6N Target_1A AhcEfgd acfHgJm Incongruent right correct Normal 455.5407
503 86 LeftLarger RTTaskAExp1 Prime_9A Target_6N gckelfJ GmHEIBi Congruent left correct Normal 555.3108
503 87 LeftLarger RTTaskAExp1 Prime_9A Target_1N DFalkdj IlHdgiK Incongruent right correct Normal 475.7555
503 88 LeftLarger RTTaskAExp1 Prime_1N Target_9A LeicJHG gmMaHhk Incongruent left correct Normal 479.8949
503 89 LeftLarger RTTaskAExp1 Prime_1A Target_4N LaFJidf GCLAkcj Congruent right correct Normal 505.4461
503 90 LeftLarger RTTaskAExp1 Prime_9A Target_9N jMfleBF CDLfael Congruent left correct Normal 506.9323
503 91 LeftLarger RTTaskAExp1 Prime_1N Target_6A lCFjABE jBhEKaA Incongruent left correct Normal 529.7623
503 92 LeftLarger RTTaskAExp1 Prime_1N Target_4N mCJKcHl DaKBCLA Congruent right correct Normal 486.2883
503 93 LeftLarger RTTaskAExp2 Prime_9N Target_6A idbLAel BAFMbgL Congruent left correct Normal 705.1947
503 94 LeftLarger RTTaskAExp2 Prime_1N Target_4N BbjkDHG daJBjle Congruent right correct Normal 394.6004
503 95 LeftLarger RTTaskAExp2 Prime_9A Target_4A aHLblhG debhAcE Incongruent right correct Normal 469.9403
503 96 LeftLarger RTTaskAExp2 Prime_1A Target_1N cgkijFf eaCIJki Congruent right correct Normal 555.685
503 97 LeftLarger RTTaskAExp2 Prime_9A Target_9A jbHLaFh GcMDBJb Congruent left correct Normal 448.6016
503 98 LeftLarger RTTaskAExp2 Prime_6A Target_9A CjMLEHk iBjaMDK Congruent left correct Normal 409.2813
503 99 LeftLarger RTTaskAExp2 Prime_4N Target_4A FlBJbga jmHKhae Congruent right correct Normal 501.9509
503 100 LeftLarger RTTaskAExp2 Prime_6A Target_9N AJmaIMG BmicDEH Congruent left correct Normal 505.7646
503 101 LeftLarger RTTaskAExp2 Prime_1A Target_9A mIbCEeD JkEbiFI Incongruent left correct Normal 510.0966
503 102 LeftLarger RTTaskAExp2 Prime_1N Target_1N dFbCAHh aDjdmgc Congruent right correct Normal 457.5563
503 103 LeftLarger RTTaskAExp2 Prime_1A Target_4N fejaJbh HDchMla Congruent right correct Normal 502.9734
503 104 LeftLarger RTTaskAExp2 Prime_9N Target_9A MmheJlB cHLDGiJ Congruent left correct Normal 508.6111
503 105 LeftLarger RTTaskAExp2 Prime_1A Target_6N amHDIki idBDGEa Incongruent right error Normal 418.3209
503 106 LeftLarger RTTaskAExp2 Prime_1N Target_6A CIcAdMk hHMkEfL Incongruent left correct Normal 475.2294
503 107 LeftLarger RTTaskAExp2 Prime_1N Target_6N FJiEfjB dMgIELH Incongruent left correct Normal 453.9163
503 108 LeftLarger RTTaskAExp2 Prime_6A Target_1N MKDHIkl LlBFAdj Incongruent right correct Normal 519.806
503 109 LeftLarger RTTaskAExp2 Prime_1N Target_1A eECdihH LKfckga Congruent right correct Normal 542.5845
503 110 LeftLarger RTTaskAExp2 Prime_9A Target_6N fEmCFdG CmcjlKI Congruent left correct Normal 492.2778
503 111 LeftLarger RTTaskAExp2 Prime_9N Target_4A jAGgEKf kjGIifc Incongruent right correct Normal 482.5602
503 112 LeftLarger RTTaskAExp2 Prime_4A Target_1N dgfiIcM cKkHBbd Congruent right correct Normal 579.1064
503 113 LeftLarger RTTaskAExp2 Prime_6N Target_9N CGiaFMk LehlECH Congruent left correct Normal 568.64
503 114 LeftLarger RTTaskAExp2 Prime_1N Target_9A FdLeEkj EjbFmgf Incongruent left correct Normal 444.4372
503 115 LeftLarger RTTaskAExp2 Prime_6A Target_4A mbihgGI eEgbAKI Incongruent right correct Normal 418.621
503 116 LeftLarger RTTaskAExp2 Prime_9N Target_1N CadFEhj Fekacfm Incongruent right correct Normal 543.7488
503 117 LeftLarger RTTaskAExp2 Prime_6A Target_4N daAhMEm baleIDi Incongruent right correct Normal 434.3259
503 118 LeftLarger RTTaskAExp2 Prime_6A Target_6N fegIbhE GIdMAFf Congruent left correct Normal 738.5909
503 119 LeftLarger RTTaskAExp2 Prime_9N Target_1A faKgkej EGjAbdJ Incongruent right correct Normal 619.6878
503 120 LeftLarger RTTaskAExp2 Prime_4A Target_4A ALCbGHM bidMFBE Congruent right correct Normal 401.2417
503 121 LeftLarger RTTaskAExp2 Prime_6N Target_6N bhLlIjK GliFfhK Congruent right error Normal 535.5298
503 122 LeftLarger RTTaskAExp2 Prime_6N Target_1N miKhGFH cMHFjJh Incongruent right correct Normal 674.6961
503 123 LeftLarger RTTaskAExp2 Prime_4N Target_1A adhfAFE acbmBjh Congruent right correct Normal 409.5251
503 124 LeftLarger RTTaskAExp2 Prime_4N Target_4N FGklbea gDaMHeJ Congruent right correct Normal 454.7489
503 125 LeftLarger RTTaskAExp2 Prime_6N Target_6N DhcmjeH KaldAhg Congruent left correct Normal 566.5232
503 126 LeftLarger RTTaskAExp2 Prime_1A Target_1A KJiHfjM cKakDCi Congruent right correct Normal 666.0665
503 127 LeftLarger RTTaskAExp2 Prime_4N Target_9A ldCMKga JfkdHIe Incongruent left correct Normal 557.363
503 128 LeftLarger RTTaskAExp2 Prime_4A Target_6N lHaeLcE GcdfaHI Incongruent left correct Normal 565.1631
503 129 LeftLarger RTTaskAExp2 Prime_6N Target_4N eiMcAdg gMFKJBe Incongruent right correct Normal 714.9326
503 130 LeftLarger RTTaskAExp2 Prime_4A Target_9A EgCFcbi ClFLJBI Incongruent left correct Normal 480.1389
503 131 LeftLarger RTTaskAExp2 Prime_4A Target_6A JHhlIDf KkaHhBJ Incongruent left correct Normal 704.7916
503 132 LeftLarger RTTaskAExp2 Prime_9A Target_1N ACfjILJ aDHeJml Incongruent right correct Normal 572.8262
503 133 LeftLarger RTTaskAExp2 Prime_6A Target_1A AlbCJFe FdifEML Incongruent right correct Normal 348.1494
503 134 LeftLarger RTTaskAExp2 Prime_1A Target_4A LgHEmdb KIdgcLG Congruent right correct Normal 497.2953
503 135 LeftLarger RTTaskAExp2 Prime_9A Target_6A GMlADge JCDjEgL Congruent right error Normal 337.1145
503 136 LeftLarger RTTaskAExp2 Prime_4A Target_1A CLfeDJa LglKfGD Congruent right correct Normal 652.7692
503 137 LeftLarger RTTaskAExp2 Prime_9N Target_4N EDJlfhL JeFmHId Incongruent right correct Normal 426.3721
503 138 LeftLarger RTTaskAExp2 Prime_6N Target_9A GlFiMef mEdJGBj Congruent left correct Normal 551.7262
503 139 LeftLarger RTTaskAExp2 Prime_1A Target_9N MKCGgDh hBFILfD Incongruent left correct Normal 473.8485
503 140 LeftLarger RTTaskAExp2 Prime_1A Target_6A dDMbeaj IGkKDah Incongruent left correct Normal 390.3064
503 141 LeftLarger RTTaskAExp2 Prime_6N Target_1A lckFJjA EbBMjGg Incongruent right correct Normal 583.0524
503 142 LeftLarger RTTaskAExp2 Prime_9N Target_9N BiMkDGh mdkcLfb Congruent left correct Normal 500.641
503 143 LeftLarger RTTaskAExp2 Prime_1A Target_6N kaMHhdE HiAGDEF Incongruent right error Normal 452.418
503 144 LeftLarger RTTaskAExp2 Prime_9A Target_4N fbFhGcM EBkFmMh Incongruent right correct Normal 536.3786
503 145 LeftLarger RTTaskAExp2 Prime_4N Target_9N GakjfEd DFLgjaC Incongruent left correct Normal 563.6596
503 146 LeftLarger RTTaskAExp2 Prime_1N Target_9N MkCciAK DhdEcBF Incongruent left correct Normal 457.8215
503 147 LeftLarger RTTaskAExp2 Prime_6A Target_6A leLIFHJ fEkmbCJ Congruent right error Normal 452.4975
503 148 LeftLarger RTTaskAExp2 Prime_4N Target_1N ElFKemB aGbjeKI Congruent right correct Normal 688.7825
503 149 LeftLarger RTTaskAExp2 Prime_1N Target_4A IHDfBCl gMDkCfL Congruent right correct Normal 473.2135
503 150 LeftLarger RTTaskAExp2 Prime_4A Target_4N jCAmJef lIJiGaL Congruent right correct Normal 476.9598
503 151 LeftLarger RTTaskAExp2 Prime_6N Target_6A gaMACLb lbhidaK Congruent left correct Normal 513.0816
503 152 LeftLarger RTTaskAExp2 Prime_4N Target_6N cekLiaB eAdBGHE Incongruent left correct Normal 452.1735
503 153 LeftLarger RTTaskAExp2 Prime_9N Target_6N BdmkFiD kMbFcLa Congruent left correct Normal 494.7604
503 154 LeftLarger RTTaskAExp2 Prime_6N Target_4A aDghBHb AHLeBEC Incongruent right correct Normal 561.5137
503 155 LeftLarger RTTaskAExp2 Prime_6A Target_6A HlcCEmf JLIdeBA Congruent left correct Normal 684.9869
503 156 LeftLarger RTTaskAExp2 Prime_9A Target_1A eLGaJbg CMAEjki Incongruent right correct Normal 511.778
503 157 LeftLarger RTTaskAExp2 Prime_1A Target_6N dDimleF AJlKdia Incongruent left correct Normal 552.8201
503 158 LeftLarger RTTaskAExp2 Prime_9A Target_9N jdilJac aJeIgch Congruent left correct Normal 482.7191
503 159 LeftLarger RTTaskAExp2 Prime_4A Target_9N EidGMmj kKbgadB Incongruent left correct Normal 422.0169
503 160 LeftLarger RTTaskAExp2 Prime_9A Target_6A ahJICjB FcGmKfj Congruent left correct Normal 769.2873
503 161 LeftLarger RTTaskAExp2 Prime_4N Target_6A dFecihJ LdkmhfM Incongruent left correct Normal 431.823
503 162 LeftSmaller RTTaskBPrac Prime_1A Target_6N jdHAfeL bKiLIEG Incongruent right correct Late 1324.379
503 163 LeftSmaller RTTaskBPrac Prime_4A Target_4N HhAjEif alFLeAg Congruent left correct Normal 549.3044
503 164 LeftSmaller RTTaskBPrac Prime_1A Target_6N DJGCelh JkLAEli Incongruent right correct Normal 513.5813
503 165 LeftSmaller RTTaskBPrac Prime_9N Target_9N mhfGiJa ICLEfgB Congruent right correct Normal 503.621
503 166 LeftSmaller RTTaskBPrac Prime_1A Target_9N GHeIKJd ElcHgia Incongruent right correct Normal 432.1204
503 167 LeftSmaller RTTaskBPrac Prime_9A Target_4A EfHBajM amCDbAi Incongruent left correct Normal 395.983
503 168 LeftSmaller RTTaskBPrac Prime_6N Target_6A IjDFaBC GkDCmba Congruent right correct Normal 482.106
503 169 LeftSmaller RTTaskBPrac Prime_4A Target_9A KfihcLj dCBkiej Incongruent right correct Normal 298.3729
503 170 LeftSmaller RTTaskBPrac Prime_9N Target_4A gEaekGd fLliceh Incongruent left correct Normal 404.5872
503 171 LeftSmaller RTTaskBPrac Prime_6A Target_1N bBDgKfA mKDFLMb Incongruent left correct Normal 472.1748
503 172 LeftSmaller RTTaskBPrac Prime_9N Target_1N LDkKiae JFAIDGh Incongruent left correct Normal 554.5838
503 173 LeftSmaller RTTaskBPrac Prime_4N Target_6N mDkIMbg aGdhKCf Incongruent right correct Normal 396.2486
503 174 LeftSmaller RTTaskBPrac Prime_6N Target_9A cDfbIgK ieDaImL Congruent right correct Normal 374.4197
503 175 LeftSmaller RTTaskBPrac Prime_6N Target_6N KAfkHih CHamfJE Congruent right correct Normal 330.7064
503 176 LeftSmaller RTTaskBPrac Prime_4A Target_6A LECJiKe ILmBECg Incongruent right correct Normal 332.9839
503 177 LeftSmaller RTTaskBPrac Prime_4N Target_4A jgEFMIL dcDbGBL Congruent left correct Normal 522.1716
503 178 LeftSmaller RTTaskBPrac Prime_4A Target_6N HeEbLhB hIbDlCK Incongruent right correct Normal 384.9031
503 179 LeftSmaller RTTaskBExp1 Prime_6A Target_1A eaDBCAF KHCDdLm Incongruent left correct Normal 460.3539
503 180 LeftSmaller RTTaskBExp1 Prime_4N Target_1A dkiglaG HlMIGBa Congruent left correct Normal 338.9575
503 181 LeftSmaller RTTaskBExp1 Prime_4A Target_4N CELFmMH JfkjgeG Congruent left correct Normal 713.1859
503 182 LeftSmaller RTTaskBExp1 Prime_4A Target_6N GCJDmgk kdaHgBM Incongruent left error Normal 439.4047
503 183 LeftSmaller RTTaskBExp1 Prime_1A Target_9A BkaDIGi giJBLFk Incongruent right correct Normal 516.7149
503 184 LeftSmaller RTTaskBExp1 Prime_6A Target_9N eBfblgi MkgIdBD Congruent right correct Normal 466.0221
503 185 LeftSmaller RTTaskBExp1 Prime_6N Target_4N akijILA aBLJFDe Incongruent left correct Normal 540.2284
503 186 LeftSmaller RTTaskBExp1 Prime_6N Target_6N FicCHfG eKhgjlc Congruent right correct Normal 670.6829
503 187 LeftSmaller RTTaskBExp1 Prime_4N Target_9A KfLklBI KGhlaAD Incongruent right correct Normal 405.1075
503 188 LeftSmaller RTTaskBExp1 Prime_1A Target_4A DJEBKMC iGfhkEB Congruent left correct Normal 445.7651
503 189 LeftSmaller RTTaskBExp1 Prime_6N Target_1N hajmKCH AIBCLhE Incongruent left correct Normal 441.7256
503 190 LeftSmaller RTTaskBExp1 Prime_9N Target_9A GdgAiMI mALfjGM Congruent right correct Normal 511.1642
503 191 LeftSmaller RTTaskBExp1 Prime_1A Target_4N CidGaec DmHeFKL Congruent left correct Normal 428.2504
503 192 LeftSmaller RTTaskBExp1 Prime_1A Target_6A GDgCdkK AiJCIdf Incongruent right correct Normal 596.3969
503 193 LeftSmaller RTTaskBExp1 Prime_4N Target_4N eJbDmdk BbekjEc Congruent left correct Normal 522.7007
503 194 LeftSmaller RTTaskBExp1 Prime_9A Target_4N BMmHEgf DKlcaiJ Incongruent left correct Normal 428.1716
503 195 LeftSmaller RTTaskBExp1 Prime_9N Target_9N KcDiFMI hCHDiEg Congruent right correct Normal 412.0588
503 196 LeftSmaller RTTaskBExp1 Prime_9A Target_9A FeMlALi FclamAD Congruent right correct Normal 430.369
503 197 LeftSmaller RTTaskBExp1 Prime_1N Target_9N MbAcDCI lhJALEM Incongruent right correct Normal 356.3515
503 198 LeftSmaller RTTaskBExp1 Prime_4N Target_1N LaebMmd DijCGLa Congruent left correct Normal 427.1961
503 199 LeftSmaller RTTaskBExp1 Prime_9A Target_6N cGIJhfH AIMjCEm Congruent right correct Normal 524.8436
503 200 LeftSmaller RTTaskBExp1 Prime_1N Target_6N ilDCAef fkbHaIg Incongruent right correct Normal 462.2928
503 201 LeftSmaller RTTaskBExp1 Prime_4A Target_1N aEhemLi MiJBmjl Congruent left correct Normal 432.0147
503 202 LeftSmaller RTTaskBExp1 Prime_4A Target_6A gKkfbjI mikAMbF Incongruent right correct Normal 435.6106
503 203 LeftSmaller RTTaskBExp1 Prime_1A Target_9N JHgcfCM jdMAcIE Incongruent right correct Normal 466.6415
503 204 LeftSmaller RTTaskBExp1 Prime_6N Target_9A IahHLAD AlcgbiC Congruent right correct Normal 411.6704
503 205 LeftSmaller RTTaskBExp1 Prime_6A Target_6N MLleHJK fbADkJm Congruent right correct Normal 395.6008
503 206 LeftSmaller RTTaskBExp1 Prime_9A Target_1A ciFBJHh BlJMkcA Incongruent left correct Normal 513.9763
503 207 LeftSmaller RTTaskBExp1 Prime_4N Target_9N EACLFlD legDfAK Incongruent right correct Normal 377.8041
503 208 LeftSmaller RTTaskBExp1 Prime_9A Target_1N jFkHDdf gKGbBJm Incongruent right error Normal 332.3072
503 209 LeftSmaller RTTaskBExp1 Prime_4A Target_6N ibDJMFH eCAiHMF Incongruent right correct Normal 879.524
503 210 LeftSmaller RTTaskBExp1 Prime_1A Target_1A KkgHFEJ gemEihc Congruent left correct Normal 409.4334
503 211 LeftSmaller RTTaskBExp1 Prime_6A Target_4N McailfA HLjCeMK Incongruent left correct Normal 544.3695
503 212 LeftSmaller RTTaskBExp1 Prime_6N Target_9N cjgFeKI GjbeHDf Congruent right correct Normal 445.664
503 213 LeftSmaller RTTaskBExp1 Prime_6N Target_6A aFjgIbM bhjBegL Congruent right correct Normal 421.15
503 214 LeftSmaller RTTaskBExp1 Prime_9N Target_1A efkAjGE bDBChef Incongruent left correct Normal 434.1771
503 215 LeftSmaller RTTaskBExp1 Prime_6A Target_4A acHMlkg imaglFE Incongruent left correct Normal 496.9046
503 216 LeftSmaller RTTaskBExp1 Prime_6N Target_1A bJEchAF CkhgbGL Incongruent left correct Normal 430.1906
503 217 LeftSmaller RTTaskBExp1 Prime_4N Target_4A lDbHfJc bHCBMjF Congruent left correct Normal 509.847
503 218 LeftSmaller RTTaskBExp1 Prime_9N Target_4A BidGJAg bhBfEcd Incongruent left correct Normal 419.8033
503 219 LeftSmaller RTTaskBExp1 Prime_6A Target_1N ADfdMcI gIEMHGA Incongruent left correct Normal 486.4346
503 220 LeftSmaller RTTaskBExp1 Prime_9N Target_6A LEfgKMc jJbmGMd Congruent left error Normal 378.9836
503 221 LeftSmaller RTTaskBExp1 Prime_4A Target_9N IKmJilh AlFEMkH Incongruent right correct Normal 452.0448
503 222 LeftSmaller RTTaskBExp1 Prime_4A Target_9A aEgJLbj JFbGIHM Incongruent right correct Normal 436.0879
503 223 LeftSmaller RTTaskBExp1 Prime_4A Target_4A ibKaDhG lGbmkCE Congruent left correct Normal 631.3678
503 224 LeftSmaller RTTaskBExp1 Prime_4N Target_6A miaDJgE DiHLajK Incongruent right correct Normal 513.1461
503 225 LeftSmaller RTTaskBExp1 Prime_1N Target_4A blEMFAI kcDLjmF Congruent left correct Normal 430.4659
503 226 LeftSmaller RTTaskBExp1 Prime_9A Target_4A dlFhfiG mDlgbGE Incongruent left correct Normal 398.7363
503 227 LeftSmaller RTTaskBExp1 Prime_4A Target_1A ilGDdMK CMhGacg Congruent left correct Normal 491.478
503 228 LeftSmaller RTTaskBExp1 Prime_9N Target_6N hjikgFK iKaAEgf Congruent right correct Normal 506.2034
503 229 LeftSmaller RTTaskBExp1 Prime_1N Target_1A JleHhfB hLbKDEg Congruent left correct Normal 416.77
503 230 LeftSmaller RTTaskBExp1 Prime_9N Target_1N dDCmfLG CbEMaBh Incongruent left correct Normal 500.6643
503 231 LeftSmaller RTTaskBExp1 Prime_1A Target_1N FAaDhIe BaCgKAe Congruent left correct Normal 520.2937
503 232 LeftSmaller RTTaskBExp1 Prime_1A Target_6N IiCkcbm meAlJBk Incongruent right correct Normal 707.11
503 233 LeftSmaller RTTaskBExp1 Prime_1N Target_4N KfJAGId JmKGDbB Congruent left correct Normal 738.4637
503 234 LeftSmaller RTTaskBExp1 Prime_1N Target_6A hlMHjmA eAmFMdH Incongruent right correct Normal 503.8282
503 235 LeftSmaller RTTaskBExp1 Prime_9A Target_9N GBFliJm FbDfEcL Congruent right correct Normal 471.8288
503 236 LeftSmaller RTTaskBExp1 Prime_9N Target_6A diFMhLm JkDHCfj Congruent right correct Normal 427.9885
503 237 LeftSmaller RTTaskBExp1 Prime_6A Target_6A eJElBiG HheGJka Congruent right correct Normal 358.7075
503 238 LeftSmaller RTTaskBExp1 Prime_9A Target_1N kEgeMDC ghCfJie Incongruent left correct Normal 474.1107
503 239 LeftSmaller RTTaskBExp1 Prime_4N Target_6N HIAdakf CJFeGEi Incongruent right correct Normal 588.6565
503 240 LeftSmaller RTTaskBExp1 Prime_1N Target_1N gGfaeLD bfjigAE Congruent right error Normal 398.4598
503 241 LeftSmaller RTTaskBExp1 Prime_1N Target_9A aAgDIdH jhEmHIi Incongruent right correct Normal 572.2598
503 242 LeftSmaller RTTaskBExp1 Prime_6N Target_4A hcbJLdi EAJiLhe Incongruent left correct Normal 519.5725
503 243 LeftSmaller RTTaskBExp1 Prime_1N Target_1N BmihMGL klKAbBi Congruent left correct Normal 615.4364
503 244 LeftSmaller RTTaskBExp1 Prime_6A Target_9A LACcIfH CLKhlmi Congruent right correct Normal 441.013
503 245 LeftSmaller RTTaskBExp1 Prime_9N Target_4N KLDmFAb DmaJCME Incongruent left correct Normal 586.1658
503 246 LeftSmaller RTTaskBExp1 Prime_9A Target_6A lghHibF CBFhkca Congruent right correct Normal 413.2273
503 247 LeftSmaller RTTaskBExp2 Prime_1N Target_1N ieAjamB hDgmAKC Congruent left correct Normal 549.6192
503 248 LeftSmaller RTTaskBExp2 Prime_1N Target_4N KijeMCd FhJMmEK Congruent right error Normal 428.947
503 249 LeftSmaller RTTaskBExp2 Prime_4A Target_6N BaMAHdf cGlBEmk Incongruent right correct Normal 481.3891
503 250 LeftSmaller RTTaskBExp2 Prime_9A Target_6A HEFabDC jEgACJm Congruent left error Normal 572.3153
503 251 LeftSmaller RTTaskBExp2 Prime_9N Target_4A kadIDgM ejFbmEB Incongruent left correct Normal 508.1064
503 252 LeftSmaller RTTaskBExp2 Prime_1A Target_6N eEHhBIa fEAGaCh Incongruent right correct Normal 614.0394
503 253 LeftSmaller RTTaskBExp2 Prime_6N Target_6A AgGHfLF FMmHjLf Congruent right correct Normal 421.8324
503 254 LeftSmaller RTTaskBExp2 Prime_6A Target_9N ajBckme eaDihAL Congruent right correct Normal 496.5406
503 255 LeftSmaller RTTaskBExp2 Prime_9N Target_1A habFJMl DIkCgih Incongruent left correct Normal 456.2802
503 256 LeftSmaller RTTaskBExp2 Prime_9N Target_4N EJelihG EDgleFH Incongruent left correct Normal 493.7959
503 257 LeftSmaller RTTaskBExp2 Prime_6N Target_9N gaHEhKi fMlEkiH Congruent right correct Normal 566.0138
503 258 LeftSmaller RTTaskBExp2 Prime_6N Target_6N BHmadlD mCIJLlD Congruent right correct Normal 553.1473
503 259 LeftSmaller RTTaskBExp2 Prime_1N Target_6A KbgIlde jfDEIkG Incongruent right correct Normal 525.6843
503 260 LeftSmaller RTTaskBExp2 Prime_1A Target_4N hdMcbCH hlDdFbJ Congruent left correct Normal 494.6847
503 261 LeftSmaller RTTaskBExp2 Prime_4A Target_9A ADFdBLh BcebLik Incongruent right correct Normal 603.1488
503 262 LeftSmaller RTTaskBExp2 Prime_1N Target_4N HKajiMk jlLHFJC Congruent left correct Normal 514.1971
503 263 LeftSmaller RTTaskBExp2 Prime_9A Target_4A iCFgkHl hDJbHLf Incongruent left correct Normal 444.0893
503 264 LeftSmaller RTTaskBExp2 Prime_1A Target_1N KDlcEdH bmAMHCG Congruent left correct Normal 575.8961
503 265 LeftSmaller RTTaskBExp2 Prime_9N Target_6A bDeihjl jMFfLgk Congruent right correct Normal 448.0662
503 266 LeftSmaller RTTaskBExp2 Prime_1N Target_4A MkBJahA LGcMDek Congruent left correct Normal 463.2573
503 267 LeftSmaller RTTaskBExp2 Prime_9N Target_1N ilemHcB lBKHgJD Incongruent left correct Normal 718.2569
503 268 LeftSmaller RTTaskBExp2 Prime_4A Target_9N caJmDdC gMGJebc Incongruent right correct Normal 432.7029
503 269 LeftSmaller RTTaskBExp2 Prime_1A Target_9N gBiIELa AKLbCGJ Incongruent right correct Normal 410.0535
503 270 LeftSmaller RTTaskBExp2 Prime_9A Target_9N IbAGKah dicKeAj Congruent right correct Normal 392.9174
503 271 LeftSmaller RTTaskBExp2 Prime_6A Target_4A BieFbda jfablBe Incongruent left correct Normal 497.075
503 272 LeftSmaller RTTaskBExp2 Prime_9A Target_1A BDmjgMI mELfIiD Incongruent left correct Normal 433.7173
503 273 LeftSmaller RTTaskBExp2 Prime_9N Target_9A Mcdhmkj hHdacGL Congruent right correct Normal 447.5344
503 274 LeftSmaller RTTaskBExp2 Prime_9A Target_9A ciJLgje eLKCIBk Congruent right correct Normal 417.0453
503 275 LeftSmaller RTTaskBExp2 Prime_1N Target_9A EAhJakl GgaJlie Incongruent right correct Normal 399.0192
503 276 LeftSmaller RTTaskBExp2 Prime_4A Target_4A dlDcACg KhGeLkc Congruent left correct Normal 406.6354
503 277 LeftSmaller RTTaskBExp2 Prime_9A Target_6N ACGclLa GHgcCba Congruent right correct Normal 535.1731
503 278 LeftSmaller RTTaskBExp2 Prime_4N Target_4N CdEfglL GjeaJcE Congruent left correct Normal 489.9856
503 279 LeftSmaller RTTaskBExp2 Prime_9A Target_4N jhiKBgM HdjAMaB Incongruent left correct Normal 434.0111
503 280 LeftSmaller RTTaskBExp2 Prime_6N Target_4N aMjIFEc gkhBLCj Incongruent left correct Normal 608.9228
503 281 LeftSmaller RTTaskBExp2 Prime_6A Target_4N EMjLBAk BDaIJLE Incongruent left correct Normal 530.8417
503 282 LeftSmaller RTTaskBExp2 Prime_4N Target_9N eDEBbac lcJhIfE Incongruent right correct Normal 726.5108
503 283 LeftSmaller RTTaskBExp2 Prime_4N Target_1N Fmcabfl bMkBKDf Congruent left correct Normal 495.8017
503 284 LeftSmaller RTTaskBExp2 Prime_9N Target_6N DKbILaE ahMjHke Congruent right correct Normal 483.9743
503 285 LeftSmaller RTTaskBExp2 Prime_1N Target_9N mGBeKgk abKLJfH Incongruent left error Normal 500.5026
503 286 LeftSmaller RTTaskBExp2 Prime_6N Target_1A lMCiEgc CkbhMDm Incongruent left correct Normal 435.3172
503 287 LeftSmaller RTTaskBExp2 Prime_6A Target_1A KiBbfCg bkDiGBc Incongruent left correct Normal 429.3427
503 288 LeftSmaller RTTaskBExp2 Prime_1A Target_6A CLcghFa kdCmDlE Incongruent right correct Normal 456.9119
503 289 LeftSmaller RTTaskBExp2 Prime_1N Target_1A kJMDeFg lChBIED Congruent left correct Normal 463.0765
503 290 LeftSmaller RTTaskBExp2 Prime_6N Target_9A HMcCAEe ljAEeKG Congruent right correct Normal 403.5741
503 291 LeftSmaller RTTaskBExp2 Prime_6A Target_1N dMkJBgi acbhFlG Incongruent left correct Normal 536.273
503 292 LeftSmaller RTTaskBExp2 Prime_9N Target_9N FckdbBC GaAIcBl Congruent right correct Normal 412.8268
503 293 LeftSmaller RTTaskBExp2 Prime_1N Target_6N LiBMeAH KHieadE Incongruent right correct Normal 418.1128
503 294 LeftSmaller RTTaskBExp2 Prime_9A Target_6A fHhIdbk HMdICLh Congruent right correct Normal 519.1608
503 295 LeftSmaller RTTaskBExp2 Prime_4N Target_6N CMKjEkm cHFjlCm Incongruent right correct Normal 418.3335
503 296 LeftSmaller RTTaskBExp2 Prime_4A Target_1N ibFaglJ cjKbeHL Congruent left correct Normal 433.8325
503 297 LeftSmaller RTTaskBExp2 Prime_1A Target_4A ACejkhd ciKalME Congruent left correct Normal 549.8842
503 298 LeftSmaller RTTaskBExp2 Prime_4N Target_9A eAHjLCb CAEJdki Incongruent right correct Normal 471.9864
503 299 LeftSmaller RTTaskBExp2 Prime_6A Target_6A hEBgIDG jJmaICl Congruent right correct Normal 485.9678
503 300 LeftSmaller RTTaskBExp2 Prime_1A Target_1A fcDKBeE bDLdFlC Congruent left correct Normal 322.6386
503 301 LeftSmaller RTTaskBExp2 Prime_4N Target_6A EdCAmBl dKgGeBb Incongruent right correct Normal 518.4589
503 302 LeftSmaller RTTaskBExp2 Prime_4A Target_6A KGJlhie DligjAI Incongruent right correct Normal 482.3393
503 303 LeftSmaller RTTaskBExp2 Prime_6A Target_9A dLAGlKj gFhbEBL Congruent right correct Normal 377.3988
503 304 LeftSmaller RTTaskBExp2 Prime_1N Target_9N CMHGech hLEMbcB Incongruent right correct Normal 619.7894
503 305 LeftSmaller RTTaskBExp2 Prime_9A Target_1N LdEmelF iCGaeJd Incongruent left correct Normal 516.7247
503 306 LeftSmaller RTTaskBExp2 Prime_4A Target_4N ckHIiJG ghAEjFa Congruent left correct Normal 479.3067
503 307 LeftSmaller RTTaskBExp2 Prime_4N Target_4A IeFCkHb IjkegAB Congruent left correct Normal 407.6392
503 308 LeftSmaller RTTaskBExp2 Prime_4A Target_1A DJGIgLh hkHiJcF Congruent left correct Normal 460.8419
503 309 LeftSmaller RTTaskBExp2 Prime_6A Target_6N cADBKLg HAFJDdB Congruent right correct Normal 460.8177
503 310 LeftSmaller RTTaskBExp2 Prime_4N Target_1A cJIhAlm dFkbBLI Congruent left correct Normal 471.1273
503 311 LeftSmaller RTTaskBExp2 Prime_1A Target_9A lIHibcB lJFHagd Incongruent right correct Normal 437.4481
503 312 LeftSmaller RTTaskBExp2 Prime_6N Target_1N kMiIJAc chjkfmF Incongruent left correct Normal 571.4167
503 313 LeftSmaller RTTaskBExp2 Prime_6N Target_4A kHlEChb bdMLFGC Incongruent left correct Normal 527.904
504 1 LeftLarger RTTaskAPrac Prime_1A Target_6N aIdbFhC BMKeIHd Incongruent right error Normal 947.8254
504 2 LeftLarger RTTaskAPrac Prime_9N Target_4N hmbaFHJ AjiMEeL Incongruent right correct Late 1320.038
504 3 LeftLarger RTTaskAPrac Prime_6A Target_4N DHfAbLE BeKGDdi Incongruent right correct Normal 769.6892
504 4 LeftLarger RTTaskAPrac Prime_9A Target_4N GekaCMf fLIBFhe Incongruent right correct Normal 524.8191
504 5 LeftLarger RTTaskAPrac Prime_1A Target_6A LidefbM JjmFeDk Incongruent left correct Normal 718.7099
504 6 LeftLarger RTTaskAPrac Prime_4A Target_4N CLdDIFk MbFCghI Congruent right correct Normal 486.5404
504 7 LeftLarger RTTaskAPrac Prime_4N Target_9N HebagGI HfgBDdb Incongruent left correct Normal 568.0501
504 8 LeftLarger RTTaskAPrac Prime_1N Target_4N DieBKIb mcAIClF Congruent right correct Normal 515.9591
504 9 LeftLarger RTTaskAPrac Prime_9N Target_1A DdjlAhm mgKMheE Incongruent right correct Normal 735.2346
504 10 LeftLarger RTTaskAPrac Prime_9N Target_9N CDLGFAE BMEAgHf Congruent left correct Normal 524.411
504 11 LeftLarger RTTaskAPrac Prime_4N Target_6A LbhKIaD MHdbCID Incongruent left correct Normal 703.5971
504 12 LeftLarger RTTaskAPrac Prime_4A Target_1N gjeJDFA bKELIjd Congruent right correct Normal 483.8632
504 13 LeftLarger RTTaskAPrac Prime_6N Target_6A iIcfFjE GHdcijI Congruent left correct Normal 835.1545
504 14 LeftLarger RTTaskAPrac Prime_1A Target_6N KalMGDL fMLbIGm Incongruent left correct Normal 470.6487
504 15 LeftLarger RTTaskAPrac Prime_9A Target_9A IBGDECj DkIBAdJ Congruent left correct Normal 559.1464
504 16 LeftLarger RTTaskAPrac Prime_4A Target_6N CfJMalg LbGIgkh Incongruent left correct Normal 537.024
504 17 LeftLarger RTTaskAPrac Prime_9N Target_4N FkehaGL KhImDMc Incongruent right correct Normal 452.4648
504 18 LeftLarger RTTaskAPrac Prime_4A Target_9A bfJdMCI EmdCcMD Incongruent left correct Normal 372.1299
504 19 LeftLarger RTTaskAExp1 Prime_4N Target_6A cFLbheE bIhmkce Incongruent left correct Normal 639.1304
504 20 LeftLarger RTTaskAExp1 Prime_1N Target_6A hmcHAek gHeLjfm Incongruent left correct Normal 439.6237
504 21 LeftLarger RTTaskAExp1 Prime_9A Target_9N IBdAEhk CcFgfAK Congruent right error Normal 361.149
504 22 LeftLarger RTTaskAExp1 Prime_6N Target_4N cKLMfDG DabjiBE Incongruent right correct Normal 491.8975
504 23 LeftLarger RTTaskAExp1 Prime_1A Target_6N LBHgKMh jhEFGic Incongruent left correct Normal 415.1729
504 24 LeftLarger RTTaskAExp1 Prime_1N Target_4N jIlCLcF gkHMLIm Congruent right correct Normal 360.3459
504 25 LeftLarger RTTaskAExp1 Prime_6A Target_1A JFlfkjE iaBkCEd Incongruent right correct Normal 660.9451
504 26 LeftLarger RTTaskAExp1 Prime_4A Target_9N JhDkLeE dFmkhGg Incongruent left correct Normal 422.5553
504 27 LeftLarger RTTaskAExp1 Prime_9A Target_6N JiKdHFh hiHFMbB Congruent right error Normal 459.4263
