sub trial_no group_type block_type prime target mask1 mask2 congruency key_press key_error time_error RT
501 1 LeftSmaller PercIAPrac Prime_9A Target_9A GDLEBfI mIGDEfF Congruent left error Normal 1039.106
501 2 LeftSmaller PercIAPrac Prime_4N Target_4N kBAfELl ieJKBjb Congruent left correct Normal 1522.811
501 3 LeftSmaller PercIAPrac Prime_4N Target_1N kCgEemI lGmIedh Congruent left correct Normal 805.5186
501 4 LeftSmaller PercIAPrac Prime_4N Target_6A caLCdJm fKGekCj Incongruent right error Normal 1305.988
501 5 LeftSmaller PercIAPrac Prime_4A Target_4N BjLAfEK mCcEjiK Congruent right error Normal 1896.266
501 6 LeftSmaller PercIAPrac Prime_1N Target_6N mgHKjil afjkgGC Incongruent left correct Normal 1561.638
501 7 LeftSmaller PercIAPrac Prime_6N Target_1A MGBlAab dkHJmgE Incongruent right correct Normal 1975.589
501 8 LeftSmaller PercIAPrac Prime_9N Target_6N HmIliMh MBFmIlK Congruent left error Normal 2664.573
501 9 LeftSmaller PercIAPrac Prime_4A Target_9A dmDhElI acefEBA Incongruent right error Normal 2008.562
501 10 LeftSmaller PercIAPrac Prime_9A Target_4A lCdbeaJ CgfBKAD Incongruent right correct Normal 1546.139
501 11 LeftSmaller PercIAPrac Prime_9N Target_4A IdeHEiM jCJFiEf Incongruent right correct Normal 2425.246
501 12 LeftSmaller PercIAPrac Prime_4A Target_6A lAfhaHb achEDed Incongruent right error Normal 2244.591
501 13 LeftSmaller PercIAPrac Prime_6N Target_6A IGDjcAb eKlDdEi Congruent right correct Normal 1931.724
501 14 LeftSmaller PercIAPrac Prime_1N Target_9A acMmIEL aiGBfCJ Incongruent left correct Normal 2284.575
501 15 LeftSmaller PercIAPrac Prime_9A Target_4N dcBjGDH LkhIACd Incongruent right correct Normal 1479.615
501 16 LeftSmaller PercIAPrac Prime_4N Target_9A cHDfiBE CEHcfKF Incongruent left correct Normal 2157.662
501 17 LeftSmaller PercIAExp1 Prime_1A Target_4A GMeFLhK BCehdaG Congruent right error Normal 1053.999
501 18 LeftSmaller PercIAExp1 Prime_6A Target_6A EBhjcAD BHlAfKG Congruent left error Normal 2087.316
501 19 LeftSmaller PercIAExp1 Prime_1N Target_4A lcGkHeE DFEjlCi Congruent left correct Normal 2275.462
501 20 LeftSmaller PercIAExp1 Prime_6A Target_1N bCDlcHM dBFhmDe Incongruent right correct Normal 1475.277
501 21 LeftSmaller PercIAExp1 Prime_9A Target_9N gILFCda bFehJil Congruent right correct Normal 1795.777
501 22 LeftSmaller PercIAExp1 Prime_4N Target_4A CjBIDbm IFcmklA Congruent left correct Normal 1646.068
501 23 LeftSmaller PercIAExp1 Prime_1N Target_1N egbHEla jHCgLBK Congruent right error Normal 2426.452
501 24 LeftSmaller PercIAExp1 Prime_6N Target_6A FLaBDld jmJFael Congruent right correct Normal 1738.618
501 25 LeftSmaller PercIAExp1 Prime_6N Target_9N KbkcJHi fClhakE Congruent right correct Normal 1888.325
501 26 LeftSmaller PercIAExp1 Prime_4N Target_9N MHflCJc kEMaKHi Incongruent left correct Normal 1836.081
501 27 LeftSmaller PercIAExp1 Prime_1N Target_1A fhmkKlj lBiICKd Congruent right error Normal 2088.049
501 28 LeftSmaller PercIAExp1 Prime_9N Target_1N BjeiGCh LelJbAB Incongruent right correct Normal 1430.652
501 29 LeftSmaller PercIAExp1 Prime_9N Target_9A kjKmMfH gKEbiGC Congruent right correct Normal 2414.877
501 30 LeftSmaller PercIAExp1 Prime_9N Target_4A jibaEFL HhmdCkM Incongruent right correct Normal 1500.575
501 31 LeftSmaller PercIAExp1 Prime_6A Target_4N IEaMjGi jEFDIme Incongruent right correct Normal 2669.994
501 32 LeftSmaller PercIAExp1 Prime_6N Target_1N CHgAMEF BCmagKj Incongruent right correct Normal 1880.11
501 33 LeftSmaller PercIAExp1 Prime_9A Target_4A iFemjbk DAfeMHc Incongruent left error Normal 1338.439
501 34 LeftSmaller PercIAExp1 Prime_1N Target_6A JLFjKIk MFiCmDB Incongruent left correct Normal 2317.771
501 35 LeftSmaller PercIAExp1 Prime_4A Target_1A LhijHle IkCjagK Congruent right error Normal 2227.672
501 36 LeftSmaller PercIAExp1 Prime_1A Target_1N hCbILmg fFkbEiJ Congruent right error Normal 1851.762
501 37 LeftSmaller PercIAExp1 Prime_1A Target_9A eGjfJCm faGmEMD Incongruent right error Normal 1396.264
501 38 LeftSmaller PercIAExp1 Prime_9A Target_4N icbfFha IMBbklc Incongruent right correct Normal 2087.464
501 39 LeftSmaller PercIAExp1 Prime_6N Target_6N IaKMjmA bCejIDH Congruent left error Normal 1960.335
501 40 LeftSmaller PercIAExp1 Prime_4A Target_4N MdgGfEB dHaBDhe Congruent right error Normal 3112.456
501 41 LeftSmaller PercIAExp1 Prime_1A Target_9N CbLBAHk MCldLIG Incongruent left correct Normal 2080.925
501 42 LeftSmaller PercIAExp1 Prime_4A Target_6A clkEbLi gceFKdh Incongruent right error Normal 2753.44
501 43 LeftSmaller PercIAExp1 Prime_9A Target_1N kifLDeK KIbaeFh Incongruent left error Normal 2644.039
501 44 LeftSmaller PercIAExp1 Prime_6A Target_9A FgBLAeJ BKFaMAI Congruent right correct Normal 2068.134
501 45 LeftSmaller PercIAExp1 Prime_1N Target_9A fmiJcaL JkDlEmB Incongruent right error Normal 3374.552
501 46 LeftSmaller PercIAExp1 Prime_4N Target_6N dCJcAhH fbaMjIF Incongruent left correct Normal 1314.694
501 47 LeftSmaller PercIAExp1 Prime_4N Target_9A IFHjhmk KeDBcfi Incongruent left correct Normal 1803.316
501 48 LeftSmaller PercIAExp1 Prime_6A Target_1A KAcDdal JAGMigd Incongruent right correct Normal 2544.479
501 49 LeftSmaller PercIAExp1 Prime_1N Target_4N AbJCaIE gCBFdmG Congruent right error Normal 1997.606
501 50 LeftSmaller PercIAExp1 Prime_9A Target_6A BECLfdJ ElHkAfJ Congruent left error Normal 1981.19
501 51 LeftSmaller PercIAExp1 Prime_4A Target_1N MfBLKld KfiJjMC Congruent right error Normal 2687.952
501 52 LeftSmaller PercIAExp1 Prime_4A Target_6N JKicHfD DGjAamB Incongruent left correct Normal 2329.886
501 53 LeftSmaller PercIAExp1 Prime_4A Target_9A MAdekCF DjlEcHJ Incongruent left correct Normal 1882.129
501 54 LeftSmaller PercIAExp1 Prime_6A Target_6N bGCKBfj EikMJIj Congruent right correct Normal 3810.673
501 55 LeftSmaller PercIAExp1 Prime_9N Target_9N fMAmlki leAGKji Congruent left error Normal 2106.273
501 56 LeftSmaller PercIAExp1 Prime_4N Target_1A fgAFBCK KCLckgj Congruent right error Normal 2540.268
501 57 LeftSmaller PercIAExp1 Prime_4N Target_6A kDEFKIG JahibIE Incongruent left correct Normal 1451.198
501 58 LeftSmaller PercIAExp1 Prime_1N Target_6N cIibdjA ejEbfgC Incongruent left correct Normal 2141.74
501 59 LeftSmaller PercIAExp1 Prime_6N Target_4N FJHmckI EbmfLkI Incongruent right correct Normal 2409.059
501 60 LeftSmaller PercIAExp1 Prime_4A Target_9N gmjFlfL fBhMIDF Incongruent left correct Normal 1905.208
501 61 LeftSmaller PercIAExp1 Prime_9A Target_9A CdhfliJ LbgfjMk Congruent right correct Normal 2151.884
501 62 LeftSmaller PercIAExp1 Prime_9A Target_6N MFDhalC HCdGcie Congruent right correct Normal 3180.293
501 63 LeftSmaller PercIAExp1 Prime_1A Target_1A cABbidJ GMbJkgi Congruent right error Normal 3081.941
501 64 LeftSmaller PercIAExp1 Prime_1A Target_6N DFjKAcm FmIhJaE Incongruent left correct Normal 1608.807
501 65 LeftSmaller PercIAExp1 Prime_6A Target_9N hAGKCEb ambfiHA Congruent right correct Normal 2965.993
501 66 LeftSmaller PercIAExp1 Prime_6N Target_1A gBDAKaE AhHdafB Incongruent left error Normal 2453.794
501 67 LeftSmaller PercIAExp1 Prime_9N Target_6N idkGHBc cFiDHCg Congruent left error Normal 1660.528
501 68 LeftSmaller PercIAExp1 Prime_9N Target_1A CKefGLM MfiKFBb Incongruent right correct Normal 1487.755
501 69 LeftSmaller PercIAExp1 Prime_6N Target_4A kLFKCcb eHLcalC Incongruent right correct Normal 1781.976
501 70 LeftSmaller PercIAExp1 Prime_6A Target_4A IHGgFkf Cigfacb Incongruent left error Normal 2373.825
501 71 LeftSmaller PercIAExp1 Prime_1A Target_6A DKhCamE BHGFMCI Incongruent left correct Normal 2045.933
501 72 LeftSmaller PercIAExp1 Prime_9N Target_4N mgeiAdB bCGJgaA Incongruent left error Normal 1684.691
501 73 LeftSmaller PercIAExp1 Prime_4N Target_4N MdblfmA AJFlEaK Congruent left correct Normal 1759.941
501 74 LeftSmaller PercIAExp1 Prime_6N Target_9A hemBGdl AKLdJMj Congruent right correct Normal 2050.105
501 75 LeftSmaller PercIAExp1 Prime_1N Target_9N dBeFGKI eFHlCiD Incongruent left correct Normal 1497.014
501 76 LeftSmaller PercIAExp1 Prime_9N Target_6A LgGEBlb ilGakfF Congruent left error Normal 3020.728
501 77 LeftSmaller PercIAExp1 Prime_1A Target_4N CliAMha gKDBMjL Congruent right error Normal 2074.605
501 78 LeftSmaller PercIAExp1 Prime_9A Target_1A fHlhAiE GkAEIdL Incongruent right correct Normal 1444.102
501 79 LeftSmaller PercIAExp1 Prime_4N Target_1N gdADamk FadCgAH Congruent left correct Normal 2582.255
501 80 LeftSmaller PercIAExp1 Prime_4A Target_4A AkDBcCb BeDjCcf Congruent right error Normal 1893.411
501 81 LeftLarger PercIBPrac Prime_6A Target_1N EbcFJLm lCafDME Incongruent right error Normal 2034.716
501 82 LeftLarger PercIBPrac Prime_1A Target_1A CBkaMGK MLcFhjm Congruent right correct Normal 2001.345
501 83 LeftLarger PercIBPrac Prime_4N Target_4A iAEHjdD daCKhjG Congruent left error Normal 793.5684
501 84 LeftLarger PercIBPrac Prime_4A Target_6A EmCbFlJ BdCecFE Incongruent left error Normal 1573.318
501 85 LeftLarger PercIBPrac Prime_1N Target_9N fjBLFHe aiGgCAF Incongruent left error Normal 2252.148
501 86 LeftLarger PercIBPrac Prime_9A Target_6N IiaKALF dMjmbLk Congruent right error Normal 1296.011
501 87 LeftLarger PercIBPrac Prime_9N Target_6A FHgfdEk LBEGFAJ Congruent left correct Normal 2078.02
501 88 LeftLarger PercIBPrac Prime_9N Target_9N KMCbIed daiIfKm Congruent right error Normal 1979.071
501 89 LeftLarger PercIBPrac Prime_1A Target_9N MHCdhAb bflHJGj Incongruent left error Normal 1613.438
501 90 LeftLarger PercIBPrac Prime_4N Target_9N hiLBHDG FJlIBLC Incongruent left error Normal 1768.295
501 91 LeftLarger PercIBPrac Prime_6A Target_6A hdeKFGH LGfJMeB Congruent right error Normal 2087.415
501 92 LeftLarger PercIBPrac Prime_9A Target_9N chFigMI AKHaBFD Congruent right error Normal 2531.481
501 93 LeftLarger PercIBPrac Prime_1A Target_6N FeDLJCB LBaGbeA Incongruent right correct Normal 1482.027
501 94 LeftLarger PercIBPrac Prime_1A Target_1N lMdJebA IeDEmah Congruent left error Normal 1391.845
501 95 LeftLarger PercIBPrac Prime_4A Target_9A dcILMJa hAEjCmk Incongruent right correct Normal 1249.493
501 96 LeftLarger PercIBPrac Prime_1A Target_9A IHDhfJg FjHKAka Incongruent right correct Normal 1645.557
501 97 LeftLarger PercIBExp1 Prime_6N Target_6N FlgMKBI ceIabCK Congruent left correct Normal 2224.949
501 98 LeftLarger PercIBExp1 Prime_9A Target_9N LkMiaBd iIKAaDL Congruent right error Normal 1339.204
501 99 LeftLarger PercIBExp1 Prime_6N Target_6A gGkEiDm DmEHACi Congruent right error Normal 1264.067
501 100 LeftLarger PercIBExp1 Prime_6N Target_4A eIJHbCm GKjeBdi Incongruent left correct Normal 1027.884
501 101 LeftLarger PercIBExp1 Prime_6N Target_1N DlfKHLj lFAgfdD Incongruent right error Normal 1137.344
501 102 LeftLarger PercIBExp1 Prime_1N Target_9A EGFjAlD CeAIiMJ Incongruent left error Normal 982.8367
501 103 LeftLarger PercIBExp1 Prime_4N Target_4N EcKAjHJ jbiaFAl Congruent right correct Normal 1716.748
501 104 LeftLarger PercIBExp1 Prime_1N Target_1A BiKdJAh bimaChJ Congruent right correct Normal 2977.578
501 105 LeftLarger PercIBExp1 Prime_6A Target_1N fJGEIhC mEChIBj Incongruent left correct Normal 1886.248
501 106 LeftLarger PercIBExp1 Prime_4N Target_1N fCFImgb fIbjHDh Congruent left error Normal 1432.735
501 107 LeftLarger PercIBExp1 Prime_6A Target_6N BCbiHkK ebACjHJ Congruent right error Normal 1212.209
501 108 LeftLarger PercIBExp1 Prime_9N Target_4A jCAbkcD ieBGbCm Incongruent left correct Normal 1411.436
501 109 LeftLarger PercIBExp1 Prime_1A Target_1A kfJBaAl MfHEklK Congruent left error Late 50397.86
501 110 LeftLarger PercIBExp1 Prime_4A Target_1N gldhFGC GMhBHDF Congruent left error Normal 1889.524
501 111 LeftLarger PercIBExp1 Prime_1N Target_6A bdACkgc DdAjEHK Incongruent right correct Normal 1306.87
501 112 LeftLarger PercIBExp1 Prime_1N Target_1N eJMcAkF JAGMBlK Congruent left error Normal 1308.578
501 113 LeftLarger PercIBExp1 Prime_6A Target_4A JmhjIgE gemFKbC Incongruent left correct Normal 1280.672
501 114 LeftLarger PercIBExp1 Prime_9N Target_9A kLajKlD kifLFGI Congruent left correct Normal 1211.794
501 115 LeftLarger PercIBExp1 Prime_4A Target_6N dhAkfge kDhMcAg Incongruent left error Normal 1769.131
501 116 LeftLarger PercIBExp1 Prime_4A Target_1A dfejlDB iLAmhDd Congruent left error Normal 1434.464
501 117 LeftLarger PercIBExp1 Prime_4A Target_9N HIDFbBJ eKJdMhg Incongruent right correct Normal 2142.681
501 118 LeftLarger PercIBExp1 Prime_6N Target_9N lEfAKiC JchLlED Congruent left correct Normal 1923.324
501 119 LeftLarger PercIBExp1 Prime_9A Target_1N JgLmjAl IehKJAc Incongruent right error Normal 2003.895
501 120 LeftLarger PercIBExp1 Prime_9A Target_1A ieMDgkh FGdfMiH Incongruent left correct Normal 1907.164
501 121 LeftLarger PercIBExp1 Prime_9A Target_6A gGHfMLj mejICgJ Congruent left correct Normal 2949.516
501 122 LeftLarger PercIBExp1 Prime_1A Target_6N iagGJle HjBfiCM Incongruent right correct Normal 2701.234
501 123 LeftLarger PercIBExp1 Prime_1N Target_4N HiJGECc JMAGDHC Congruent left error Normal 1648.371
501 124 LeftLarger PercIBExp1 Prime_9N Target_1N mhagIbj ABDKClf Incongruent left correct Normal 2561.737
501 125 LeftLarger PercIBExp1 Prime_1N Target_6N gLlDfeB cJCjFkE Incongruent right correct Normal 1895.726
501 126 LeftLarger PercIBExp1 Prime_9A Target_9A khDmHlc FDLGlmi Congruent right error Normal 2087.334
501 127 LeftLarger PercIBExp1 Prime_4N Target_4A CmheLjD bciafJH Congruent left error Normal 1756.678
501 128 LeftLarger PercIBExp1 Prime_1A Target_4N gfhJGFb KfeMDjH Congruent left error Normal 2273.358
501 129 LeftLarger PercIBExp1 Prime_4A Target_6A HCcjAlI clCKIEh Incongruent right correct Normal 2327.551
501 130 LeftLarger PercIBExp1 Prime_9A Target_4A CkHJhaM bcfkKiG Incongruent left correct Normal 1591.224
501 131 LeftLarger PercIBExp1 Prime_4A Target_9A BhKfGgI cJLlHaC Incongruent left error Normal 1488.65
501 132 LeftLarger PercIBExp1 Prime_4N Target_6A IegfGmD aGIceHd Incongruent left error Normal 1573.045
501 133 LeftLarger PercIBExp1 Prime_9A Target_6N fjhdleC CJLHief Congruent right error Normal 2181.311
501 134 LeftLarger PercIBExp1 Prime_9N Target_1A LEegjim HFKkhdg Incongruent left correct Normal 2162.57
501 135 LeftLarger PercIBExp1 Prime_4N Target_9N gfhlCka EHcgkbL Incongruent right correct Normal 1188.125
501 136 LeftLarger PercIBExp1 Prime_9N Target_6A iCEAmdj aGFEJcb Congruent left correct Normal 1606.923
501 137 LeftLarger PercIBExp1 Prime_6A Target_1A BGkejhM JlheLCj Incongruent right error Normal 1986.615
501 138 LeftLarger PercIBExp1 Prime_4A Target_4N iCGJkcE MieJFgk Congruent left error Normal 1977.335
501 139 LeftLarger PercIBExp1 Prime_9N Target_4N lgKCLBj KCcIifd Incongruent right error Normal 2103.453
501 140 LeftLarger PercIBExp1 Prime_1N Target_9N FemMHal FgKfLAd Incongruent left error Normal 2081.426
501 141 LeftLarger PercIBExp1 Prime_1A Target_1N iBeKFHa GimJDdE Congruent left error Normal 2327.144
501 142 LeftLarger PercIBExp1 Prime_6N Target_4N DfAJhHI LcagKEH Incongruent right error Normal 1590.033
501 143 LeftLarger PercIBExp1 Prime_1A Target_4A cklMImb MGicleb Congruent left error Normal 1328.123
501 144 LeftLarger PercIBExp1 Prime_6A Target_4N gGBAEbm kJAGEjh Incongruent left correct Normal 1950.091
501 145 LeftLarger PercIBExp1 Prime_1A Target_9A HfFJjDk MEgijFC Incongruent right correct Normal 1989.579
501 146 LeftLarger PercIBExp1 Prime_1A Target_6A bFhMfmd laLfkbj Incongruent left error Normal 2498.49
501 147 LeftLarger PercIBExp1 Prime_4A Target_4A jDmLIgJ hiecIGA Congruent left error Normal 2312.758
501 148 LeftLarger PercIBExp1 Prime_6A Target_6A jLfJFcH JLjdbgK Congruent left correct Normal 1766.677
501 149 LeftLarger PercIBExp1 Prime_4N Target_1A jbiGaMD HlgfGEc Congruent left error Normal 1962.405
501 150 LeftLarger PercIBExp1 Prime_6A Target_9N mDakBbK aFedmKf Congruent right error Normal 2131.392
501 151 LeftLarger PercIBExp1 Prime_6A Target_9A hafkjgD idbjhge Congruent left correct Normal 1858.773
501 152 LeftLarger PercIBExp1 Prime_6N Target_1A HEdgKDJ ifjbhGd Incongruent right error Normal 2559.693
501 153 LeftLarger PercIBExp1 Prime_4N Target_9A fKgGHeF hcdbAGB Incongruent right correct Normal 1898.54
501 154 LeftLarger PercIBExp1 Prime_9N Target_6N jGCaElm LedDfJk Congruent right error Normal 1931.928
501 155 LeftLarger PercIBExp1 Prime_9N Target_9N KLaFemh MilfjCL Congruent right error Normal 2153.65
501 156 LeftLarger PercIBExp1 Prime_4N Target_6N KEbhIkC KihIfHa Incongruent right correct Normal 2352.992
501 157 LeftLarger PercIBExp1 Prime_9A Target_4N jCJMfeF GfBAheM Incongruent right error Normal 1741.041
501 158 LeftLarger PercIBExp1 Prime_1A Target_9N BKCFHeI dKbaFmf Incongruent right correct Normal 2304.511
501 159 LeftLarger PercIBExp1 Prime_6N Target_9A JAhgFED MakLjdE Congruent left correct Normal 1112.889
501 160 LeftLarger PercIBExp1 Prime_1N Target_4A cMGafbD dLBlCHK Congruent left error Normal 1738.095
502 1 LeftSmaller PercIAPrac Prime_9N Target_4A kEJlKef eGKldAF Incongruent left error Normal 182.9641
502 2 LeftSmaller PercIAPrac Prime_1A Target_6A bgHiCed eMKhlcH Incongruent left correct Normal 282.9386
502 3 LeftSmaller PercIAPrac Prime_4N Target_4N bdGigej fIkJHlD Congruent left correct Normal 270.1703
502 4 LeftSmaller PercIAPrac Prime_9A Target_9A AGhdeIj DgklhMc Congruent right correct Normal 101.5096
502 5 LeftSmaller PercIAPrac Prime_9N Target_1N BeDKLMJ cghjDGL Incongruent left error Early 90.30246
502 6 LeftSmaller PercIAPrac Prime_9N Target_9A haJKmiA MdBJHbG Congruent right correct Early 54.54622
502 7 LeftSmaller PercIAPrac Prime_6A Target_9N HELlmkd aeklCJd Congruent left error Early 25.97869
502 8 LeftSmaller PercIAPrac Prime_4N Target_1A FcJflEb hFKkmGB Congruent right error Early 48.23418
502 9 LeftSmaller PercIAPrac Prime_6A Target_1A bELBFkK jkMBcie Incongruent left error Early 70.11427
502 10 LeftSmaller PercIAPrac Prime_1A Target_9A MjBkcAm AhkildD Incongruent right error Normal 172.6214
502 11 LeftSmaller PercIAPrac Prime_9A Target_1N gDHBibh kblFcAM Incongruent left error Normal 118.5115
502 12 LeftSmaller PercIAPrac Prime_9N Target_1A klmgBEC aFADEdM Incongruent right correct Early 16.31477
502 13 LeftSmaller PercIAPrac Prime_4A Target_9N lKIkBcF mhLkfjB Incongruent right error Early 88.65386
502 14 LeftSmaller PercIAPrac Prime_6N Target_4N jAidFbH IGJmFkD Incongruent left error Early 69.96535
502 15 LeftSmaller PercIAPrac Prime_9A Target_6A GgcKhmb DEAJjKG Congruent right correct Early 98.92487
502 16 LeftSmaller PercIAPrac Prime_4A Target_1A FlegdGi BAFEciJ Congruent left correct Early 16.26024
502 17 LeftSmaller PercIAExp1 Prime_6N Target_1A BdeGMKj FJkLBaA Incongruent left error Normal 211.1651
502 18 LeftSmaller PercIAExp1 Prime_1A Target_1A ijLAFbk kGhJlID Congruent left correct Normal 204.0428
502 19 LeftSmaller PercIAExp1 Prime_1N Target_1N lFGKBHe IjEFmhi Congruent right error Early 71.86942
502 20 LeftSmaller PercIAExp1 Prime_4A Target_4N DJGKjcd HKgMkiJ Congruent right error Normal 176.4427
502 21 LeftSmaller PercIAExp1 Prime_1A Target_6N hdBalbg BhKLmAf Incongruent left correct Normal 133.03
502 22 LeftSmaller PercIAExp1 Prime_9A Target_4A cCgFfdk akbfKJe Incongruent right correct Early 78.7345
502 23 LeftSmaller PercIAExp1 Prime_6N Target_9A MGmkJeH kBdiHAG Congruent right correct Early 43.22461
502 24 LeftSmaller PercIAExp1 Prime_9N Target_1N GjbMECd glBaLCi Incongruent right correct Normal 131.8578
502 25 LeftSmaller PercIAExp1 Prime_4A Target_6A cFdAgBI EmClcak Incongruent right error Early 98.19261
502 26 LeftSmaller PercIAExp1 Prime_6A Target_4N jakLHJd khcgjib Incongruent right correct Normal 134.9607
502 27 LeftSmaller PercIAExp1 Prime_6N Target_1N IeckHlF kEDHaAd Incongruent left error Normal 168.9778
502 28 LeftSmaller PercIAExp1 Prime_1N Target_9A gAkHJML hcbdLDH Incongruent right error Early 23.0521
502 29 LeftSmaller PercIAExp1 Prime_1A Target_6A gLiDbCI AhGiela Incongruent left correct Early 89.23967
502 30 LeftSmaller PercIAExp1 Prime_9A Target_6N fIFDjJl agbjMDH Congruent right correct Early 27.44509
502 31 LeftSmaller PercIAExp1 Prime_1N Target_1A jBIGlHf MElfKmi Congruent right error Normal 120.6013
502 32 LeftSmaller PercIAExp1 Prime_9N Target_4N BcakDhf DfJIHaB Incongruent left error Early 61.33888
502 33 LeftSmaller PercIAExp1 Prime_4N Target_6N CiEJKIB maALEMe Incongruent right error Early 30.48278
502 34 LeftSmaller PercIAExp1 Prime_6N Target_6A jLbHmAJ mBcCLMe Congruent right correct Early 86.74269
502 35 LeftSmaller PercIAExp1 Prime_9A Target_9A MmfJKiI amdMghE Congruent right correct Early 27.74793
502 36 LeftSmaller PercIAExp1 Prime_9A Target_1A ehBjFHL McJiCgI Incongruent right correct Normal 134.9887
502 37 LeftSmaller PercIAExp1 Prime_1A Target_9N gGMkJFH GkafMCh Incongruent left correct Early 80.57464
502 38 LeftSmaller PercIAExp1 Prime_6A Target_9N GmbJkjB CAJgaib Congruent right correct Early 53.05888
502 39 LeftSmaller PercIAExp1 Prime_6A Target_9A KMfHeJb EcHDaGK Congruent right correct Early 44.73457
502 40 LeftSmaller PercIAExp1 Prime_4N Target_1N HiKgBCD McdlCKk Congruent left correct Early 98.92724
502 41 LeftSmaller PercIAExp1 Prime_4A Target_9A hGLBjdF jIemkBG Incongruent right error Normal 107.8787
502 42 LeftSmaller PercIAExp1 Prime_4A Target_4A BEDcmbl FDKCdEe Congruent right error Early 80.97469
502 43 LeftSmaller PercIAExp1 Prime_4A Target_6N fkFJCHI KlkGAhc Incongruent right error Normal 135.6573
502 44 LeftSmaller PercIAExp1 Prime_9A Target_6A FDaGjBJ IkDbKfG Congruent left error Normal 144.9952
502 45 LeftSmaller PercIAExp1 Prime_9A Target_9N EJDdGFB bEGLKHh Congruent right correct Early 61.33932
502 46 LeftSmaller PercIAExp1 Prime_4A Target_1N jKdFiem iahEKfe Congruent right error Normal 129.7527
502 47 LeftSmaller PercIAExp1 Prime_9N Target_4A lhHCFej GjFfhJl Incongruent left error Normal 108.0905
502 48 LeftSmaller PercIAExp1 Prime_6N Target_4N aMAlHik leLhbFc Incongruent right correct Normal 136.3933
502 49 LeftSmaller PercIAExp1 Prime_9A Target_4N ejhLMKF BhjFkGc Incongruent right correct Early 74.94782
502 50 LeftSmaller PercIAExp1 Prime_6A Target_6N LbGlAHM LdAlmfD Congruent left error Early 66.67678
502 51 LeftSmaller PercIAExp1 Prime_4N Target_9A JBbHacM GLMHhbi Incongruent right error Normal 130.2504
502 52 LeftSmaller PercIAExp1 Prime_1N Target_4A ALcbMfE bFEBhCc Congruent right error Normal 108.9936
502 53 LeftSmaller PercIAExp1 Prime_9N Target_6N FHDKjhC IEmMkbf Congruent right correct Normal 151.2079
502 54 LeftSmaller PercIAExp1 Prime_6N Target_6N gMemJFh KcMkhDH Congruent right correct Normal 101.0501
502 55 LeftSmaller PercIAExp1 Prime_1A Target_4N GleHjhE IMEjdDh Congruent right error Early 81.0156
502 56 LeftSmaller PercIAExp1 Prime_4A Target_1A DijkAFC aFgCdmb Congruent right error Early 24.22408
502 57 LeftSmaller PercIAExp1 Prime_9N Target_9A EmgLHDh HFDlJkA Congruent left error Early 99.54085
502 58 LeftSmaller PercIAExp1 Prime_6N Target_4A ChFHBcD FhedbkB Incongruent right correct Early 91.53302
502 59 LeftSmaller PercIAExp1 Prime_1A Target_9A kFelbda GbaCEhg Incongruent right error Normal 219.3424
502 60 LeftSmaller PercIAExp1 Prime_4N Target_4N GhmKdDM GEiMBhd Congruent left correct Normal 114.6579
502 61 LeftSmaller PercIAExp1 Prime_6N Target_9N BJgmdaF KBHljde Congruent right correct Early 93.49847
502 62 LeftSmaller PercIAExp1 Prime_4N Target_9N bIlLKhH AKIMkJm Incongruent left correct Early 24.16442
502 63 LeftSmaller PercIAExp1 Prime_1N Target_4N mjgkMef BFabEIj Congruent right error Early 28.64956
502 64 LeftSmaller PercIAExp1 Prime_1N Target_6A DLfdGkH lKgdfae Incongruent right error Normal 110.3505
502 65 LeftSmaller PercIAExp1 Prime_9N Target_9N kaGdmeH KchbiCa Congruent left error Early 25.37891
502 66 LeftSmaller PercIAExp1 Prime_1N Target_6N GjiIHbM IfhBCbG Incongruent left correct Normal 116.7612
502 67 LeftSmaller PercIAExp1 Prime_1A Target_1N cdLjAEi ECkmjhb Congruent right error Early 51.80005
502 68 LeftSmaller PercIAExp1 Prime_4A Target_9N iGcjKhE JDlLBaA Incongruent right error Normal 137.8092
502 69 LeftSmaller PercIAExp1 Prime_4N Target_6A bgDkcFm dJGIaib Incongruent left correct Early 57.72694
502 70 LeftSmaller PercIAExp1 Prime_6A Target_1A IbMKHfg kKHJAig Incongruent right correct Early 25.39884
502 71 LeftSmaller PercIAExp1 Prime_1N Target_9N DmGbHfA gEmBJGe Incongruent left correct Early 25.46852
502 72 LeftSmaller PercIAExp1 Prime_6A Target_6A MHmeJId hBbekAG Congruent right correct Early 29.01313
502 73 LeftSmaller PercIAExp1 Prime_4N Target_1A BGEaMFL BdjKmfM Congruent right error Normal 119.7291
502 74 LeftSmaller PercIAExp1 Prime_6A Target_1N LBEMFGK iKeFEHm Incongruent left error Normal 182.6085
502 75 LeftSmaller PercIAExp1 Prime_9N Target_6A hbEMcHA JLlmCIG Congruent right correct Early 29.17397
502 76 LeftSmaller PercIAExp1 Prime_4N Target_4A FBlDmGI ICEfJgl Congruent right error Normal 159.9972
502 77 LeftSmaller PercIAExp1 Prime_9A Target_1N jDfkcJC kMdHaih Incongruent right correct Normal 100.3275
502 78 LeftSmaller PercIAExp1 Prime_1A Target_4A DegmhEb leEIaib Congruent right error Early 29.17139
502 79 LeftSmaller PercIAExp1 Prime_9N Target_1A AHfKjDJ AeIbjhl Incongruent right correct Normal 109.7086
502 80 LeftSmaller PercIAExp1 Prime_6A Target_4A iAhJGlb afALmbi Incongruent left error Normal 116.0404
502 81 LeftLarger PercIBPrac Prime_9A Target_4A laCLJiK FdfILJg Incongruent left correct Normal 426.188
502 82 LeftLarger PercIBPrac Prime_1A Target_6A IAFeHcj ChDLAjB Incongruent left error Normal 384.8114
502 83 LeftLarger PercIBPrac Prime_4N Target_1A GlCDjBJ bejIAfL Congruent right correct Early 24.83935
502 84 LeftLarger PercIBPrac Prime_1A Target_1A iJFCLja GDcMKLb Congruent left error Early 41.36964
502 85 LeftLarger PercIBPrac Prime_4A Target_4A eHMfEjl LFCmgMf Congruent right correct Early 65.37474
502 86 LeftLarger PercIBPrac Prime_9A Target_9A LGhAabf ciHDEGf Congruent left correct Early 34.67179
502 87 LeftLarger PercIBPrac Prime_4N Target_9N jbIhMfD AMbljkd Incongruent right correct Early 30.21037
502 88 LeftLarger PercIBPrac Prime_1N Target_9A mCfJbFi CjelIFJ Incongruent left error Early 32.07785
502 89 LeftLarger PercIBPrac Prime_1A Target_9A gAdMbGK CkHBmIf Incongruent right correct Early 79.60554
502 90 LeftLarger PercIBPrac Prime_6N Target_4A aIbDjEh BdgKMiI Incongruent left correct Early 29.43254
502 91 LeftLarger PercIBPrac Prime_9A Target_1N kdDJFHI DEAlgKc Incongruent right error Early 58.6568
502 92 LeftLarger PercIBPrac Prime_4N Target_4A ajgdJKk FcEjKMJ Congruent left error Early 25.24571
502 93 LeftLarger PercIBPrac Prime_1A Target_4N flBEiDG JcbDdfg Congruent left error Early 54.8295
502 94 LeftLarger PercIBPrac Prime_1A Target_6N AGDBmeJ iemhlJB Incongruent right correct Normal 299.7338
502 95 LeftLarger PercIBPrac Prime_6N Target_9N AmfMGlb gEcHJbM Congruent left correct Early 43.72474
502 96 LeftLarger PercIBPrac Prime_1N Target_1N bKMlCHF HmdchIg Congruent left error Normal 134.1421
502 97 LeftLarger PercIBExp1 Prime_9A Target_1N cgJIBhe LehMDJC Incongruent left correct Normal 317.3931
502 98 LeftLarger PercIBExp1 Prime_6A Target_6A BEkKChH kEBMmHI Congruent right error Normal 106.9183
502 99 LeftLarger PercIBExp1 Prime_9N Target_6A gfmdJck ILhBdDa Congruent right error Normal 157.0926
502 100 LeftLarger PercIBExp1 Prime_9N Target_4N LHKiJfe EMkeDKj Incongruent left correct Normal 123.4115
502 101 LeftLarger PercIBExp1 Prime_4N Target_4N DKaEgMl eIDCHlA Congruent left error Normal 152.8991
502 102 LeftLarger PercIBExp1 Prime_9A Target_6N jcBbKGi EKGDfbg Congruent left correct Normal 320.1981
502 103 LeftLarger PercIBExp1 Prime_1A Target_9A DihaBlg MlmkhIL Incongruent right correct Normal 119.7486
502 104 LeftLarger PercIBExp1 Prime_9N Target_9A lFBbdIg ALHbaEC Congruent left correct Normal 163.3006
502 105 LeftLarger PercIBExp1 Prime_4N Target_4A JklfDdM BFgEcbf Congruent right correct Early 59.44233
502 106 LeftLarger PercIBExp1 Prime_1N Target_1A iJLhcIM HfcMgkD Congruent left error Normal 138.2755
502 107 LeftLarger PercIBExp1 Prime_1N Target_6N LAkcEMd cjfdAli Incongruent left error Early 68.36877
502 108 LeftLarger PercIBExp1 Prime_9N Target_9N gLMBGID CbIeaiF Congruent right error Normal 100.7079
502 109 LeftLarger PercIBExp1 Prime_4N Target_1A iLgflIa mBClcaM Congruent left error Normal 187.0079
502 110 LeftLarger PercIBExp1 Prime_4N Target_1N fjmgKJk haFcjfk Congruent right correct Early 54.21185
502 111 LeftLarger PercIBExp1 Prime_4A Target_6A JGMfCbF fjIcedH Incongruent left error Early 45.13475
502 112 LeftLarger PercIBExp1 Prime_1A Target_6N HmJjMid kJKAHaG Incongruent left error Normal 223.0369
502 113 LeftLarger PercIBExp1 Prime_1N Target_6A jaMgIic mfBjgiM Incongruent right correct Early 73.0551
502 114 LeftLarger PercIBExp1 Prime_1A Target_4N fIAcgCE MIFKjlD Congruent left error Normal 106.6727
502 115 LeftLarger PercIBExp1 Prime_9A Target_4N FaKgjGM daGFHcK Incongruent right error Early 84.71928
502 116 LeftLarger PercIBExp1 Prime_4A Target_4N EBljbMd MKAaGeB Congruent left error Normal 169.3204
502 117 LeftLarger PercIBExp1 Prime_9A Target_1A FIDlgEm fdLaDkl Incongruent left correct Normal 107.6168
502 118 LeftLarger PercIBExp1 Prime_9N Target_6N hcdgkLe EGbKMkD Congruent left correct Normal 213.9973
502 119 LeftLarger PercIBExp1 Prime_9N Target_1N biDJKBg MkEjCle Incongruent right error Normal 170.8502
502 120 LeftLarger PercIBExp1 Prime_1A Target_1N mcAdFIM lAGJiIh Congruent right correct Normal 141.2834
502 121 LeftLarger PercIBExp1 Prime_4N Target_9A fjDJidE BaGAkHm Incongruent left error Early 69.56672
502 122 LeftLarger PercIBExp1 Prime_4A Target_6N eKEMHDC kMeFLBK Incongruent left error Early 85.31192
502 123 LeftLarger PercIBExp1 Prime_6A Target_1N GAaLDFg fjMGIHi Incongruent left correct Normal 124.4655
502 124 LeftLarger PercIBExp1 Prime_6N Target_9A EdfMcCH CLaDdch Congruent left correct Normal 103.6712
502 125 LeftLarger PercIBExp1 Prime_9A Target_9N JHKdgGc LadHlkB Congruent right error Normal 151.5548
502 126 LeftLarger PercIBExp1 Prime_6N Target_6A BiLJChA BFbDHGi Congruent left correct Normal 125.4183
502 127 LeftLarger PercIBExp1 Prime_4A Target_9A deDIcAF khJBiIm Incongruent left error Normal 149.2168
502 128 LeftLarger PercIBExp1 Prime_4A Target_4A MICdLik KfGFbMi Congruent left error Early 79.26975
502 129 LeftLarger PercIBExp1 Prime_9A Target_4A CILJmMA FJAkhea Incongruent right error Normal 184.5871
502 130 LeftLarger PercIBExp1 Prime_4N Target_6A GMDdmAf eLMgham Incongruent left error Normal 250.6509
502 131 LeftLarger PercIBExp1 Prime_6N Target_1A IbljJEG MbGFELC Incongruent left correct Normal 190.0835
502 132 LeftLarger PercIBExp1 Prime_6A Target_4A hBligFc kbCIEJK Incongruent right error Normal 189.0875
502 133 LeftLarger PercIBExp1 Prime_1N Target_9A gLFMDbm aAMEclm Incongruent left error Early 75.03537
502 134 LeftLarger PercIBExp1 Prime_6N Target_1N kCjHFdG cMmAhfC Incongruent right error Normal 134.2239
502 135 LeftLarger PercIBExp1 Prime_4N Target_6N jlBbckf eFclBki Incongruent left error Normal 107.6989
502 136 LeftLarger PercIBExp1 Prime_6A Target_9N mdEKICG IDaichJ Congruent left correct Early 71.83916
502 137 LeftLarger PercIBExp1 Prime_4N Target_9N bCAJdeE mhECbDl Incongruent left error Normal 235.953
502 138 LeftLarger PercIBExp1 Prime_1A Target_6A mjbaMCG DGeiKdE Incongruent left error Normal 304.5401
502 139 LeftLarger PercIBExp1 Prime_4A Target_9N hKGgfba mbjDCkI Incongruent left error Normal 189.9888
502 140 LeftLarger PercIBExp1 Prime_1A Target_1A ILaklgC JLFgMmA Congruent right correct Normal 131.7917
502 141 LeftLarger PercIBExp1 Prime_9N Target_1A mGidCha liAHagJ Incongruent right error Normal 116.2425
502 142 LeftLarger PercIBExp1 Prime_1N Target_9N lFDChGk CdiMbGK Incongruent left error Early 96.20891
502 143 LeftLarger PercIBExp1 Prime_6A Target_9A kbcKGgD BmJcEih Congruent left correct Normal 101.1748
502 144 LeftLarger PercIBExp1 Prime_6A Target_6N aHECMfd IHFaAdh Congruent left correct Normal 126.3572
502 145 LeftLarger PercIBExp1 Prime_1N Target_1N EmIhBbD GcDIbaE Congruent right correct Normal 104.5604
502 146 LeftLarger PercIBExp1 Prime_6N Target_9N BgaLkHe aJGiELM Congruent left correct Early 46.6381
502 147 LeftLarger PercIBExp1 Prime_1N Target_4A MDajkEL fdeFahK Congruent left error Early 68.63227
502 148 LeftLarger PercIBExp1 Prime_4A Target_1N LGlBimC baiHBDM Congruent left error Early 42.90873
502 149 LeftLarger PercIBExp1 Prime_6A Target_4N jhKgFkC igbhLGm Incongruent left correct Early 60.52773
502 150 LeftLarger PercIBExp1 Prime_6N Target_4N EjLlCiJ jFJGeDb Incongruent left correct Normal 128.3035
502 151 LeftLarger PercIBExp1 Prime_1A Target_4A ljLeGak CIkKalE Congruent left error Early 72.00597
502 152 LeftLarger PercIBExp1 Prime_6N Target_4A jcLdiBD jmBehaF Incongruent left correct Normal 184.6963
502 153 LeftLarger PercIBExp1 Prime_4A Target_1A GAJEhCL DJgeIaF Congruent right correct Normal 101.6758
502 154 LeftLarger PercIBExp1 Prime_9N Target_4A hECHegG KGliBCI Incongruent left correct Normal 128.6314
502 155 LeftLarger PercIBExp1 Prime_6N Target_6N FLlIGkh AJHILdc Congruent right error Normal 169.0841
502 156 LeftLarger PercIBExp1 Prime_1A Target_9N JaIdgcM JbBjdFC Incongruent left error Early 97.40684
502 157 LeftLarger PercIBExp1 Prime_9A Target_6A kDEgMli jAhmGec Congruent left correct Normal 109.9223
502 158 LeftLarger PercIBExp1 Prime_6A Target_1A AkjHMil gDKEFLA Incongruent left correct Normal 104.8115
502 159 LeftLarger PercIBExp1 Prime_1N Target_4N aAfhcBG daIkMFE Congruent right correct Early 48.37117
502 160 LeftLarger PercIBExp1 Prime_9A Target_9A LafgcdI MHgCfBl Congruent left correct Normal 151.1783
503 1 LeftLarger PercIAPrac Prime_4A Target_1A lgkCIJf DhlEMgk Congruent left error Late 12331.36
503 2 LeftLarger PercIAPrac Prime_4A Target_9A ighmMeB MCkjiJh Incongruent right correct Normal 714.6575
503 3 LeftLarger PercIAPrac Prime_4A Target_9N BLKHfdb kBehJaC Incongruent left error Normal 1029.165
503 4 LeftLarger PercIAPrac Prime_1A Target_1A alLdMeK GdKilfI Congruent right correct Normal 640.6191
503 5 LeftLarger PercIAPrac Prime_1A Target_1N FjLAcdb jLamlkD Congruent left error Normal 603.023
503 6 LeftLarger PercIAPrac Prime_4A Target_6N fMeGcFd LaMifJG Incongruent right correct Normal 850.2018
503 7 LeftLarger PercIAPrac Prime_4N Target_4A eDCJMcI KJiMkBD Congruent left error Normal 951.2677
503 8 LeftLarger PercIAPrac Prime_9N Target_6N gLaBiHe bJIDAke Congruent left correct Normal 900.6627
503 9 LeftLarger PercIAPrac Prime_6A Target_9N GLaMgKE mcgabjE Congruent right error Normal 605.3381
503 10 LeftLarger PercIAPrac Prime_4A Target_1N gcBDjma KMhgmek Congruent right correct Normal 1266.887
503 11 LeftLarger PercIAPrac Prime_6N Target_1A gKGjHfc bCEHjlc Incongruent right error Normal 1888.776
503 12 LeftLarger PercIAPrac Prime_6N Target_4N iMHdAFC BkiHMdf Incongruent right error Normal 1131.017
503 13 LeftLarger PercIAPrac Prime_1N Target_4N eliLdJh jiIbcHl Congruent left error Normal 699.7721
503 14 LeftLarger PercIAPrac Prime_4N Target_4N ehaCLHB bJKHLDe Congruent right correct Normal 1921.669
503 15 LeftLarger PercIAPrac Prime_1N Target_6A hfcBHEF LCIEfec Incongruent right correct Normal 2527.082
503 16 LeftLarger PercIAPrac Prime_6A Target_1N IjGhCgd jbGMfhK Incongruent left correct Normal 323.8708
503 17 LeftLarger PercIAExp1 Prime_4A Target_6A DCBheKE AkmBIeh Incongruent left error Normal 672.1408
503 18 LeftLarger PercIAExp1 Prime_6N Target_4A KBJelMm gFIDhAE Incongruent left correct Normal 1009.179
503 19 LeftLarger PercIAExp1 Prime_4A Target_1N kjJMHiL LaFhlBg Congruent left error Normal 1494.163
503 20 LeftLarger PercIAExp1 Prime_9N Target_9A dChIfAE ADkJmMC Congruent left correct Normal 1108.22
503 21 LeftLarger PercIAExp1 Prime_6A Target_9N dHiDgkI DaIdcfj Congruent right error Normal 586.4325
503 22 LeftLarger PercIAExp1 Prime_1A Target_4N cKbIDJk DaEehGK Congruent left error Normal 1287.712
503 23 LeftLarger PercIAExp1 Prime_1A Target_9N FdaMgGj McjIHKF Incongruent right correct Normal 730.7217
503 24 LeftLarger PercIAExp1 Prime_9A Target_6N JHgcGhC JAIFHeg Congruent right error Normal 2405.594
503 25 LeftLarger PercIAExp1 Prime_6N Target_6N iIELfhe HKhciaG Congruent left correct Normal 1860.672
503 26 LeftLarger PercIAExp1 Prime_1N Target_4N hKicGlM FbKijBM Congruent right correct Normal 997.8577
503 27 LeftLarger PercIAExp1 Prime_9A Target_9A DdkfaKB gJhdfAB Congruent right error Normal 1350.293
503 28 LeftLarger PercIAExp1 Prime_9A Target_1A BGcLdeC AlKFbcJ Incongruent left correct Normal 1233.998
503 29 LeftLarger PercIAExp1 Prime_4A Target_6N HAfIeam HkCKdac Incongruent right correct Normal 2925.326
503 30 LeftLarger PercIAExp1 Prime_1A Target_6A GDgKlBA BJhFlfC Incongruent left error Normal 1184.368
503 31 LeftLarger PercIAExp1 Prime_4N Target_1A dEBlAJH dJKlGha Congruent left error Normal 1780.294
503 32 LeftLarger PercIAExp1 Prime_1A Target_1A LmKgfle LGClAdJ Congruent left error Normal 1641.319
503 33 LeftLarger PercIAExp1 Prime_4N Target_6N JmHIKEj JmhBMkf Incongruent right correct Normal 2490.888
503 34 LeftLarger PercIAExp1 Prime_6A Target_4N iMIJhAF aIgLJiD Incongruent left correct Normal 1111.138
503 35 LeftLarger PercIAExp1 Prime_1N Target_6N LaHJMiB mdbACgG Incongruent left error Normal 1767.555
503 36 LeftLarger PercIAExp1 Prime_1N Target_1N EMhcHeg GKklhIA Congruent right correct Normal 599.1185
503 37 LeftLarger PercIAExp1 Prime_6A Target_6A glajfML aCIFBbL Congruent right error Normal 1803.344
503 38 LeftLarger PercIAExp1 Prime_6N Target_4N HgfjBEi fKClaLk Incongruent left correct Normal 822.2157
503 39 LeftLarger PercIAExp1 Prime_1A Target_6N FKHgImM MbgCdJj Incongruent right correct Normal 1166.66
503 40 LeftLarger PercIAExp1 Prime_4N Target_6A deCGAaB kfcFAeK Incongruent left error Normal 1055.322
503 41 LeftLarger PercIAExp1 Prime_1N Target_1A GjEIfcm jkbDchg Congruent right correct Normal 753.8956
503 42 LeftLarger PercIAExp1 Prime_1A Target_9A IeBcilL hGIBgEd Incongruent right correct Normal 727.3683
503 43 LeftLarger PercIAExp1 Prime_6N Target_1A IhiCDaA gDhliIH Incongruent left correct Normal 2270.201
503 44 LeftLarger PercIAExp1 Prime_6A Target_1N IdLajmC bgHjIhe Incongruent right error Normal 1003.549
503 45 LeftLarger PercIAExp1 Prime_1N Target_9A mkbjfEB BbDGKed Incongruent left error Normal 1280.452
503 46 LeftLarger PercIAExp1 Prime_4A Target_4A alfEFeB IbHgchj Congruent right correct Normal 1121.762
503 47 LeftLarger PercIAExp1 Prime_6A Target_1A BGhMiAa GcJELbe Incongruent right error Normal 894.8387
503 48 LeftLarger PercIAExp1 Prime_4N Target_9A MLIhgBb CcdAbEe Incongruent left error Normal 563.725
503 49 LeftLarger PercIAExp1 Prime_9A Target_4A ibLkjBF hBCmGjH Incongruent right error Normal 432.8767
503 50 LeftLarger PercIAExp1 Prime_4A Target_4N HdalEei LBMkGHi Congruent right correct Normal 537.5886
503 51 LeftLarger PercIAExp1 Prime_4N Target_4N jkmgJeK CFgJljk Congruent left error Normal 294.35
503 52 LeftLarger PercIAExp1 Prime_9A Target_9N akimbfj miefKJa Congruent right error Normal 229.776
503 53 LeftLarger PercIAExp1 Prime_9N Target_1A DcKmAFJ DaGgjIb Incongruent right error Normal 190.08
503 54 LeftLarger PercIAExp1 Prime_6N Target_6A KHMbdEe KgdhjfL Congruent right error Normal 378.0959
503 55 LeftLarger PercIAExp1 Prime_4A Target_1A BaKFfgC jkHJKBi Congruent left error Normal 561.8992
503 56 LeftLarger PercIAExp1 Prime_9N Target_9N KMIHaJj hmKHFgb Congruent left correct Normal 941.3059
503 57 LeftLarger PercIAExp1 Prime_9N Target_1N AblKGdC dIFEMDg Incongruent right error Normal 476.4982
503 58 LeftLarger PercIAExp1 Prime_9N Target_4A KAMHIal BAEJMLG Incongruent left correct Normal 495.372
503 59 LeftLarger PercIAExp1 Prime_4A Target_9N amgkKbI ImjfLhF Incongruent right correct Normal 357.1883
503 60 LeftLarger PercIAExp1 Prime_1A Target_1N dFGMmjk eLBMflC Congruent right correct Normal 470.3554
503 61 LeftLarger PercIAExp1 Prime_1N Target_6A eFAgLkH EcGIDKA Incongruent right correct Normal 558.8638
503 62 LeftLarger PercIAExp1 Prime_9A Target_1N fHhgDMi KDdhbjm Incongruent left correct Normal 505.7119
503 63 LeftLarger PercIAExp1 Prime_9N Target_6A jdliKmF fAHmBhM Congruent right error Normal 456.8734
503 64 LeftLarger PercIAExp1 Prime_6N Target_9A GKkbIcC lFmdbfj Congruent left correct Normal 1520.763
503 65 LeftLarger PercIAExp1 Prime_4N Target_4A FIdhMmf kcdmDKA Congruent right correct Normal 788.655
503 66 LeftLarger PercIAExp1 Prime_9N Target_4N GfAbeah cjGAEKf Incongruent right error Normal 1656.083
503 67 LeftLarger PercIAExp1 Prime_9N Target_6N dDIGALK chkjGBE Congruent left correct Normal 886.9262
503 68 LeftLarger PercIAExp1 Prime_1A Target_4A AiaLIkF BIliJEF Congruent left error Normal 1260.71
503 69 LeftLarger PercIAExp1 Prime_1N Target_4A GChMAcK KDkjLiM Congruent left error Normal 1801.143
503 70 LeftLarger PercIAExp1 Prime_4A Target_9A JbMDdHc heEDbAL Incongruent left error Normal 849.5328
503 71 LeftLarger PercIAExp1 Prime_9A Target_4N icgjbeL edijAKJ Incongruent right error Normal 746.2729
503 72 LeftLarger PercIAExp1 Prime_9A Target_6A LEJFKhk gkEbaCA Congruent left correct Normal 961.6821
503 73 LeftLarger PercIAExp1 Prime_4N Target_9N BeLCcKE DgiMdKf Incongruent left error Normal 1209.979
503 74 LeftLarger PercIAExp1 Prime_6N Target_9N hCGkIHj kGbiFjE Congruent left correct Normal 1845.537
503 75 LeftLarger PercIAExp1 Prime_4N Target_1N geJldHL IjdEgDl Congruent right correct Normal 1561.067
503 76 LeftLarger PercIAExp1 Prime_1N Target_9N dCalcFK gMdBbJF Incongruent left error Normal 1128.124
503 77 LeftLarger PercIAExp1 Prime_6A Target_6N hgMeBlc JafjEkb Congruent right error Normal 956.2395
503 78 LeftLarger PercIAExp1 Prime_6A Target_9A JHDBAEK kahLHjC Congruent right error Normal 728.9088
503 79 LeftLarger PercIAExp1 Prime_6A Target_4A BjeacGm gAacflH Incongruent left correct Normal 925.3298
503 80 LeftLarger PercIAExp1 Prime_6N Target_1N HjMIceK DACJHfI Incongruent left correct Normal 1845.617
503 81 LeftSmaller PercIBPrac Prime_1A Target_6A EacmAdF GgibjMA Incongruent left correct Normal 918.9533
503 82 LeftSmaller PercIBPrac Prime_4N Target_4A AaLiIdJ MjBCbHG Congruent left correct Normal 409.0669
503 83 LeftSmaller PercIBPrac Prime_1N Target_4N bHiBIjD MIflLKA Congruent right error Normal 407.2341
503 84 LeftSmaller PercIBPrac Prime_4A Target_1N CKMHlBE fdHDFAI Congruent left correct Normal 781.8588
503 85 LeftSmaller PercIBPrac Prime_4N Target_4N DLciEAf BKELJdc Congruent right error Normal 1051.166
503 86 LeftSmaller PercIBPrac Prime_4A Target_1A JedEIFl KIhgelJ Congruent right error Normal 528.4756
503 87 LeftSmaller PercIBPrac Prime_9N Target_9N IFjagMl JGIlikj Congruent left error Normal 835.2148
503 88 LeftSmaller PercIBPrac Prime_1A Target_4N khHGifE IhgCcbG Congruent right error Normal 505.3969
503 89 LeftSmaller PercIBPrac Prime_4N Target_6A ELkgIdA IAHgBea Incongruent left correct Normal 348.4017
503 90 LeftSmaller PercIBPrac Prime_6A Target_1A kFDIGla aGJECmI Incongruent left error Normal 241.8814
503 91 LeftSmaller PercIBPrac Prime_9N Target_1N LeCHKhG AfJMlHB Incongruent right correct Normal 1237.4
503 92 LeftSmaller PercIBPrac Prime_9A Target_6N IiDeMhj MmdIHFC Congruent left error Normal 711.9786
503 93 LeftSmaller PercIBPrac Prime_4N Target_9A Ajaghei ILCfjaM Incongruent left correct Normal 1138.01
503 94 LeftSmaller PercIBPrac Prime_6A Target_9A BAcImjg FDCAdJI Congruent right correct Normal 872.1888
503 95 LeftSmaller PercIBPrac Prime_6A Target_4N FCDLdJi lhfKCLF Incongruent right correct Normal 267.9846
503 96 LeftSmaller PercIBPrac Prime_6N Target_6A EHLAeJh aAfIGFb Congruent left error Normal 243.2668
503 97 LeftSmaller PercIBExp1 Prime_9A Target_9N gCbADdK ejiLgcC Congruent right correct Normal 755.616
503 98 LeftSmaller PercIBExp1 Prime_1A Target_6N JihImEK hgeGLEd Incongruent left correct Normal 591.2087
503 99 LeftSmaller PercIBExp1 Prime_4A Target_6A DjLMGmK ABeGhjK Incongruent right error Normal 1464.325
503 100 LeftSmaller PercIBExp1 Prime_6N Target_6N iBlMeDG ckBJDAE Congruent left error Normal 735.795
503 101 LeftSmaller PercIBExp1 Prime_4N Target_6N HimAGhf caCJEBl Incongruent left correct Normal 1326.293
503 102 LeftSmaller PercIBExp1 Prime_1A Target_1N HgdhEbC LicfEBF Congruent right error Normal 680.8566
503 103 LeftSmaller PercIBExp1 Prime_1N Target_4A LMcbDAj dKHFCAB Congruent left correct Normal 451.3988
503 104 LeftSmaller PercIBExp1 Prime_4N Target_9A IhLmAjE FAicjBL Incongruent left correct Normal 937.4459
503 105 LeftSmaller PercIBExp1 Prime_9N Target_1A Mdgkfab LkcbdFi Incongruent right correct Normal 1375.661
503 106 LeftSmaller PercIBExp1 Prime_9N Target_4A GIKJaLe LkjelCd Incongruent right correct Normal 1050.177
503 107 LeftSmaller PercIBExp1 Prime_6A Target_9A iEGhFcb BJDGmHL Congruent left error Normal 771.3421
503 108 LeftSmaller PercIBExp1 Prime_6A Target_6A mbCflkL hMJFGjD Congruent right correct Normal 529.8985
503 109 LeftSmaller PercIBExp1 Prime_1A Target_6A fiHbdJG Cmbejca Incongruent left correct Normal 760.6501
503 110 LeftSmaller PercIBExp1 Prime_4A Target_1A AaLjKbE KEGJHMD Congruent right error Normal 1031.238
503 111 LeftSmaller PercIBExp1 Prime_4A Target_1N JKAhBcF aCIAdKe Congruent left correct Normal 875.8042
503 112 LeftSmaller PercIBExp1 Prime_4N Target_1A MifGjHb IGJDcbB Congruent left correct Normal 889.2327
503 113 LeftSmaller PercIBExp1 Prime_9N Target_1N edmCKGL GEdcILi Incongruent right correct Normal 711.8807
503 114 LeftSmaller PercIBExp1 Prime_4A Target_6N CDELIFA JHFlIdE Incongruent left correct Normal 667.2976
503 115 LeftSmaller PercIBExp1 Prime_1A Target_4N HJhbajc jdfAJeD Congruent left correct Normal 512.2356
503 116 LeftSmaller PercIBExp1 Prime_4N Target_6A mHKIiJE dFLEBhK Incongruent right error Normal 193.529
503 117 LeftSmaller PercIBExp1 Prime_9N Target_9N BKHldFh iJIMKGC Congruent left error Normal 297.1397
503 118 LeftSmaller PercIBExp1 Prime_1N Target_9N GdbEAJC CJmKIiB Incongruent right error Normal 212.8448
503 119 LeftSmaller PercIBExp1 Prime_6A Target_4A lciKDGk JkdiDeE Incongruent right correct Normal 354.8745
503 120 LeftSmaller PercIBExp1 Prime_6N Target_9A JhMbHCi kHLcGeJ Congruent right correct Normal 212.6754
503 121 LeftSmaller PercIBExp1 Prime_1N Target_6N jfLMAdi BdjlfGA Incongruent left correct Normal 450.3197
503 122 LeftSmaller PercIBExp1 Prime_6N Target_1A eKjdFlc hIJaGjc Incongruent left error Normal 429.2339
503 123 LeftSmaller PercIBExp1 Prime_9N Target_6N DLbdAkj fhDFdmc Congruent left error Normal 387.9465
503 124 LeftSmaller PercIBExp1 Prime_1A Target_9N jafkcdE IcfJaKh Incongruent left correct Normal 586.055
503 125 LeftSmaller PercIBExp1 Prime_6N Target_1N mLFJdaf IKLgeck Incongruent right correct Normal 363.6943
503 126 LeftSmaller PercIBExp1 Prime_6A Target_4N JfGiamg KmeliAB Incongruent left error Normal 233.4391
503 127 LeftSmaller PercIBExp1 Prime_6N Target_9N GjdBDAh CBjDhfJ Congruent right correct Normal 500.1745
503 128 LeftSmaller PercIBExp1 Prime_9A Target_9A KJFgeAG mkDaEeC Congruent left error Normal 754.9724
503 129 LeftSmaller PercIBExp1 Prime_9N Target_6A LmiFgea gJiMDed Congruent left error Normal 480.262
503 130 LeftSmaller PercIBExp1 Prime_6N Target_6A AIMJHbC eJIAjBd Congruent right correct Normal 622.6866
503 131 LeftSmaller PercIBExp1 Prime_9N Target_9A kiDgjcL EIeLkFB Congruent right correct Normal 342.3697
503 132 LeftSmaller PercIBExp1 Prime_4A Target_4N JMDjbeB aMlBgmL Congruent left correct Normal 391.0076
503 133 LeftSmaller PercIBExp1 Prime_4A Target_9A ceAgamB klKmHAD Incongruent right error Normal 376.1748
503 134 LeftSmaller PercIBExp1 Prime_1N Target_9A JdHBEkF cHDACfj Incongruent right error Normal 824.5843
503 135 LeftSmaller PercIBExp1 Prime_6A Target_9N CJfEbhl bELkhKl Congruent right correct Normal 777.6564
503 136 LeftSmaller PercIBExp1 Prime_6A Target_1A BgkGImc FEHMhkb Incongruent right correct Normal 750.5758
503 137 LeftSmaller PercIBExp1 Prime_4N Target_4N jamebkL aFmMCIg Congruent left correct Normal 665.8699
503 138 LeftSmaller PercIBExp1 Prime_9A Target_1A jHeALEk GjkcmDM Incongruent right correct Normal 593.6059
503 139 LeftSmaller PercIBExp1 Prime_4A Target_4A CmkjFhJ DbcBKaj Congruent right error Normal 502.4605
503 140 LeftSmaller PercIBExp1 Prime_9A Target_1N MEfChbL mkKFgLl Incongruent left error Normal 464.4955
503 141 LeftSmaller PercIBExp1 Prime_1N Target_1N LGhMiID dgKLaic Congruent right error Normal 432.776
503 142 LeftSmaller PercIBExp1 Prime_1A Target_1A hJgBiEk iagcfmE Congruent right error Normal 479.2288
503 143 LeftSmaller PercIBExp1 Prime_9A Target_6A IbKCjhH ehfLGKE Congruent left error Normal 524.7272
503 144 LeftSmaller PercIBExp1 Prime_6A Target_6N FMdiBkE ilejIKk Congruent left error Normal 528.4927
503 145 LeftSmaller PercIBExp1 Prime_1N Target_1A aJIhLKF DeMFimc Congruent left correct Normal 471.2241
503 146 LeftSmaller PercIBExp1 Prime_9A Target_6N LhFGeJg KJkBFgA Congruent right correct Normal 651.6072
503 147 LeftSmaller PercIBExp1 Prime_1A Target_9A GiElFgC hiMGImf Incongruent left correct Normal 875.2182
503 148 LeftSmaller PercIBExp1 Prime_6N Target_4A KLMEIdc Jmebkig Incongruent right correct Normal 1357.077
503 149 LeftSmaller PercIBExp1 Prime_9A Target_4N CmelMBF FdLlaKm Incongruent left error Normal 1193.998
503 150 LeftSmaller PercIBExp1 Prime_4N Target_4A MGlDAFL BJaFLIG Congruent right error Normal 1002.175
503 151 LeftSmaller PercIBExp1 Prime_1N Target_6A JeiDLfE ebkMmDJ Incongruent right error Normal 745.6107
503 152 LeftSmaller PercIBExp1 Prime_1N Target_4N igacImK HFgBmJD Congruent left correct Normal 946.7625
503 153 LeftSmaller PercIBExp1 Prime_6N Target_4N aiGbKgB dcfDJCL Incongruent right correct Normal 462.2593
503 154 LeftSmaller PercIBExp1 Prime_4N Target_1N ldGbCBk eDEfIbF Congruent left correct Normal 666.1289
503 155 LeftSmaller PercIBExp1 Prime_9N Target_4N GekiEda DECAgKc Incongruent right correct Normal 1345.849
503 156 LeftSmaller PercIBExp1 Prime_9A Target_4A djKgeJA AabcDKj Incongruent right correct Normal 812.2171
503 157 LeftSmaller PercIBExp1 Prime_1A Target_4A dfaeJLB HEabFBj Congruent right error Normal 1086.206
503 158 LeftSmaller PercIBExp1 Prime_4A Target_9N GAkcDma ecHEkBG Incongruent left correct Normal 1377.946
503 159 LeftSmaller PercIBExp1 Prime_6A Target_1N FgafJLh AleIgjD Incongruent right correct Normal 743.8709
503 160 LeftSmaller PercIBExp1 Prime_4N Target_9N mjGMdaE LCKbjeB Incongruent left correct Normal 321.4813
504 1 LeftLarger PercIAPrac Prime_1A Target_9N KihEjBa hCGlgHe Incongruent left error Normal 977.398
504 2 LeftLarger PercIAPrac Prime_4N Target_1A gfGAilI DjKlbIm Congruent right correct Normal 1614.188
504 3 LeftLarger PercIAPrac Prime_4A Target_6N ADkdIBJ GiLcHFh Incongruent right correct Normal 1284.01
504 4 LeftLarger PercIAPrac Prime_1A Target_1A EgFJCeI IiAEgMe Congruent left error Normal 2131.189
504 5 LeftLarger PercIAPrac Prime_4N Target_1N bciKEhL DdjcBbH Congruent right correct Normal 2407.381
504 6 LeftLarger PercIAPrac Prime_6A Target_1N Abgdehl lAmBDKL Incongruent left correct Normal 2907.074
504 7 LeftLarger PercIAPrac Prime_4N Target_9A CLfjleE KbFalBg Incongruent left error Normal 1410.536
504 8 LeftLarger PercIAPrac Prime_6A Target_4A MCFEcik kjEhMbJ Incongruent right error Normal 1618.208
504 9 LeftLarger PercIAPrac Prime_4N Target_4N bGDmcAh cIgajAF Congruent left error Normal 1186.916
504 10 LeftLarger PercIAPrac Prime_4A Target_9A CGgDeaB JBAhEle Incongruent right correct Normal 1020.233
504 11 LeftLarger PercIAPrac Prime_9A Target_9A AgeiJIa mIlAcMF Congruent left correct Normal 1052.664
504 12 LeftLarger PercIAPrac Prime_4A Target_1N IKlbgLh DdjfMcG Congruent right correct Normal 2442.161
504 13 LeftLarger PercIAPrac Prime_6A Target_9A ABFjIkE AFbEfih Congruent left correct Normal 1099.16
504 14 LeftLarger PercIAPrac Prime_1N Target_1A iaKHDJl GJLgDid Congruent left error Normal 1888.928
504 15 LeftLarger PercIAPrac Prime_1N Target_1N FGHKdih mAGlFcJ Congruent right correct Normal 877.4018
504 16 LeftLarger PercIAPrac Prime_1N Target_9N KGfdehL CBhEFce Incongruent right correct Normal 1135.34
504 17 LeftLarger PercIAExp1 Prime_1N Target_4N KAdLMGF CfDbEcI Congruent left error Normal 950.4801
504 18 LeftLarger PercIAExp1 Prime_6N Target_9A dAegFkK gAmbCcG Congruent left correct Normal 1155.323
504 19 LeftLarger PercIAExp1 Prime_4A Target_9A AgMLGkf mClgJMA Incongruent right correct Normal 876.0555
504 20 LeftLarger PercIAExp1 Prime_4A Target_1A FblGKAL dKjgHaA Congruent left error Normal 765.2356
504 21 LeftLarger PercIAExp1 Prime_4A Target_4A ajdciBm IJKbgcm Congruent left error Normal 1575.413
504 22 LeftLarger PercIAExp1 Prime_1A Target_6A KeJacMI fmlEKCF Incongruent right correct Normal 915.6014
504 23 LeftLarger PercIAExp1 Prime_4A Target_1N BDghHld fAadJLe Congruent left error Normal 800.2075
504 24 LeftLarger PercIAExp1 Prime_4A Target_4N FEkHchi MIgJdjH Congruent left error Normal 1026.196
504 25 LeftLarger PercIAExp1 Prime_4N Target_9N GcljDaM jbJfelL Incongruent right correct Normal 1526.666
504 26 LeftLarger PercIAExp1 Prime_9A Target_6A lCgGcEB BFakfMG Congruent left correct Normal 1695.314
504 27 LeftLarger PercIAExp1 Prime_1N Target_9N GmBiEAC jCcJfFi Incongruent right correct Normal 1253.972
504 28 LeftLarger PercIAExp1 Prime_9N Target_6N cHKCDEa LDMHhel Congruent left correct Normal 1134.932
504 29 LeftLarger PercIAExp1 Prime_4A Target_9N IGkaALF IlcifGC Incongruent right correct Normal 774.9671
504 30 LeftLarger PercIAExp1 Prime_1A Target_1A amFgECD fdGmaKL Congruent left error Normal 973.7952
504 31 LeftLarger PercIAExp1 Prime_1A Target_4A GBElIkd IecEhBH Congruent left error Normal 831.0024
504 32 LeftLarger PercIAExp1 Prime_9N Target_1A KkeJBiF EbBfLhF Incongruent right error Normal 1852.592
504 33 LeftLarger PercIAExp1 Prime_1N Target_9A mKJijkf BaJbGml Incongruent right correct Normal 1036.653
504 34 LeftLarger PercIAExp1 Prime_9N Target_4N GaMIbDL ghafFLk Incongruent left correct Normal 1215.243
504 35 LeftLarger PercIAExp1 Prime_4A Target_6A LeAhcED BgKEMCd Incongruent left error Normal 1496.536
504 36 LeftLarger PercIAExp1 Prime_1A Target_4N midLFch EMIKLjm Congruent right correct Normal 892.9642
504 37 LeftLarger PercIAExp1 Prime_1N Target_1N fACEeHk KMjlihg Congruent left error Normal 751.0253
504 38 LeftLarger PercIAExp1 Prime_6N Target_4A iejakIL kmFLBIf Incongruent left correct Normal 1416.174
504 39 LeftLarger PercIAExp1 Prime_1N Target_1A EDLKICj fIFgjkb Congruent left error Normal 821.6045
504 40 LeftLarger PercIAExp1 Prime_4N Target_1N FcbfkJi EcCLmal Congruent left error Normal 892.814
504 41 LeftLarger PercIAExp1 Prime_6N Target_1N jGfALKI bfdgjmC Incongruent right error Normal 1008.477
504 42 LeftLarger PercIAExp1 Prime_6A Target_9N AhlgCkd JDahBkj Congruent left correct Normal 1107.018
504 43 LeftLarger PercIAExp1 Prime_9A Target_9A emhGgLi mklDMGf Congruent left correct Normal 988.0605
504 44 LeftLarger PercIAExp1 Prime_1N Target_6N AlMbfkd kEjMGiC Incongruent right correct Normal 781.968
504 45 LeftLarger PercIAExp1 Prime_9A Target_4A HMghkIm GLmhHbg Incongruent left correct Normal 793.5441
504 46 LeftLarger PercIAExp1 Prime_6N Target_1A MgLeClb MDFcCGm Incongruent left correct Normal 1448.7
504 47 LeftLarger PercIAExp1 Prime_4N Target_1A cMgeCiG clBGimM Congruent left error Normal 939.5639
504 48 LeftLarger PercIAExp1 Prime_9A Target_9N KmiAEgd KIbJMBk Congruent right error Normal 1457.185
504 49 LeftLarger PercIAExp1 Prime_9N Target_6A jLClIKd mabFlfJ Congruent left correct Normal 1296.377
504 50 LeftLarger PercIAExp1 Prime_9A Target_1A KFhEgCL lFDbLdE Incongruent left correct Normal 1117.254
504 51 LeftLarger PercIAExp1 Prime_6A Target_4A jIGdBAL HicjGak Incongruent left correct Normal 1417.844
504 52 LeftLarger PercIAExp1 Prime_6N Target_6A mJcBEDb kDLjdcI Congruent left correct Normal 839.7666
504 53 LeftLarger PercIAExp1 Prime_4N Target_4A cMIlALb CEdImiB Congruent right correct Normal 1809.184
504 54 LeftLarger PercIAExp1 Prime_6N Target_6N cjGBmab JmGeclL Congruent right error Normal 1305.633
504 55 LeftLarger PercIAExp1 Prime_1N Target_4A aigGBbk gKeflhF Congruent left error Normal 890.9517
504 56 LeftLarger PercIAExp1 Prime_4N Target_9A MlDehAd BLcahiJ Incongruent left error Normal 1250.269
504 57 LeftLarger PercIAExp1 Prime_6A Target_1N faAMDkm EeGAbMd Incongruent right error Normal 1007.438
504 58 LeftLarger PercIAExp1 Prime_6A Target_6A lkIhmfA HGlLKJF Congruent left correct Normal 942.5118
504 59 LeftLarger PercIAExp1 Prime_9A Target_6N DajMicJ aHmJfjM Congruent right error Normal 1060.903
504 60 LeftLarger PercIAExp1 Prime_9N Target_9A EmDICck diKcGIm Congruent left correct Normal 1215.814
504 61 LeftLarger PercIAExp1 Prime_1A Target_1N MhKDfka dELDBGl Congruent left error Normal 988.257
504 62 LeftLarger PercIAExp1 Prime_9N Target_4A EeilcJA fElJaeA Incongruent right error Normal 1516.795
504 63 LeftLarger PercIAExp1 Prime_9A Target_1N iaedDgm ljbFJHL Incongruent left correct Normal 1444.488
504 64 LeftLarger PercIAExp1 Prime_1A Target_9A IkdceKL bHkDAJh Incongruent left error Normal 961.6945
504 65 LeftLarger PercIAExp1 Prime_4N Target_6N dmClcAi iegdAFJ Incongruent right correct Normal 1084.708
504 66 LeftLarger PercIAExp1 Prime_6A Target_1A iILAeMF HFeaMhk Incongruent left correct Normal 922.1258
504 67 LeftLarger PercIAExp1 Prime_9A Target_4N gaIiBbH BbkDKjM Incongruent left correct Normal 983.3439
504 68 LeftLarger PercIAExp1 Prime_6N Target_4N DhHJbEB FgHkLeK Incongruent left correct Normal 925.8748
504 69 LeftLarger PercIAExp1 Prime_6A Target_9A AjFiEle ehCmfHA Congruent right error Normal 848.061
504 70 LeftLarger PercIAExp1 Prime_6A Target_4N ICBMjFg bdJHfiD Incongruent left correct Normal 929.3416
504 71 LeftLarger PercIAExp1 Prime_4N Target_4N ICEGekF HkbiMFI Congruent right correct Normal 1356.795
504 72 LeftLarger PercIAExp1 Prime_9N Target_1N fFHhdkl kMAlJGH Incongruent right error Normal 1185.586
504 73 LeftLarger PercIAExp1 Prime_1N Target_6A JIKjCEB egFhmKl Incongruent right correct Normal 1139.76
504 74 LeftLarger PercIAExp1 Prime_4A Target_6N idGIcMk ACLGbal Incongruent right correct Normal 945.33
504 75 LeftLarger PercIAExp1 Prime_1A Target_9N jChmcJg jibAdIa Incongruent right correct Normal 1204.117
504 76 LeftLarger PercIAExp1 Prime_1A Target_6N LFDMCmh mfljHDL Incongruent right correct Normal 856.0456
504 77 LeftLarger PercIAExp1 Prime_9N Target_9N jEAkhDJ JacKBmE Congruent left correct Normal 886.7073
504 78 LeftLarger PercIAExp1 Prime_4N Target_6A aIMABCK BgkGEeD Incongruent right correct Normal 1559.328
504 79 LeftLarger PercIAExp1 Prime_6A Target_6N idCJAEf CFahAKk Congruent right error Normal 903.3999
504 80 LeftLarger PercIAExp1 Prime_6N Target_9N EHMiJBa lgHjciF Congruent right error Normal 1100.484
504 81 LeftSmaller PercIBPrac Prime_9A Target_6A KGcMbIH mCkeagE Congruent right correct Normal 1407.56
504 82 LeftSmaller PercIBPrac Prime_9A Target_1N IejLaDd kiClbgJ Incongruent right correct Normal 1520.976
504 83 LeftSmaller PercIBPrac Prime_6N Target_6A IhBMjEk iGcBLkM Congruent left error Normal 909.5287
504 84 LeftSmaller PercIBPrac Prime_4A Target_1N MjIEcHh LibKBfd Congruent left correct Normal 1260.814
504 85 LeftSmaller PercIBPrac Prime_9A Target_4A EAFMJIh KcahCfD Incongruent right correct Normal 943.7696
504 86 LeftSmaller PercIBPrac Prime_4N Target_4N gkdGMCF mHMClBE Congruent right error Normal 1203.264
504 87 LeftSmaller PercIBPrac Prime_4N Target_4A mljbkCD IgKdHeC Congruent right error Normal 1114.739
504 88 LeftSmaller PercIBPrac Prime_1N Target_1A BMgCALc DelaGfb Congruent left correct Normal 1296.191
504 89 LeftSmaller PercIBPrac Prime_6A Target_1N lMEILKg HdAfCFJ Incongruent right correct Normal 1088.35
504 90 LeftSmaller PercIBPrac Prime_1A Target_6A cfgeGli MfdBjIh Incongruent right error Normal 851.1013
504 91 LeftSmaller PercIBPrac Prime_4N Target_6A DgblJHh IljKCJM Incongruent left correct Normal 834.4596
504 92 LeftSmaller PercIBPrac Prime_9N Target_9N AGiCaLJ EHcGkiC Congruent right correct Normal 1196.737
504 93 LeftSmaller PercIBPrac Prime_1A Target_6N amlJhgH kaLHFhK Incongruent left correct Normal 841.4489
504 94 LeftSmaller PercIBPrac Prime_1A Target_1A JBIEmCD MhiLBmc Congruent left correct Normal 914.9917
504 95 LeftSmaller PercIBPrac Prime_4A Target_9A daKFjAc MfJkaeb Incongruent left correct Normal 931.4067
504 96 LeftSmaller PercIBPrac Prime_1N Target_4N JAlchiG EaADBeC Congruent right error Normal 895.5838
504 97 LeftSmaller PercIBExp1 Prime_1A Target_9N fDjaLig Imaeflc Incongruent left correct Normal 792.7748
504 98 LeftSmaller PercIBExp1 Prime_4A Target_1N AKEMJBh HdGcliF Congruent left correct Normal 997.9526
504 99 LeftSmaller PercIBExp1 Prime_9A Target_6N ecldJjF BLDEkfb Congruent left error Normal 1030.599
504 100 LeftSmaller PercIBExp1 Prime_6A Target_1A figlMIh FdjCKeh Incongruent right correct Normal 1004.763
504 101 LeftSmaller PercIBExp1 Prime_4A Target_6A djeJgIb aijdcMg Incongruent left correct Normal 909.1099
504 102 LeftSmaller PercIBExp1 Prime_1N Target_1A dkGDMhB GbiCKBM Congruent right error Normal 785.8914
504 103 LeftSmaller PercIBExp1 Prime_1A Target_1A hKIjebc fKJalFh Congruent right error Normal 1029.815
504 104 LeftSmaller PercIBExp1 Prime_1N Target_4A dhDalAC gCbHIDF Congruent left correct Normal 1389.681
504 105 LeftSmaller PercIBExp1 Prime_4N Target_6N beJaBfj EadCgmi Incongruent left correct Normal 836.7526
504 106 LeftSmaller PercIBExp1 Prime_1N Target_6A KfelFdL KLlHghd Incongruent left correct Normal 752.0833
504 107 LeftSmaller PercIBExp1 Prime_9N Target_9N acgHAil FhLiKla Congruent right correct Normal 803.3173
504 108 LeftSmaller PercIBExp1 Prime_1A Target_4A dAlfHih KmJaHgl Congruent left correct Normal 1248.269
504 109 LeftSmaller PercIBExp1 Prime_6N Target_6A KiAkGHM LfFaHId Congruent left error Normal 995.7286
504 110 LeftSmaller PercIBExp1 Prime_1A Target_6N gDIhmBK leLdiCg Incongruent left correct Normal 901.4074
504 111 LeftSmaller PercIBExp1 Prime_1A Target_4N DkjfLMb LdHklFC Congruent right error Normal 918.9698
504 112 LeftSmaller PercIBExp1 Prime_9A Target_1A EAmMFGd MJdlAhE Incongruent right correct Normal 1054.645
504 113 LeftSmaller PercIBExp1 Prime_4A Target_1A emaKALE AcfLkGi Congruent right error Normal 1130.69
504 114 LeftSmaller PercIBExp1 Prime_6N Target_9N dDKlMah fFIBDaK Congruent left error Normal 983.5903
504 115 LeftSmaller PercIBExp1 Prime_4A Target_4N BCHhjIG dAHcDlL Congruent right error Normal 1285.296
504 116 LeftSmaller PercIBExp1 Prime_1A Target_9A bfAFeCH AkeJcaj Incongruent right error Normal 1772.705
504 117 LeftSmaller PercIBExp1 Prime_6N Target_4N mFiebMl mCFIBJk Incongruent right correct Normal 1996.351
504 118 LeftSmaller PercIBExp1 Prime_4A Target_9A FfAhidj alGAKgC Incongruent left correct Normal 1010.582
504 119 LeftSmaller PercIBExp1 Prime_6A Target_9A lJAKDfM gcEIiMG Congruent right correct Normal 1165.426
504 120 LeftSmaller PercIBExp1 Prime_1N Target_1N lDjhFKe HfALghJ Congruent right error Normal 1281.323
504 121 LeftSmaller PercIBExp1 Prime_6N Target_9A HIgKehD iMcJlmb Congruent right correct Normal 1427.945
504 122 LeftSmaller PercIBExp1 Prime_9N Target_1N LckBfbl glfJCLF Incongruent right correct Normal 879.5689
504 123 LeftSmaller PercIBExp1 Prime_6N Target_4A IjaKEJF adAlDHL Incongruent left error Normal 823.6938
504 124 LeftSmaller PercIBExp1 Prime_9A Target_6A ildDeIj CgGjHME Congruent right correct Normal 716.297
504 125 LeftSmaller PercIBExp1 Prime_4N Target_4A gmHafJK aeLHmGb Congruent left correct Normal 1253.469
504 126 LeftSmaller PercIBExp1 Prime_4N Target_9N gjBaMhJ MfFdDci Incongruent left correct Normal 852.642
504 127 LeftSmaller PercIBExp1 Prime_6A Target_9N cmdFhHM KMjHDdk Congruent left error Normal 730.6901
504 128 LeftSmaller PercIBExp1 Prime_4N Target_4N BdhKJLg BAcMJEF Congruent right error Normal 835.2306
504 129 LeftSmaller PercIBExp1 Prime_1N Target_6N keKBiDf LlibJEH Incongruent left correct Normal 1370.17
504 130 LeftSmaller PercIBExp1 Prime_6N Target_6N JMbFDhK kDjAedJ Congruent left error Normal 839.8355
504 131 LeftSmaller PercIBExp1 Prime_1A Target_6A IkbMjLa AaIHmEe Incongruent right error Normal 830.8979
504 132 LeftSmaller PercIBExp1 Prime_6A Target_4N dGmFJjh fIAMlbH Incongruent left error Normal 877.0635
504 133 LeftSmaller PercIBExp1 Prime_9N Target_6A hMHKkLB BimgFHE Congruent right correct Normal 1616.231
504 134 LeftSmaller PercIBExp1 Prime_6A Target_1N iGdcbJC GCBlikA Incongruent left error Normal 824.1756
504 135 LeftSmaller PercIBExp1 Prime_4A Target_6N LiEKjBC BIeKihg Incongruent left correct Normal 1275.295
504 136 LeftSmaller PercIBExp1 Prime_1N Target_4N jiMdBgb HhIAaeB Congruent right error Normal 885.509
504 137 LeftSmaller PercIBExp1 Prime_4A Target_4A BJMkfcg AkKJidb Congruent right error Normal 1407.51
504 138 LeftSmaller PercIBExp1 Prime_6A Target_4A KLBjmIi jEIDLmM Incongruent right correct Normal 967.1224
504 139 LeftSmaller PercIBExp1 Prime_6A Target_6A ILDBcJl HajiIEF Congruent left error Normal 1582.799
504 140 LeftSmaller PercIBExp1 Prime_9A Target_4N BEahMeb IFDGAdk Incongruent right correct Normal 933.9797
504 141 LeftSmaller PercIBExp1 Prime_4N Target_9A CFLGJfk IBJEekH Incongruent left correct Normal 973.7783
504 142 LeftSmaller PercIBExp1 Prime_1N Target_9A feIFGml EClfdMi Incongruent right error Normal 1039.969
504 143 LeftSmaller PercIBExp1 Prime_6A Target_6N DHmGaKF FKCkIeM Congruent left error Normal 1405.4
504 144 LeftSmaller PercIBExp1 Prime_6N Target_1A GbEDKHa dLEJHDB Incongruent right correct Normal 670.0383
504 145 LeftSmaller PercIBExp1 Prime_9A Target_4A HihGBbg mfJlMHD Incongruent right correct Normal 965.3544
504 146 LeftSmaller PercIBExp1 Prime_9A Target_9A MdJCcFi iHgkfmj Congruent left error Normal 1209.08
504 147 LeftSmaller PercIBExp1 Prime_4N Target_1A cBCbMHh hmjaILG Congruent right error Normal 1250.663
504 148 LeftSmaller PercIBExp1 Prime_4N Target_6A AFdMkCb cGdkjLm Incongruent left correct Normal 775.5191
504 149 LeftSmaller PercIBExp1 Prime_9N Target_9A hdMcEGe dGhcDHB Congruent left error Normal 1158.828
504 150 LeftSmaller PercIBExp1 Prime_9N Target_4A ecMJFfa FMebaCh Incongruent right correct Normal 953.6145
504 151 LeftSmaller PercIBExp1 Prime_9N Target_1A FKeafkM AjmDFIh Incongruent left error Normal 1105.167
504 152 LeftSmaller PercIBExp1 Prime_6N Target_1N EFLejHh IdMCAKa Incongruent right correct Normal 807.8231
504 153 LeftSmaller PercIBExp1 Prime_9A Target_1N bILGMfl kbDEMmj Incongruent left error Normal 1022.945
504 154 LeftSmaller PercIBExp1 Prime_4A Target_9N cHCJFMj bcKLAaF Incongruent right error Normal 561.5639
504 155 LeftSmaller PercIBExp1 Prime_1A Target_1N FIKadDB dbeEfGC Congruent left correct Normal 961.8605
504 156 LeftSmaller PercIBExp1 Prime_9A Target_9N DKIBJAd IkmeFAj Congruent right correct Normal 1902.016
504 157 LeftSmaller PercIBExp1 Prime_4N Target_1N iLJeKDA gEBFbcA Congruent right error Normal 1576.586
504 158 LeftSmaller PercIBExp1 Prime_1N Target_9N aKjiLfl KfiCMFJ Incongruent left correct Normal 859.7941
504 159 LeftSmaller PercIBExp1 Prime_9N Target_6N IfCAcgk mKCaliH Congruent left error Normal 1033.095
504 160 LeftSmaller PercIBExp1 Prime_9N Target_4N DFihKAE iFLIBeb Incongruent right correct Normal 657.6177
505 1 LeftLarger PercIAPrac Prime_4N Target_1A ADcFgMl jmgkCDE Congruent left error Normal 1224.604
505 2 LeftLarger PercIAPrac Prime_6A Target_9A KaBJfld FEHiAmJ Congruent left correct Normal 590.4145
505 3 LeftLarger PercIAPrac Prime_6A Target_6N fjgahbk fDFIGAH Congruent right error Normal 830.7049
505 4 LeftLarger PercIAPrac Prime_6A Target_6A IaciDCJ gEFLGhl Congruent left correct Normal 722.1196
505 5 LeftLarger PercIAPrac Prime_6N Target_9N FaCJfKj mEbLjJl Congruent right error Normal 1162.919
505 6 LeftLarger PercIAPrac Prime_9N Target_9A mcjBlgI bFJiMjD Congruent left correct Normal 660.6094
505 7 LeftLarger PercIAPrac Prime_4A Target_6N mEdCikD dibFcjI Incongruent right correct Normal 877.2473
505 8 LeftLarger PercIAPrac Prime_4N Target_4N eJjmBcH HAIBkeM Congruent left error Normal 935.9431
505 9 LeftLarger PercIAPrac Prime_4N Target_1N gdjCJKi IfiGLKk Congruent right correct Normal 794.9986
505 10 LeftLarger PercIAPrac Prime_9N Target_1A CiBfhmg lDFGmBi Incongruent left correct Normal 1125.869
505 11 LeftLarger PercIAPrac Prime_4N Target_9N IdAfeHJ cifLBdl Incongruent left error Normal 1197.223
505 12 LeftLarger PercIAPrac Prime_9N Target_4A BheEIJj daEIDCi Incongruent left correct Normal 951.1851
505 13 LeftLarger PercIAPrac Prime_6A Target_4A GMflmDg JBEkibL Incongruent right error Normal 996.319
505 14 LeftLarger PercIAPrac Prime_1A Target_1A kBMAClh jLaiMAE Congruent left error Normal 986.5659
505 15 LeftLarger PercIAPrac Prime_6N Target_6A blGdkEf fcMIJHL Congruent left correct Normal 1112.532
505 16 LeftLarger PercIAPrac Prime_1N Target_1A MeGEIif mAbfHLJ Congruent left error Normal 1141.348
505 17 LeftLarger PercIAExp1 Prime_9A Target_1N MKeglbL dfBLCiA Incongruent right error Normal 736.1064
505 18 LeftLarger PercIAExp1 Prime_6A Target_6N AcgiCmk ECFKkAM Congruent left correct Normal 614.2793
505 19 LeftLarger PercIAExp1 Prime_9N Target_9N gLijEhk GdjHhmB Congruent left correct Normal 567.4515
505 20 LeftLarger PercIAExp1 Prime_4A Target_4A AIhLmDj aFmbjel Congruent left error Normal 1053.734
505 21 LeftLarger PercIAExp1 Prime_6N Target_9A mJeCGiM hIHKFkM Congruent left correct Normal 972.3552
505 22 LeftLarger PercIAExp1 Prime_6A Target_1N iADKbjF LKeiCfm Incongruent left correct Normal 1291.191
505 23 LeftLarger PercIAExp1 Prime_9N Target_4N EgCkDcf BhKgAcf Incongruent right error Normal 598.2593
505 24 LeftLarger PercIAExp1 Prime_9A Target_6A icLhaIe lcBfjMI Congruent left correct Normal 914.0778
505 25 LeftLarger PercIAExp1 Prime_4N Target_1N HjEDekK AEdegLC Congruent right correct Normal 835.8443
505 26 LeftLarger PercIAExp1 Prime_4N Target_4N GeglmbA cGHChBa Congruent left error Normal 838.4074
505 27 LeftLarger PercIAExp1 Prime_6N Target_1N CdlKIaE BaDJlAE Incongruent left correct Normal 778.0608
505 28 LeftLarger PercIAExp1 Prime_4A Target_6N CMEKaBL iBcFMlg Incongruent left error Normal 1388.488
505 29 LeftLarger PercIAExp1 Prime_9N Target_1N eJgIakE CiEKgIc Incongruent right error Normal 512.1701
505 30 LeftLarger PercIAExp1 Prime_9N Target_6N GbhLEik fFkjJiG Congruent right error Normal 848.843
505 31 LeftLarger PercIAExp1 Prime_6N Target_4N EACdBhf fKdMceC Incongruent left correct Normal 1082.205
505 32 LeftLarger PercIAExp1 Prime_4A Target_9N aCGjgbF DAdJlCa Incongruent left error Normal 838.6763
505 33 LeftLarger PercIAExp1 Prime_6A Target_9A gBjDeFC KGCaEmh Congruent left correct Normal 1039.708
505 34 LeftLarger PercIAExp1 Prime_9A Target_4N jBDCFLK jcgDKBd Incongruent right error Normal 692.7641
505 35 LeftLarger PercIAExp1 Prime_1A Target_1N lkidBcH JfLkDFi Congruent right correct Normal 605.5912
505 36 LeftLarger PercIAExp1 Prime_6A Target_1A DgJHKEd FehCbJE Incongruent left correct Normal 720.8848
505 37 LeftLarger PercIAExp1 Prime_9N Target_1A dMfDega aeLkcKf Incongruent right error Normal 911.9216
505 38 LeftLarger PercIAExp1 Prime_1A Target_1A dEgCKMf bLHBdch Congruent left error Normal 892.4731
505 39 LeftLarger PercIAExp1 Prime_9N Target_6A FKfhjBI IFCmHKG Congruent left correct Normal 943.8951
505 40 LeftLarger PercIAExp1 Prime_1N Target_6A LcFaEfh iCJmHaf Incongruent right correct Normal 700.5718
505 41 LeftLarger PercIAExp1 Prime_6A Target_4A HDhIiEL HkmdlMg Incongruent left correct Normal 1090.874
505 42 LeftLarger PercIAExp1 Prime_1A Target_4N eBdiHAI bKJaDlC Congruent right correct Normal 921.4572
505 43 LeftLarger PercIAExp1 Prime_1N Target_4A IkFDghE icEgKIe Congruent left error Normal 1090.083
505 44 LeftLarger PercIAExp1 Prime_1A Target_6N DeBEdlC aIJgEjb Incongruent left error Normal 994.6513
505 45 LeftLarger PercIAExp1 Prime_1A Target_9A fdMaDKj GjDJCAL Incongruent left error Normal 1367.685
505 46 LeftLarger PercIAExp1 Prime_1N Target_6N iAFkhjg hjmECAi Incongruent right correct Normal 783.4575
505 47 LeftLarger PercIAExp1 Prime_6N Target_4A EjlMKkC ehBglMm Incongruent left correct Normal 1228.581
505 48 LeftLarger PercIAExp1 Prime_6A Target_4N ebfMIal jaEcFCK Incongruent left correct Normal 1197.462
505 49 LeftLarger PercIAExp1 Prime_1N Target_1A GjlMkiK cfDEdCK Congruent right correct Normal 760.7893
505 50 LeftLarger PercIAExp1 Prime_4N Target_9N kcijAMh lEHdIak Incongruent left error Normal 949.3255
505 51 LeftLarger PercIAExp1 Prime_9A Target_9A HBFAmLI cDAdChm Congruent right error Normal 1393.12
505 52 LeftLarger PercIAExp1 Prime_6N Target_9N GFmfkjb EfeCHiG Congruent left correct Normal 813.5544
505 53 LeftLarger PercIAExp1 Prime_1N Target_9A faeJHig JGADBlf Incongruent left error Normal 829.92
505 54 LeftLarger PercIAExp1 Prime_1A Target_9N hEjDKAB fCIdFlg Incongruent right correct Normal 1444.535
505 55 LeftLarger PercIAExp1 Prime_1N Target_1N ikCbDML JbDeKmf Congruent left error Normal 1076.433
505 56 LeftLarger PercIAExp1 Prime_6A Target_9N ecIAjKf DfGIMgh Congruent left correct Normal 997.1219
505 57 LeftLarger PercIAExp1 Prime_4N Target_4A iKeDCHI jhmiMca Congruent right correct Normal 1315.877
505 58 LeftLarger PercIAExp1 Prime_6N Target_1A Elkbgdm DFaibhe Incongruent left correct Normal 1252.357
505 59 LeftLarger PercIAExp1 Prime_6A Target_6A jGIbdkf HKGFlED Congruent right error Normal 1169.215
505 60 LeftLarger PercIAExp1 Prime_9N Target_4A ekjClLa cMlkGJj Incongruent left correct Normal 979.7056
505 61 LeftLarger PercIAExp1 Prime_4A Target_1A mMFBECD AIacbeC Congruent left error Normal 1140.547
505 62 LeftLarger PercIAExp1 Prime_4N Target_6N ilmEFID EjGLlai Incongruent right correct Normal 1041.899
505 63 LeftLarger PercIAExp1 Prime_4N Target_1A LBElmig GBkcdbI Congruent right correct Normal 1055.387
505 64 LeftLarger PercIAExp1 Prime_1N Target_9N khJHCaf bkECIBJ Incongruent right correct Normal 910.7902
505 65 LeftLarger PercIAExp1 Prime_9A Target_9N GdbMljg kMijmGC Congruent left correct Normal 707.9883
505 66 LeftLarger PercIAExp1 Prime_9A Target_1A bgCBlID ahgGdCk Incongruent left correct Normal 1118.744
505 67 LeftLarger PercIAExp1 Prime_1N Target_4N jGdfleJ HIMhfDc Congruent left error Normal 722.0486
505 68 LeftLarger PercIAExp1 Prime_1A Target_6A iECBlAD HmMLKEG Incongruent right correct Normal 828.9741
505 69 LeftLarger PercIAExp1 Prime_9A Target_4A KEIJagA bKMchHj Incongruent left correct Normal 796.5561
505 70 LeftLarger PercIAExp1 Prime_4A Target_9A AfJdBCK jdgMIeL Incongruent left error Normal 1003.703
505 71 LeftLarger PercIAExp1 Prime_9A Target_6N DdFBeKE ILeGhfK Congruent left correct Normal 1446.867
505 72 LeftLarger PercIAExp1 Prime_4A Target_6A BHhCDIm kdDJcgE Incongruent left error Normal 958.8032
505 73 LeftLarger PercIAExp1 Prime_4N Target_9A AClmeca mKFIhBi Incongruent right correct Normal 1029.534
505 74 LeftLarger PercIAExp1 Prime_6N Target_6A FajdAml hacAfBK Congruent left correct Normal 1145.361
505 75 LeftLarger PercIAExp1 Prime_9N Target_9A CfjbJFI HmCDcfG Congruent left correct Normal 1001.204
505 76 LeftLarger PercIAExp1 Prime_4A Target_4N ckBleah lJKCmda Congruent right correct Normal 1011.811
505 77 LeftLarger PercIAExp1 Prime_1A Target_4A ceDCMjA eIFlAkm Congruent left error Normal 789.3211
505 78 LeftLarger PercIAExp1 Prime_4A Target_1N HAhfEBk kalDmbM Congruent right correct Normal 831.0244
505 79 LeftLarger PercIAExp1 Prime_4N Target_6A mLGlBFe AbBjeCh Incongruent left error Normal 922.7951
505 80 LeftLarger PercIAExp1 Prime_6N Target_6N dAeHifM HemAhfC Congruent right error Normal 1278.213
505 81 LeftSmaller PercIBPrac Prime_6N Target_9N FcCJgHf IkKlgHj Congruent right correct Normal 762.7827
505 82 LeftSmaller PercIBPrac Prime_1N Target_9A cbdlkDg KhJclej Incongruent right error Normal 1262.202
505 83 LeftSmaller PercIBPrac Prime_9N Target_4N aLkbCDG IDheKBi Incongruent left error Normal 595.6324
505 84 LeftSmaller PercIBPrac Prime_1N Target_1A IiGLdlB LdGfjlm Congruent right error Normal 1012.55
505 85 LeftSmaller PercIBPrac Prime_6N Target_9A McgifEb cemLjlD Congruent left error Normal 942.3565
505 86 LeftSmaller PercIBPrac Prime_6A Target_9A fMJgLeb cJMHBhe Congruent left error Normal 805.488
505 87 LeftSmaller PercIBPrac Prime_1A Target_9N aiLlhbG DKHiMCA Incongruent right error Normal 928.5344
505 88 LeftSmaller PercIBPrac Prime_4A Target_1N HMfFiDB JjeakEi Congruent right error Normal 829.1227
505 89 LeftSmaller PercIBPrac Prime_4A Target_4A daLKIEH eJbdaBE Congruent left correct Normal 995.1462
505 90 LeftSmaller PercIBPrac Prime_4N Target_9N JbgkiDh GHKBILk Incongruent right error Normal 1050.189
505 91 LeftSmaller PercIBPrac Prime_9N Target_4A jcEMaIF iCgfALH Incongruent right correct Normal 1045.597
505 92 LeftSmaller PercIBPrac Prime_9A Target_1A fELmKbl cHKkbdl Incongruent right correct Normal 803.4494
505 93 LeftSmaller PercIBPrac Prime_6N Target_4N BeMAJDh FAkDaMf Incongruent right correct Normal 811.91
505 94 LeftSmaller PercIBPrac Prime_4N Target_4N fIgeHFD JmCFElI Congruent left correct Normal 886.2859
505 95 LeftSmaller PercIBPrac Prime_4A Target_4N IADmHEf HDlGLma Congruent left correct Normal 794.5935
505 96 LeftSmaller PercIBPrac Prime_9A Target_9N fJjaHGC FDCGAMf Congruent right correct Normal 1370.016
505 97 LeftSmaller PercIBExp1 Prime_6N Target_9A mleBDbA kgEeAIH Congruent right correct Normal 751.5454
505 98 LeftSmaller PercIBExp1 Prime_9A Target_1N IdDGKFA kfDMFBm Incongruent left error Normal 1300.965
505 99 LeftSmaller PercIBExp1 Prime_1A Target_9A eiEKFBa EcgfhAK Incongruent right error Normal 807.0362
505 100 LeftSmaller PercIBExp1 Prime_4N Target_9A EcMLAJh bCAFEHh Incongruent right error Normal 679.7957
505 101 LeftSmaller PercIBExp1 Prime_4N Target_9N kdaJBhb CljcebJ Incongruent right error Normal 832.9205
505 102 LeftSmaller PercIBExp1 Prime_6A Target_6A ebidAEl GLafhdb Congruent left error Normal 958.6681
505 103 LeftSmaller PercIBExp1 Prime_1A Target_9N miJbaDl KMBGjiE Incongruent right error Normal 1198.831
505 104 LeftSmaller PercIBExp1 Prime_1A Target_6A fJdFEKM jIHhifM Incongruent right error Normal 1113.575
505 105 LeftSmaller PercIBExp1 Prime_9N Target_6N HMlcAFk ChEbLeD Congruent right correct Normal 1187.304
505 106 LeftSmaller PercIBExp1 Prime_1N Target_6N bIdGgmK lEeCfIc Incongruent left correct Normal 753.5031
505 107 LeftSmaller PercIBExp1 Prime_4N Target_6A ifBcjAk EBcFkfa Incongruent right error Normal 656.9078
505 108 LeftSmaller PercIBExp1 Prime_4A Target_6A DhaAgFB fkiFmEH Incongruent right error Normal 1276.586
505 109 LeftSmaller PercIBExp1 Prime_1A Target_4A iLjmMGf dAIHeFi Congruent left correct Normal 1662.379
505 110 LeftSmaller PercIBExp1 Prime_9N Target_9A DKBmFGI CjmKLhg Congruent right correct Normal 1374.943
505 111 LeftSmaller PercIBExp1 Prime_6N Target_1A HmMkchf EHMiKjD Incongruent left error Normal 1619.376
505 112 LeftSmaller PercIBExp1 Prime_1A Target_1N lBiJekj GHFKcJC Congruent right error Normal 1598.688
505 113 LeftSmaller PercIBExp1 Prime_6A Target_4A aCickdH CKahALi Incongruent left error Normal 1231.706
505 114 LeftSmaller PercIBExp1 Prime_6A Target_9N bkLCEij eDjKikc Congruent right correct Normal 974.061
505 115 LeftSmaller PercIBExp1 Prime_1A Target_4N IFcEHGB aBlEGFM Congruent right error Normal 1071.984
505 116 LeftSmaller PercIBExp1 Prime_4N Target_1A dLCFkMH ClaEfMj Congruent left correct Normal 1506.222
505 117 LeftSmaller PercIBExp1 Prime_4A Target_4N GChBHKg LEIldBc Congruent right error Normal 1383.403
505 118 LeftSmaller PercIBExp1 Prime_1N Target_9A FdamLhD fDimEKJ Incongruent left correct Normal 1336.485
505 119 LeftSmaller PercIBExp1 Prime_9N Target_4N KgCIHab BmGKdCJ Incongruent right correct Normal 1380.447
505 120 LeftSmaller PercIBExp1 Prime_1N Target_4A aKIlFAe BkgejAC Congruent left correct Normal 1771.372
505 121 LeftSmaller PercIBExp1 Prime_9A Target_4A dJaDbci IAhJEim Incongruent right correct Normal 1514.188
505 122 LeftSmaller PercIBExp1 Prime_9A Target_1A EFAeLkb cKbILMA Incongruent right correct Normal 1320.617
505 123 LeftSmaller PercIBExp1 Prime_9N Target_1A ebMLCJF hgCfBFG Incongruent right correct Normal 1749.499
505 124 LeftSmaller PercIBExp1 Prime_6N Target_6A cDmfFGB LCbJIEe Congruent right correct Normal 1602.991
505 125 LeftSmaller PercIBExp1 Prime_9A Target_9A lihIJAf LjHemFK Congruent left error Normal 1339.369
505 126 LeftSmaller PercIBExp1 Prime_9A Target_4N mfjhiAg kiMDFLf Incongruent right correct Normal 1354.727
505 127 LeftSmaller PercIBExp1 Prime_4A Target_1N mKAlkgc MGJBlCF Congruent left correct Normal 1376.864
505 128 LeftSmaller PercIBExp1 Prime_9N Target_6A AKEjFiH KdBcGAm Congruent left error Normal 1466.864
505 129 LeftSmaller PercIBExp1 Prime_4A Target_6N BEbCMjA GcBCfLj Incongruent left correct Normal 1646.907
505 130 LeftSmaller PercIBExp1 Prime_9A Target_6A IfjgbAc mBhMJGg Congruent right correct Normal 968.5642
505 131 LeftSmaller PercIBExp1 Prime_4A Target_9A BAICbah hgJHefA Incongruent right error Normal 949.7297
505 132 LeftSmaller PercIBExp1 Prime_9A Target_6N kKlDgGc fAELCFI Congruent left error Normal 1005.073
505 133 LeftSmaller PercIBExp1 Prime_1N Target_1A LbIeJmC ehaikAL Congruent right error Normal 909.6
505 134 LeftSmaller PercIBExp1 Prime_6N Target_4N aLJfGDM iLjEaHd Incongruent left error Normal 1501.039
505 135 LeftSmaller PercIBExp1 Prime_1N Target_9N HhlKcgd DbkhKfe Incongruent left correct Normal 1337.983
505 136 LeftSmaller PercIBExp1 Prime_1N Target_1N hemcDIj AfhaBeG Congruent right error Normal 785.4403
505 137 LeftSmaller PercIBExp1 Prime_9N Target_1N chAJdjk aJGEmiL Incongruent right correct Normal 1598.281
505 138 LeftSmaller PercIBExp1 Prime_6A Target_6N LgJKGMB JADGmEI Congruent left error Normal 1366.3
505 139 LeftSmaller PercIBExp1 Prime_4A Target_4A FCKDJLk dKMDgkI Congruent right error Normal 1549.813
505 140 LeftSmaller PercIBExp1 Prime_6A Target_9A dCheFgk GBjKJiL Congruent right correct Normal 1515.657
505 141 LeftSmaller PercIBExp1 Prime_9A Target_9N hKFgCIf gljHimc Congruent left error Normal 943.5781
505 142 LeftSmaller PercIBExp1 Prime_4N Target_6N LKBlkcm IghmGFJ Incongruent right error Normal 973.0146
505 143 LeftSmaller PercIBExp1 Prime_1N Target_4N AHMdmcE decBjgF Congruent right error Normal 1085.79
505 144 LeftSmaller PercIBExp1 Prime_4A Target_9N GaLCieF gCMhDEa Incongruent right error Normal 1221.226
505 145 LeftSmaller PercIBExp1 Prime_9N Target_4A CFmkdKe AgLmHdF Incongruent left error Normal 786.294
505 146 LeftSmaller PercIBExp1 Prime_1A Target_6N jHcflLF lhbcaJg Incongruent left correct Normal 1316.452
505 147 LeftSmaller PercIBExp1 Prime_9N Target_9N hiclGMg ICMbKJD Congruent right correct Normal 900.1572
505 148 LeftSmaller PercIBExp1 Prime_1N Target_6A DfFLeiH BgmifGJ Incongruent right error Normal 1168.799
505 149 LeftSmaller PercIBExp1 Prime_6N Target_6N jBheJKG mBAMLaH Congruent left error Normal 867.1343
505 150 LeftSmaller PercIBExp1 Prime_6N Target_4A GgIdEJD gjLKcad Incongruent left error Normal 1018.148
505 151 LeftSmaller PercIBExp1 Prime_4N Target_4N fdlHicE fkbEHhd Congruent left correct Normal 1093.855
505 152 LeftSmaller PercIBExp1 Prime_4A Target_1A akeLHAF IljiMfJ Congruent right error Normal 939.5874
505 153 LeftSmaller PercIBExp1 Prime_6A Target_1N LlDGhjA imbJAKE Incongruent left error Normal 986.1746
505 154 LeftSmaller PercIBExp1 Prime_4N Target_1N mFhlLiD JdciKkM Congruent right error Normal 730.1212
505 155 LeftSmaller PercIBExp1 Prime_6N Target_9N AImCkME ElADhKi Congruent left error Normal 1038.655
505 156 LeftSmaller PercIBExp1 Prime_4N Target_4A AHGCgLh CAELcdG Congruent right error Normal 938.7037
505 157 LeftSmaller PercIBExp1 Prime_1A Target_1A KmHMaBe gMlIjiK Congruent right error Normal 802.1417
505 158 LeftSmaller PercIBExp1 Prime_6N Target_1N EIJhKMf KGFkLAB Incongruent right correct Normal 1153.176
505 159 LeftSmaller PercIBExp1 Prime_6A Target_1A kaKlFIH KacMgFb Incongruent right correct Normal 1318.345
505 160 LeftSmaller PercIBExp1 Prime_6A Target_4N KEiCgmA GDHdCMB Incongruent left error Normal 1005.017
506 1 LeftLarger PercIAPrac Prime_4N Target_1N CjKHMdA ckELiKh Congruent left error Normal 544.1198
506 2 LeftLarger PercIAPrac Prime_1N Target_4N IkfhaKA AHjlice Congruent right correct Normal 967.593
506 3 LeftLarger PercIAPrac Prime_6A Target_4A fDBChlG LgkGAaH Incongruent left correct Normal 971.2708
506 4 LeftLarger PercIAPrac Prime_1A Target_6A FhAfdeI BdMHFlj Incongruent left error Normal 1099.92
506 5 LeftLarger PercIAPrac Prime_4N Target_4N ElKDjbG aeKEABc Congruent right correct Normal 772.3826
506 6 LeftLarger PercIAPrac Prime_9A Target_6A dcEaFHb leCmMjE Congruent right error Normal 1045.528
506 7 LeftLarger PercIAPrac Prime_9A Target_1A cIjAbkG EfhBgAm Incongruent right error Normal 1331.702
506 8 LeftLarger PercIAPrac Prime_9N Target_6A jKHbIch CLkcMie Congruent left correct Normal 1085.858
506 9 LeftLarger PercIAPrac Prime_9A Target_9A gjmiEJl GHBgbIi Congruent left correct Normal 1535.551
506 10 LeftLarger PercIAPrac Prime_1N Target_6A DfKdEha HlmLbhE Incongruent left error Normal 2469.266
506 11 LeftLarger PercIAPrac Prime_6N Target_4N iFkcEHg FEHleMh Incongruent left correct Normal 793.4813
506 12 LeftLarger PercIAPrac Prime_1N Target_6N BCimfkH bEeLIFJ Incongruent right correct Normal 1496.402
506 13 LeftLarger PercIAPrac Prime_9A Target_9N dEhLKIm JcmBhME Congruent right error Normal 1972.038
506 14 LeftLarger PercIAPrac Prime_6A Target_6N fkjBMDK IjkKlfG Congruent left correct Normal 2084.774
506 15 LeftLarger PercIAPrac Prime_4A Target_4A EakBAfH DIkihBK Congruent left error Normal 1834.953
506 16 LeftLarger PercIAPrac Prime_1A Target_1N DCHdAEj LjCDfBc Congruent left error Normal 1623.771
506 17 LeftLarger PercIAExp1 Prime_1N Target_4A gGlbMBk LfgdhaC Congruent left error Normal 773.4943
506 18 LeftLarger PercIAExp1 Prime_1A Target_4N GMaKgeD LMcIHDE Congruent left error Normal 1235.71
506 19 LeftLarger PercIAExp1 Prime_9N Target_1A KhAacCi agMjGFl Incongruent right error Normal 2069.68
506 20 LeftLarger PercIAExp1 Prime_9A Target_4N dDKIhLJ mEIDlGj Incongruent left correct Normal 1298.004
506 21 LeftLarger PercIAExp1 Prime_1A Target_4A LeaJAMK jdEFkKm Congruent left error Normal 1551.07
506 22 LeftLarger PercIAExp1 Prime_6N Target_1A GijKHaM eBdlJjC Incongruent left correct Normal 1170.872
506 23 LeftLarger PercIAExp1 Prime_6N Target_1N cfBJHMC dKHecEf Incongruent left correct Normal 2345.007
506 24 LeftLarger PercIAExp1 Prime_6A Target_9A gjKmDfM bCMiFam Congruent right error Normal 1611.997
506 25 LeftLarger PercIAExp1 Prime_1N Target_9N jacHkie HeGkIgc Incongruent right correct Normal 2515.499
506 26 LeftLarger PercIAExp1 Prime_9A Target_6A CBfaKmJ kljgeBD Congruent left correct Normal 1200.165
506 27 LeftLarger PercIAExp1 Prime_6N Target_6A iHbcmhj lADiJmH Congruent left correct Normal 1239.059
506 28 LeftLarger PercIAExp1 Prime_1A Target_1A jedFiJl dMJILDl Congruent left error Normal 1382.991
506 29 LeftLarger PercIAExp1 Prime_6N Target_4A LImBgdM JifchHl Incongruent right error Normal 2431.804
506 30 LeftLarger PercIAExp1 Prime_6N Target_4N jbGClBm LKElkhJ Incongruent left correct Normal 1636.77
506 31 LeftLarger PercIAExp1 Prime_9A Target_4A JIHGdmE BDhElbA Incongruent left correct Normal 1804.57
506 32 LeftLarger PercIAExp1 Prime_6A Target_9N eKAbkhJ lKIAJBa Congruent right error Normal 2218.449
506 33 LeftLarger PercIAExp1 Prime_6N Target_9N LEKAclC klfEaeC Congruent right error Normal 2345.2
506 34 LeftLarger PercIAExp1 Prime_9A Target_9A mLJiaMD jlfBdEb Congruent right error Normal 1341.291
506 35 LeftLarger PercIAExp1 Prime_9N Target_6N dmilHAJ ikGDaIh Congruent right error Normal 1200.332
506 36 LeftLarger PercIAExp1 Prime_4N Target_1A MFgejmi diAeDhH Congruent left error Normal 2343.258
506 37 LeftLarger PercIAExp1 Prime_4A Target_1A JFkcEAh ljMdJfh Congruent right correct Normal 2364.48
506 38 LeftLarger PercIAExp1 Prime_1A Target_9A jHKgdGh LfKgEAd Incongruent right correct Normal 1004.8
506 39 LeftLarger PercIAExp1 Prime_4N Target_1N LKhEBlF CMKJkBd Congruent left error Normal 1880.712
506 40 LeftLarger PercIAExp1 Prime_9A Target_6N mEBfcIe EMaCmei Congruent left correct Normal 2630.399
506 41 LeftLarger PercIAExp1 Prime_4A Target_1N geIacGB LEgDhia Congruent left error Normal 1402.551
506 42 LeftLarger PercIAExp1 Prime_4N Target_9N GDmILkM mJLKkCb Incongruent left error Normal 1203.135
506 43 LeftLarger PercIAExp1 Prime_1A Target_6N BJICjMg kiMAcfH Incongruent left error Normal 1126.863
506 44 LeftLarger PercIAExp1 Prime_4A Target_6N HBkgjKA LBFmMaD Incongruent left error Normal 2489.486
506 45 LeftLarger PercIAExp1 Prime_4A Target_6A bHaBcAC lKemCMc Incongruent right correct Normal 1937.824
506 46 LeftLarger PercIAExp1 Prime_6A Target_1A JKGgfbL FHkeBlG Incongruent left correct Normal 2310.683
506 47 LeftLarger PercIAExp1 Prime_6A Target_6N CjkeahJ Mbcfjik Congruent right error Normal 1063.887
506 48 LeftLarger PercIAExp1 Prime_1A Target_1N JgHALlI cMJAIla Congruent left error Normal 841.0728
506 49 LeftLarger PercIAExp1 Prime_4N Target_4A GBCMJlA BfGFlLc Congruent left error Normal 1325.477
506 50 LeftLarger PercIAExp1 Prime_4A Target_4A aICkemi BhAldmM Congruent left error Normal 1639.219
506 51 LeftLarger PercIAExp1 Prime_1N Target_6N aFKAdbM GmKJgCL Incongruent left error Normal 1899.976
506 52 LeftLarger PercIAExp1 Prime_1N Target_9A bmdCkMl lebikFJ Incongruent right correct Normal 1299.161
506 53 LeftLarger PercIAExp1 Prime_1N Target_4N iFHBCkL bCmLEjJ Congruent left error Normal 1506.463
506 54 LeftLarger PercIAExp1 Prime_4A Target_9A aIJEmFc LBCbAHa Incongruent right correct Normal 1157.903
506 55 LeftLarger PercIAExp1 Prime_6A Target_4A cbKBHFj DhAfgbG Incongruent left correct Normal 1565.588
506 56 LeftLarger PercIAExp1 Prime_4N Target_9A LBEiDdK CaIgLhb Incongruent right correct Normal 1369.754
506 57 LeftLarger PercIAExp1 Prime_9N Target_4N bIJKdFm afCGAmk Incongruent right error Normal 986.9147
506 58 LeftLarger PercIAExp1 Prime_9N Target_4A LcDgJIG JGEMIgf Incongruent left correct Normal 1209.334
506 59 LeftLarger PercIAExp1 Prime_6N Target_6N AlGIjME AjklCLf Congruent right error Normal 2227.407
506 60 LeftLarger PercIAExp1 Prime_6A Target_1N HMEkgIJ ImGgMjl Incongruent right error Normal 1069.004
506 61 LeftLarger PercIAExp1 Prime_1A Target_6A jMgfIGE ikMaJEK Incongruent right correct Normal 1917.895
506 62 LeftLarger PercIAExp1 Prime_6A Target_6A bGHhgIC aLIfKEi Congruent right error Normal 999.5423
506 63 LeftLarger PercIAExp1 Prime_9A Target_1N HCFhkjL JBmEAkd Incongruent left correct Normal 1873.809
506 64 LeftLarger PercIAExp1 Prime_1N Target_1A gcCKmjb bILDAck Congruent right correct Normal 2612.764
506 65 LeftLarger PercIAExp1 Prime_9N Target_1N EkJHlcL DmeFBlA Incongruent left correct Normal 774.3339
506 66 LeftLarger PercIAExp1 Prime_6N Target_9A himaFcB MdjlgEK Congruent right error Normal 914.0837
506 67 LeftLarger PercIAExp1 Prime_9A Target_9N iBfFGah diJFKDf Congruent right error Normal 1064.352
506 68 LeftLarger PercIAExp1 Prime_9N Target_6A gDjdlFe BhCJgIc Congruent right error Normal 2776.215
506 69 LeftLarger PercIAExp1 Prime_4N Target_4N maECeIi hdflKkJ Congruent left error Normal 1495.169
506 70 LeftLarger PercIAExp1 Prime_9N Target_9N FBEjidM bkFKHlG Congruent left correct Normal 2195.005
506 71 LeftLarger PercIAExp1 Prime_4N Target_6A HlahkGj MgDmHGj Incongruent right correct Normal 1302.65
506 72 LeftLarger PercIAExp1 Prime_6A Target_4N GLliBMD JklAhfD Incongruent left correct Normal 1994.35
506 73 LeftLarger PercIAExp1 Prime_1N Target_1N KDEBHbj IalHCGd Congruent right correct Normal 1100.978
506 74 LeftLarger PercIAExp1 Prime_4N Target_6N EABJlGC Fihgjem Incongruent right correct Normal 2997.32
506 75 LeftLarger PercIAExp1 Prime_9N Target_9A fBmIche iGCmFAB Congruent right error Normal 1501.455
506 76 LeftLarger PercIAExp1 Prime_4A Target_4N ehKLfAG CdiHhAf Congruent left error Normal 1061.382
506 77 LeftLarger PercIAExp1 Prime_1N Target_6A jKEkLfH iaKhCIE Incongruent right correct Normal 976.7422
506 78 LeftLarger PercIAExp1 Prime_9A Target_1A JELeGjD AKBFmDb Incongruent left correct Normal 1560.605
506 79 LeftLarger PercIAExp1 Prime_4A Target_9N CbADBkc EDJemBd Incongruent right correct Normal 789.7917
506 80 LeftLarger PercIAExp1 Prime_1A Target_9N dlGLkMc aGlcCEA Incongruent right correct Normal 1942.041
506 81 LeftSmaller PercIBPrac Prime_4A Target_6N HDJiGfb jIBdDgJ Incongruent right error Normal 1223.017
506 82 LeftSmaller PercIBPrac Prime_6N Target_1A aFjDBEi LaEgibm Incongruent left error Normal 769.5267
506 83 LeftSmaller PercIBPrac Prime_9A Target_6A HkgebaE HiglLIM Congruent left error Normal 1050.131
506 84 LeftSmaller PercIBPrac Prime_1A Target_4N MAbImla DEJIaFk Congruent right error Normal 954.9991
506 85 LeftSmaller PercIBPrac Prime_1N Target_9A MahmkfG CbclDkL Incongruent right error Normal 1100.709
506 86 LeftSmaller PercIBPrac Prime_1A Target_4A GKgBfdA FKlLIJH Congruent right error Normal 991.1494
506 87 LeftSmaller PercIBPrac Prime_1N Target_4A MiGHCdh ECMdlDH Congruent left correct Normal 1175.669
506 88 LeftSmaller PercIBPrac Prime_9N Target_6N leBkhLA lghmfJE Congruent right correct Normal 862.2564
506 89 LeftSmaller PercIBPrac Prime_4A Target_6A GFcdgML egafCGD Incongruent right error Normal 1511.298
506 90 LeftSmaller PercIBPrac Prime_6A Target_4N cMDFKeB DECALIB Incongruent right correct Normal 653.5036
506 91 LeftSmaller PercIBPrac Prime_6N Target_4A gHAJhmG HfBalmJ Incongruent right correct Normal 941.3286
506 92 LeftSmaller PercIBPrac Prime_9A Target_1A gFJaMfD iKeIgbj Incongruent right correct Normal 985.0846
506 93 LeftSmaller PercIBPrac Prime_9N Target_4A mbhKHDB ElmidIL Incongruent right correct Normal 1831.118
506 94 LeftSmaller PercIBPrac Prime_1N Target_1N jDFcgKA DMHheLj Congruent right error Normal 886.1494
506 95 LeftSmaller PercIBPrac Prime_9A Target_4N fgFkbaJ hCFHkIe Incongruent left error Normal 2017.463
506 96 LeftSmaller PercIBPrac Prime_6N Target_6A iAcflEG hfCBmjD Congruent right correct Normal 1191.167
506 97 LeftSmaller PercIBExp1 Prime_1N Target_1N LcdBADa cIdhMBF Congruent left correct Normal 554.0053
506 98 LeftSmaller PercIBExp1 Prime_4A Target_4A FmAMldI IhgELAc Congruent left correct Normal 818.1967
506 99 LeftSmaller PercIBExp1 Prime_1N Target_9A ikhfbKG kdamAGH Incongruent left correct Normal 640.6599
506 100 LeftSmaller PercIBExp1 Prime_1A Target_9N iCjLJaf cMJlFBD Incongruent left correct Normal 583.9895
506 101 LeftSmaller PercIBExp1 Prime_9A Target_6A CHMabfL KbdFCHm Congruent right correct Normal 1093.504
506 102 LeftSmaller PercIBExp1 Prime_1A Target_1A MJehcDH jdMGDHb Congruent right error Normal 699.7345
506 103 LeftSmaller PercIBExp1 Prime_6A Target_1N KbEjfmc KdBjaIH Incongruent left error Normal 817.2713
506 104 LeftSmaller PercIBExp1 Prime_9N Target_9N DLclfGk caBEGlF Congruent right correct Normal 797.4483
506 105 LeftSmaller PercIBExp1 Prime_9A Target_4N LBhCKId CkjKMLe Incongruent right correct Normal 918.834
506 106 LeftSmaller PercIBExp1 Prime_6A Target_6A daIJilm AhBcGia Congruent left error Normal 2161.573
506 107 LeftSmaller PercIBExp1 Prime_1N Target_4A lifMdcF HLimdEl Congruent left correct Normal 1852.869
506 108 LeftSmaller PercIBExp1 Prime_4A Target_6A DEdJaAC GibLaMf Incongruent left correct Normal 647.3163
506 109 LeftSmaller PercIBExp1 Prime_1A Target_6N LHkBJhm eBjJIEd Incongruent left correct Normal 1039.95
506 110 LeftSmaller PercIBExp1 Prime_4A Target_1A cKmkJGb IDamkAG Congruent right error Normal 2143.534
506 111 LeftSmaller PercIBExp1 Prime_6A Target_4A dDGkMmL ghdBDaG Incongruent right correct Normal 769.862
506 112 LeftSmaller PercIBExp1 Prime_9A Target_6N mEbDCMf DagJiMd Congruent left error Normal 1511.764
506 113 LeftSmaller PercIBExp1 Prime_4N Target_1A diGCHEh AhFeKGi Congruent left correct Normal 1413.72
506 114 LeftSmaller PercIBExp1 Prime_9A Target_1A JLBHCMI fiMCGJg Incongruent right correct Normal 1141.092
506 115 LeftSmaller PercIBExp1 Prime_1A Target_4N MdGCJjL cdHfKAD Congruent right error Normal 1120.385
506 116 LeftSmaller PercIBExp1 Prime_9A Target_9N MfGLkHl hkCKIcj Congruent left error Normal 1529.67
506 117 LeftSmaller PercIBExp1 Prime_6N Target_6N BmFEJbd IcFAhMi Congruent right correct Normal 1904.185
506 118 LeftSmaller PercIBExp1 Prime_9N Target_4A elCmAaM bDeFMgf Incongruent right correct Normal 804.3861
506 119 LeftSmaller PercIBExp1 Prime_4N Target_6N klGAMje dcBglED Incongruent right error Normal 971.5568
506 120 LeftSmaller PercIBExp1 Prime_4A Target_6N ICcjekF gcjfKea Incongruent right error Normal 729.9644
506 121 LeftSmaller PercIBExp1 Prime_1N Target_1A KdekjAJ AmHekfh Congruent right error Normal 1852.385
506 122 LeftSmaller PercIBExp1 Prime_6A Target_9A jlFJKGE GcKjEFd Congruent right correct Normal 1155.792
506 123 LeftSmaller PercIBExp1 Prime_1N Target_6A ljMiADh MCGeaEd Incongruent left correct Normal 740.8858
506 124 LeftSmaller PercIBExp1 Prime_4N Target_9N BdDhEGg lBMjFgD Incongruent right error Normal 747.4282
506 125 LeftSmaller PercIBExp1 Prime_9N Target_9A KkIMiEB bAacGLH Congruent left error Normal 1462.213
506 126 LeftSmaller PercIBExp1 Prime_4A Target_1N GmCdFeE iIDAgam Congruent right error Normal 763.2904
506 127 LeftSmaller PercIBExp1 Prime_6N Target_6A DkmbFhM dIHGiCh Congruent left error Normal 1290.328
506 128 LeftSmaller PercIBExp1 Prime_9N Target_1N aAmbKeg giebdHM Incongruent right correct Normal 820.5066
506 129 LeftSmaller PercIBExp1 Prime_1N Target_4N iDgljBF hJDAjGe Congruent right error Normal 1243.263
506 130 LeftSmaller PercIBExp1 Prime_9A Target_4A BkjGIdK hgfLHFk Incongruent right correct Normal 966.2418
506 131 LeftSmaller PercIBExp1 Prime_1N Target_6N gDAFKce LDglMKC Incongruent left correct Normal 1611.021
506 132 LeftSmaller PercIBExp1 Prime_4N Target_1N IgfDhAC faBDkHi Congruent left correct Normal 1369.348
506 133 LeftSmaller PercIBExp1 Prime_1A Target_4A AhgDmjE AamBMFb Congruent right error Normal 1130.654
506 134 LeftSmaller PercIBExp1 Prime_6A Target_9N FHdMAlD dmjaCBD Congruent right correct Normal 773.1019
506 135 LeftSmaller PercIBExp1 Prime_6N Target_9A iMdFIEl jAeLhfk Congruent right correct Normal 1862.978
506 136 LeftSmaller PercIBExp1 Prime_9A Target_9A afAgidD fbAGkEI Congruent left error Normal 1724.887
506 137 LeftSmaller PercIBExp1 Prime_9A Target_1N KLChIHa BEekHjK Incongruent right correct Normal 1246.337
506 138 LeftSmaller PercIBExp1 Prime_4A Target_9N GMDAfKd GMBfAdl Incongruent right error Normal 1561.19
506 139 LeftSmaller PercIBExp1 Prime_1N Target_9N DibMFIA JDcIFfb Incongruent left correct Normal 1922.873
506 140 LeftSmaller PercIBExp1 Prime_4N Target_4A CEaHMdI BEalJAK Congruent right error Normal 2712.007
506 141 LeftSmaller PercIBExp1 Prime_6N Target_9N dlFbiIf iHEclBL Congruent left error Normal 1420.646
506 142 LeftSmaller PercIBExp1 Prime_4N Target_4N EeCJFjH GhcebkD Congruent left correct Normal 716.299
506 143 LeftSmaller PercIBExp1 Prime_9N Target_6A FGKJgkl hIMjLGd Congruent left error Normal 1908.816
506 144 LeftSmaller PercIBExp1 Prime_9N Target_1A hMjBGAF fGiIKDg Incongruent left error Normal 1109.592
506 145 LeftSmaller PercIBExp1 Prime_6A Target_4N DLMBGhJ fIEBeHd Incongruent right correct Normal 689.2119
506 146 LeftSmaller PercIBExp1 Prime_4A Target_4N GjEfcLg KEdbiMa Congruent right error Normal 1165.804
506 147 LeftSmaller PercIBExp1 Prime_4N Target_6A DlmFCHi jlBCIDh Incongruent left correct Normal 2303.789
506 148 LeftSmaller PercIBExp1 Prime_9N Target_4N eBaDLgI ecBabGh Incongruent left error Normal 1857.895
506 149 LeftSmaller PercIBExp1 Prime_6A Target_6N LgecCME hIkAFdL Congruent left error Normal 1630.614
506 150 LeftSmaller PercIBExp1 Prime_6N Target_4A lKCJdHh KLjhagC Incongruent right correct Normal 994.7984
506 151 LeftSmaller PercIBExp1 Prime_4A Target_9A CGfMJdE KIbeLhk Incongruent right error Normal 1019.507
506 152 LeftSmaller PercIBExp1 Prime_4N Target_9A cfkAEGJ LKkFEbM Incongruent right error Normal 1127.539
506 153 LeftSmaller PercIBExp1 Prime_9N Target_6N GJhDHCM EAcHDGF Congruent left error Normal 1904.701
506 154 LeftSmaller PercIBExp1 Prime_6N Target_1N GMaKChj lbcKeGI Incongruent left error Normal 617.3456
506 155 LeftSmaller PercIBExp1 Prime_1A Target_1N AFaLHIC kdiABIa Congruent right error Normal 1713.677
506 156 LeftSmaller PercIBExp1 Prime_6N Target_1A kdfCgKm HBmdLFf Incongruent right correct Normal 879.3688
506 157 LeftSmaller PercIBExp1 Prime_1A Target_6A bBGMkHi HgabKfc Incongruent left correct Normal 1530.019
506 158 LeftSmaller PercIBExp1 Prime_1A Target_9A hflJeag JIiGCLj Incongruent left correct Normal 912.1405
506 159 LeftSmaller PercIBExp1 Prime_6A Target_1A mbKjBAM LeBfmGK Incongruent right correct Normal 1600.6
