sub trial_no group_type block_type prime target mask1 mask2 congruency key_press key_error time_error RT
701 1 LeftSmaller PercCAPrac Prime_6A Target_1A MHDKlGL lFeBLbD Incongruent left error Normal 802.73
701 2 LeftSmaller PercCAPrac Prime_6N Target_4A eaFLHIj IgkEBAG Incongruent left error Normal 461.1174
701 3 LeftSmaller PercCAPrac Prime_4A Target_6N jKdafMl MhdlEKa Incongruent left error Normal 690.766
701 4 LeftSmaller PercCAPrac Prime_6A Target_6A gAFmhfd KMfkhgb Congruent left correct Normal 408.5596
701 5 LeftSmaller PercCAPrac Prime_9N Target_9N JkGgeKH iGafHAM Congruent right error Normal 483.1151
701 6 LeftSmaller PercCAPrac Prime_4N Target_4A DHdFAMa icglKHf Congruent left correct Normal 605.3958
701 7 LeftSmaller PercCAPrac Prime_6A Target_9N bIjGdck KADiECm Congruent right error Normal 683.0358
701 8 LeftSmaller PercCAPrac Prime_9A Target_4A CJaLfBk LhiHgjM Incongruent left error Normal 487.6163
701 9 LeftSmaller PercCAPrac Prime_9N Target_4A GlIkEjD bjKmMJG Incongruent left error Normal 418.0396
701 10 LeftSmaller PercCAPrac Prime_6N Target_9A aiEhCMF gkCdAGF Congruent right error Normal 562.3857
701 11 LeftSmaller PercCAPrac Prime_4N Target_1A FgmhbLk fgALDJF Congruent left correct Normal 626.8186
701 12 LeftSmaller PercCAPrac Prime_1N Target_1A fEBliMI gcDCfAK Congruent left correct Normal 385.2704
701 13 LeftSmaller PercCAPrac Prime_4A Target_1N iKIdBec icjLKhe Congruent left correct Normal 516.6923
701 14 LeftSmaller PercCAPrac Prime_1N Target_9A HihbGcd FeJbCgj Incongruent right correct Normal 655.162
701 15 LeftSmaller PercCAPrac Prime_9N Target_1N LfDiKlc ckGAilf Incongruent left error Normal 764.872
701 16 LeftSmaller PercCAPrac Prime_1N Target_4A miCKacE HDgGeEd Congruent right error Normal 665.3022
701 17 LeftSmaller PercCAExp1 Prime_4A Target_4A dkeGJmD hCDaLJe Congruent left correct Normal 473.506
701 18 LeftSmaller PercCAExp1 Prime_1A Target_4N AGCiLaH IDhekLf Congruent left correct Normal 423.4225
701 19 LeftSmaller PercCAExp1 Prime_1N Target_4N bGfmdAL AlJdgbL Congruent left correct Normal 397.5894
701 20 LeftSmaller PercCAExp1 Prime_6A Target_4A GIhlfBF GdHkFjA Incongruent left error Normal 411.9718
701 21 LeftSmaller PercCAExp1 Prime_4A Target_1N BHbkElF mfedHMj Congruent right error Normal 588.6286
701 22 LeftSmaller PercCAExp1 Prime_4N Target_6A ahCBjfI GiDkAcI Incongruent left error Normal 450.0615
701 23 LeftSmaller PercCAExp1 Prime_6N Target_4N hLdiKkG CIeAFJm Incongruent left error Normal 395.2487
701 24 LeftSmaller PercCAExp1 Prime_4A Target_9A hMFLaJD ClAGdem Incongruent right correct Normal 572.1634
701 25 LeftSmaller PercCAExp1 Prime_4A Target_6N DHkelmF bjCEaJM Incongruent left error Normal 379.2987
701 26 LeftSmaller PercCAExp1 Prime_4N Target_9A haCKFmj LhkfaDA Incongruent left error Normal 370.0214
701 27 LeftSmaller PercCAExp1 Prime_6A Target_6N KEMchiB AKhlMji Congruent left correct Normal 456.1496
701 28 LeftSmaller PercCAExp1 Prime_6A Target_1A diIBJja MhegjGH Incongruent left error Normal 403.4469
701 29 LeftSmaller PercCAExp1 Prime_9N Target_1N khimACH LFmAEBc Incongruent left error Normal 351.0978
701 30 LeftSmaller PercCAExp1 Prime_6N Target_6A eCJAKjF aMeBLIl Congruent right error Normal 376.1151
701 31 LeftSmaller PercCAExp1 Prime_9N Target_6A ilcajAe ejdAmfC Congruent right error Normal 506.5566
701 32 LeftSmaller PercCAExp1 Prime_1A Target_9N mAKLfJM kgJhGjB Incongruent right correct Normal 382.7109
701 33 LeftSmaller PercCAExp1 Prime_1A Target_1N AlgeafM AcBFaDj Congruent right error Normal 303.4869
701 34 LeftSmaller PercCAExp1 Prime_9N Target_4A aghJKjC fIcKmaB Incongruent right correct Normal 295.0358
701 35 LeftSmaller PercCAExp1 Prime_6N Target_4A IkCacGM LHkbaFM Incongruent right correct Normal 271.4485
701 36 LeftSmaller PercCAExp1 Prime_4A Target_6A AEiDJeL lMjFHhd Incongruent right correct Normal 340.9309
701 37 LeftSmaller PercCAExp1 Prime_6N Target_9N eFgDHIB IdAieLg Congruent right error Normal 145.2214
701 38 LeftSmaller PercCAExp1 Prime_1A Target_4A dcHDabh ceAkJBi Congruent right error Normal 465.8015
701 39 LeftSmaller PercCAExp1 Prime_9A Target_9N CjEkcmd FeAklKM Congruent left correct Normal 432.0971
701 40 LeftSmaller PercCAExp1 Prime_4A Target_1A hDMHBKm CaFhmMf Congruent right error Normal 418.7579
701 41 LeftSmaller PercCAExp1 Prime_1A Target_6A IJDihMH GEahkCJ Incongruent right correct Normal 559.9203
701 42 LeftSmaller PercCAExp1 Prime_9A Target_1N jHJEadl ifKEgFe Incongruent right correct Normal 392.7266
701 43 LeftSmaller PercCAExp1 Prime_6N Target_1A kBdmbfF LFGEibI Incongruent left error Early 44.00575
701 44 LeftSmaller PercCAExp1 Prime_4N Target_1A eiIMKhC acFIMdC Congruent left correct Normal 509.3603
701 45 LeftSmaller PercCAExp1 Prime_6A Target_1N FjdHJke JmfiLKF Incongruent left error Normal 511.3407
701 46 LeftSmaller PercCAExp1 Prime_6A Target_4N CIDdkaE fdbJGIj Incongruent left error Normal 444.3545
701 47 LeftSmaller PercCAExp1 Prime_1A Target_1A eCcdiIE BiaEeLd Congruent left correct Normal 367.3984
701 48 LeftSmaller PercCAExp1 Prime_1N Target_4A fdiHGCh ejBKFMh Congruent right error Normal 242.3377
701 49 LeftSmaller PercCAExp1 Prime_6A Target_9A fKckegC mAGleCd Congruent right error Normal 238.1887
701 50 LeftSmaller PercCAExp1 Prime_9A Target_6A FiBbJLK hJKMgDL Congruent right error Normal 118.3865
701 51 LeftSmaller PercCAExp1 Prime_6N Target_1N lMghCaB AgeFLdH Incongruent right correct Normal 3716.874
701 52 LeftSmaller PercCAExp1 Prime_9N Target_9N HLgBjkf DlfIGch Congruent left correct Normal 539.8367
701 53 LeftSmaller PercCAExp1 Prime_4N Target_1N kGagEBe JlKCeAj Congruent left correct Normal 363.067
701 54 LeftSmaller PercCAExp1 Prime_1A Target_6N kaGjeIL EKGkBbg Incongruent left error Normal 383.6089
701 55 LeftSmaller PercCAExp1 Prime_4A Target_4N MjiKfBL LmglKEB Congruent left correct Normal 328.3623
701 56 LeftSmaller PercCAExp1 Prime_1N Target_9A AiGLglC FcLheDH Incongruent right correct Normal 439.9136
701 57 LeftSmaller PercCAExp1 Prime_1A Target_9A GaCdKfA eCfFajB Incongruent right correct Normal 347.342
701 58 LeftSmaller PercCAExp1 Prime_4N Target_4A DJHeMjb lJeHhiL Congruent right error Normal 268.1387
701 59 LeftSmaller PercCAExp1 Prime_6N Target_9A mFCLMic CGEJFjh Congruent right error Normal 488.9906
701 60 LeftSmaller PercCAExp1 Prime_4N Target_4N MLcCagG CAiMbHK Congruent right error Normal 382.8437
701 61 LeftSmaller PercCAExp1 Prime_6A Target_9N CAIHkDG dDHMfge Congruent right error Normal 272.3527
701 62 LeftSmaller PercCAExp1 Prime_9A Target_9A kIFaMAE khGEmfC Congruent right error Normal 406.5061
701 63 LeftSmaller PercCAExp1 Prime_9A Target_1A DjgEfJm IAajbhF Incongruent right correct Normal 307.0616
701 64 LeftSmaller PercCAExp1 Prime_9N Target_1A dKlhJFG KMGbFJA Incongruent right correct Normal 300.8326
701 65 LeftSmaller PercCAExp1 Prime_6A Target_6A JmIgiHG dHifFkM Congruent right error Normal 254.2779
701 66 LeftSmaller PercCAExp1 Prime_1N Target_6N FeJIHdL EIliLMc Incongruent left error Normal 217.686
701 67 LeftSmaller PercCAExp1 Prime_1N Target_9N ljeDgEC MagEGBk Incongruent right correct Normal 582.589
701 68 LeftSmaller PercCAExp1 Prime_9N Target_6N laKeMhf fFimgMG Congruent right error Normal 341.8813
701 69 LeftSmaller PercCAExp1 Prime_1N Target_1N LKJlijm hjDFmdB Congruent right error Normal 349.5965
701 70 LeftSmaller PercCAExp1 Prime_4N Target_9N AebDmfk ileBDgK Incongruent right correct Normal 249.2104
701 71 LeftSmaller PercCAExp1 Prime_9N Target_9A FMhdCif IJkbCGh Congruent right error Normal 304.4854
701 72 LeftSmaller PercCAExp1 Prime_9A Target_4N AJfehIK fmahAlG Incongruent left error Normal 700.5092
701 73 LeftSmaller PercCAExp1 Prime_6N Target_6N JBDEgeF cLedCgl Congruent right error Normal 609.2862
701 74 LeftSmaller PercCAExp1 Prime_9N Target_4N hbIdkCg bFigckd Incongruent right correct Normal 352.7365
701 75 LeftSmaller PercCAExp1 Prime_1N Target_6A maGJbDA FCDhjfc Incongruent right correct Normal 422.2563
701 76 LeftSmaller PercCAExp1 Prime_4A Target_9N dAchfEb aCBKieH Incongruent right correct Normal 290.053
701 77 LeftSmaller PercCAExp1 Prime_1N Target_1A LchHkdl BKAjgiJ Congruent right error Normal 260.6092
701 78 LeftSmaller PercCAExp1 Prime_9A Target_6N lEDALMm IaMLGdl Congruent left correct Normal 272.385
701 79 LeftSmaller PercCAExp1 Prime_9A Target_4A mhLECJi MilaFhE Incongruent left error Normal 382.2789
701 80 LeftSmaller PercCAExp1 Prime_4N Target_6N DlILGhK flGEFkM Incongruent right correct Normal 339.689
701 81 LeftLarger PercCBPrac Prime_1A Target_9A bGejJkH gaJCMjF Incongruent left correct Normal 565.9885
701 82 LeftLarger PercCBPrac Prime_6A Target_1N CHlfiGj EFgdacL Incongruent right error Normal 678.5821
701 83 LeftLarger PercCBPrac Prime_9N Target_6A bACJljf lkciBHh Congruent right correct Normal 348.2368
701 84 LeftLarger PercCBPrac Prime_6A Target_4A iGKlmkh MDiJKGI Incongruent left correct Normal 4056.223
701 85 LeftLarger PercCBPrac Prime_4N Target_1A ckGDHeb CJIbEgK Congruent right correct Normal 4282.19
701 86 LeftLarger PercCBPrac Prime_6N Target_1N AjeMhcm EblhFdC Incongruent left correct Normal 648.4955
701 87 LeftLarger PercCBPrac Prime_6N Target_9A FfcJCAb MfFcHgB Congruent right correct Normal 309.2999
701 88 LeftLarger PercCBPrac Prime_9N Target_4A jBmkFgK BJcGdik Incongruent right error Normal 369.6788
701 89 LeftLarger PercCBPrac Prime_9N Target_1N lMGcLDg klgCDfH Incongruent right error Normal 183.007
701 90 LeftLarger PercCBPrac Prime_9N Target_9A mjGBbhM kAMimIH Congruent left error Normal 785.758
701 91 LeftLarger PercCBPrac Prime_6A Target_4N mJIKCMF ElFdjiL Incongruent left correct Normal 3182.905
701 92 LeftLarger PercCBPrac Prime_9N Target_9N CJihFHK HLieljh Congruent left error Late 6867.303
701 93 LeftLarger PercCBPrac Prime_6A Target_6N JGlHkBA lBcMDGe Congruent left error Late 5024.312
701 94 LeftLarger PercCBPrac Prime_1N Target_1N fBlgcIh kMjIGFA Congruent right correct Normal 356.1797
701 95 LeftLarger PercCBPrac Prime_1A Target_9N BHDFIej kBJgKaA Incongruent left correct Normal 320.4825
701 96 LeftLarger PercCBPrac Prime_1A Target_4A KjEiJFb EFjhdim Congruent left error Normal 3553.098
701 97 LeftLarger PercCBExp1 Prime_9A Target_6N ALDdlfJ ImkLJlM Congruent right correct Normal 442.7413
701 98 LeftLarger PercCBExp1 Prime_4A Target_6A HCcJFIE GbHcEeg Incongruent right error Normal 323.9512
701 99 LeftLarger PercCBExp1 Prime_1A Target_6A LAMFghe ceCaBlf Incongruent left correct Normal 3261.014
701 100 LeftLarger PercCBExp1 Prime_9N Target_6N edCfmBK iHGlmAL Congruent right correct Normal 347.6533
701 101 LeftLarger PercCBExp1 Prime_1N Target_1N hdJiIbK dfKalFb Congruent right correct Normal 141.3851
701 102 LeftLarger PercCBExp1 Prime_9A Target_4N ljGdIfK IAFcfBL Incongruent right error Normal 240.4649
701 103 LeftLarger PercCBExp1 Prime_6A Target_4N hfFbJjA MiImCdk Incongruent left correct Normal 469.0736
701 104 LeftLarger PercCBExp1 Prime_1A Target_9A fMhbkEl eiFJHaK Incongruent left correct Normal 441.9325
701 105 LeftLarger PercCBExp1 Prime_4N Target_4N bKcHGJL KClLiIf Congruent right correct Normal 258.9633
701 106 LeftLarger PercCBExp1 Prime_9A Target_9N ABfdiHk DlcgHAb Congruent right correct Normal 444.9985
701 107 LeftLarger PercCBExp1 Prime_4A Target_4A bgCehLD LbAGeJH Congruent right correct Normal 193.4072
701 108 LeftLarger PercCBExp1 Prime_9A Target_1N HdcGDkB dGmejKg Incongruent right error Normal 349.5894
701 109 LeftLarger PercCBExp1 Prime_4N Target_9N kamECcL mLkjdFD Incongruent left correct Normal 3194.027
701 110 LeftLarger PercCBExp1 Prime_9A Target_4A icemjfB dEeMABi Incongruent right error Normal 482.9331
701 111 LeftLarger PercCBExp1 Prime_9N Target_1A aHJKLCI cmLjlHA Incongruent right error Normal 307.4357
701 112 LeftLarger PercCBExp1 Prime_1A Target_6N AMCDdgE FKDdAch Incongruent right error Normal 366.2553
701 113 LeftLarger PercCBExp1 Prime_6N Target_1N CFhfMIl LGBijad Incongruent right error Normal 336.7916
701 114 LeftLarger PercCBExp1 Prime_4A Target_1A jkhCgeG EegIHDk Congruent right correct Normal 458.6069
701 115 LeftLarger PercCBExp1 Prime_4N Target_1A fCHEcFh MdFKDLB Congruent right correct Normal 545.8792
701 116 LeftLarger PercCBExp1 Prime_1A Target_4A jFADIKC BCLGaKm Congruent left error Normal 244.0409
701 117 LeftLarger PercCBExp1 Prime_1A Target_4N hbBikLE lbeIHak Congruent right correct Normal 474.41
701 118 LeftLarger PercCBExp1 Prime_6N Target_6N EmHlebj liMaDge Congruent right correct Normal 335.733
701 119 LeftLarger PercCBExp1 Prime_9A Target_1A aMJKcCj AjmBGJf Incongruent right error Normal 160.1605
701 120 LeftLarger PercCBExp1 Prime_4N Target_1N cGjIEHi CMIFalE Congruent right correct Normal 344.5668
701 121 LeftLarger PercCBExp1 Prime_9N Target_1N GiDgEdm aKmFhJd Incongruent right error Normal 374.0992
701 122 LeftLarger PercCBExp1 Prime_6N Target_9A MDgkbjF djDJHBa Congruent left error Normal 581.8918
701 123 LeftLarger PercCBExp1 Prime_6A Target_9A dAcIhBm GDmFIjk Congruent left error Normal 576.0775
701 124 LeftLarger PercCBExp1 Prime_6N Target_9N CJHecMj AfFBHGc Congruent right correct Normal 742.2199
701 125 LeftLarger PercCBExp1 Prime_4A Target_6N HebdFjC IAJljKg Incongruent left correct Normal 508.9685
701 126 LeftLarger PercCBExp1 Prime_9N Target_9A acDEMlK cMKjaim Congruent right correct Normal 282.822
701 127 LeftLarger PercCBExp1 Prime_6N Target_1A iebmCIE iEcJeCB Incongruent right error Normal 276.4439
701 128 LeftLarger PercCBExp1 Prime_6A Target_6N hlaAfgC dEKLDMe Congruent right correct Normal 179.7145
701 129 LeftLarger PercCBExp1 Prime_4N Target_4A eFCjchJ cAhFgjk Congruent right correct Normal 152.6553
701 130 LeftLarger PercCBExp1 Prime_9N Target_4A AfhcCGD JgaEBAL Incongruent right error Early 62.20797
701 131 LeftLarger PercCBExp1 Prime_4A Target_9A HeAghLJ kKadgLc Incongruent right error Normal 223.3696
701 132 LeftLarger PercCBExp1 Prime_9N Target_6A ehMKFDi BcFMAlJ Congruent left error Normal 115.796
701 133 LeftLarger PercCBExp1 Prime_4A Target_4N KbcDgEi KGLliIF Congruent left error Normal 171.6985
701 134 LeftLarger PercCBExp1 Prime_9A Target_9A DigEJKj HehMaBc Congruent right correct Early 86.36033
701 135 LeftLarger PercCBExp1 Prime_1N Target_9N MKJhfFC dLGIMcC Incongruent left correct Normal 190.1332
701 136 LeftLarger PercCBExp1 Prime_9A Target_6A iGkgDhH CEMdmlH Congruent right correct Normal 130.4254
701 137 LeftLarger PercCBExp1 Prime_6A Target_9N bJLFdml ECDcfLe Congruent right correct Early 52.10438
701 138 LeftLarger PercCBExp1 Prime_4A Target_9N hFBkGKa DcLkJEF Incongruent right error Normal 417.6065
701 139 LeftLarger PercCBExp1 Prime_1A Target_1A KihEJFg FHlmMej Congruent left error Normal 202.4265
701 140 LeftLarger PercCBExp1 Prime_1A Target_9N cbgfGFd IMamcLk Incongruent right error Normal 255.4326
701 141 LeftLarger PercCBExp1 Prime_1N Target_6N fIbcHkM bgAjeGF Incongruent right error Normal 374.4781
701 142 LeftLarger PercCBExp1 Prime_1A Target_1N khjEDfA IbfiCke Congruent left error Early 74.51031
701 143 LeftLarger PercCBExp1 Prime_1N Target_9A eidhCKa EhGbkDJ Incongruent left correct Normal 1848.764
701 144 LeftLarger PercCBExp1 Prime_9N Target_9N JjeDdbk cKEIfmg Congruent right correct Normal 695.9915
701 145 LeftLarger PercCBExp1 Prime_6A Target_6A IJfhFHG FhLcikj Congruent left error Early 91.5181
701 146 LeftLarger PercCBExp1 Prime_4N Target_9A AldacGL MfGFChI Incongruent right error Early 30.23544
701 147 LeftLarger PercCBExp1 Prime_6N Target_6A ahIlbeF LjBAIif Congruent right correct Early 90.96676
701 148 LeftLarger PercCBExp1 Prime_9N Target_4N MdGlIka jdJfcLE Incongruent left correct Normal 103.1183
701 149 LeftLarger PercCBExp1 Prime_1N Target_1A EGIBFLb KbeghlC Congruent left error Normal 570.0454
701 150 LeftLarger PercCBExp1 Prime_1N Target_6A jDBkMcl dbCMGfm Incongruent left correct Normal 288.9405
701 151 LeftLarger PercCBExp1 Prime_4N Target_6N DdkFcJI igDdLMF Incongruent right error Normal 575.0993
701 152 LeftLarger PercCBExp1 Prime_4A Target_1N KfFHEcB BCGmIAa Congruent right correct Normal 827.1519
701 153 LeftLarger PercCBExp1 Prime_1N Target_4N EBMgJdm cjkbKdM Congruent left error Normal 305.0727
701 154 LeftLarger PercCBExp1 Prime_6N Target_4N MkmBElJ jDmEgkH Incongruent right error Normal 112.816
701 155 LeftLarger PercCBExp1 Prime_6A Target_4A KahHmEc ckejfmL Incongruent right error Normal 128.7588
701 156 LeftLarger PercCBExp1 Prime_6N Target_4A ElMCmiA ehIJaDk Incongruent right error Normal 242.889
701 157 LeftLarger PercCBExp1 Prime_6A Target_1N dbfKBmF HBCIiJE Incongruent left correct Early 80.96175
701 158 LeftLarger PercCBExp1 Prime_6A Target_1A bDJHFjf FfjCGJB Incongruent left correct Normal 230.2657
701 159 LeftLarger PercCBExp1 Prime_1N Target_4A fDjJKMB ljeLCmB Congruent left error Early 63.07904
701 160 LeftLarger PercCBExp1 Prime_4N Target_6A JAlfHIa jDlcdGm Incongruent right error Early 46.45707
702 1 LeftSmaller PercCAPrac Prime_9N Target_6N HjfiDga DHFlhik Congruent right error Normal 1215.573
702 2 LeftSmaller PercCAPrac Prime_4A Target_9N MBCDmKf mIgkGdM Incongruent right correct Normal 1466.102
702 3 LeftSmaller PercCAPrac Prime_4N Target_4N bKCLmcB aBKLEjb Congruent right error Normal 1364.308
702 4 LeftSmaller PercCAPrac Prime_9A Target_1N CdGgbKj cfKhEMj Incongruent right correct Normal 988.1887
702 5 LeftSmaller PercCAPrac Prime_6A Target_4A JjMmADa mIGdgci Incongruent right correct Normal 878.2118
702 6 LeftSmaller PercCAPrac Prime_1A Target_4A mLfDeAi cbDBHIE Congruent right error Normal 1180.946
702 7 LeftSmaller PercCAPrac Prime_9N Target_9N KdhbeAj DlHGcJm Congruent left correct Normal 1413.657
702 8 LeftSmaller PercCAPrac Prime_4A Target_6A dmcJlHA jAgFdkL Incongruent right correct Normal 1580.901
702 9 LeftSmaller PercCAPrac Prime_4N Target_6N LgBbcej GLJEkmF Incongruent right correct Normal 1297.214
702 10 LeftSmaller PercCAPrac Prime_1N Target_4A ecmELFG BaImdAk Congruent right error Normal 1180.176
702 11 LeftSmaller PercCAPrac Prime_4A Target_4A bCGkmEJ BAeKkCd Congruent right error Normal 1001.695
702 12 LeftSmaller PercCAPrac Prime_4N Target_9A DIiCckb IFgdHDJ Incongruent right correct Normal 1872.83
702 13 LeftSmaller PercCAPrac Prime_9A Target_6N cKAbILd DkEmefg Congruent left correct Normal 1837.462
702 14 LeftSmaller PercCAPrac Prime_1N Target_6N CFbEHJL CleLigJ Incongruent right correct Normal 846.902
702 15 LeftSmaller PercCAPrac Prime_1N Target_9A HjfbiED lcCieJd Incongruent right correct Normal 921.7873
702 16 LeftSmaller PercCAPrac Prime_1A Target_6A jEkAKCl fhlDdCH Incongruent right correct Normal 1283.225
702 17 LeftSmaller PercCAExp1 Prime_4N Target_1N IdiCgBc KJABgCD Congruent left correct Normal 1001.401
702 18 LeftSmaller PercCAExp1 Prime_4A Target_6N LaAjdfb LGkCgIB Incongruent right correct Normal 1670.831
702 19 LeftSmaller PercCAExp1 Prime_6N Target_9A KaEMbFI CBdmMgf Congruent left correct Normal 1109.596
702 20 LeftSmaller PercCAExp1 Prime_6A Target_6A FaGIJCM cJLkECB Congruent right error Normal 884.6742
702 21 LeftSmaller PercCAExp1 Prime_6A Target_4A kGDlBgE jIGbeiC Incongruent left error Normal 1126.119
702 22 LeftSmaller PercCAExp1 Prime_9N Target_6A dAMebIE jFcGlML Congruent left correct Normal 2037.736
702 23 LeftSmaller PercCAExp1 Prime_9N Target_1N jBfJhdl elkbLMJ Incongruent right correct Normal 1155.606
702 24 LeftSmaller PercCAExp1 Prime_1N Target_4N jDeLdbh BieEKgC Congruent left correct Normal 2483.768
702 25 LeftSmaller PercCAExp1 Prime_4N Target_9A mliKFjC jMCieGF Incongruent right correct Normal 1167.344
702 26 LeftSmaller PercCAExp1 Prime_4A Target_9A FKdHhDE eAkaEGl Incongruent right correct Normal 1078.128
702 27 LeftSmaller PercCAExp1 Prime_6N Target_6N hFJjDMG LAMgHjc Congruent left correct Normal 1556.574
702 28 LeftSmaller PercCAExp1 Prime_9A Target_9A iChfMkG iIMjELk Congruent left correct Normal 1045.767
702 29 LeftSmaller PercCAExp1 Prime_4N Target_9N bmfHkgC EHJBhgc Incongruent right correct Normal 1357.626
702 30 LeftSmaller PercCAExp1 Prime_4A Target_6A gLJjKMB JHBKkAE Incongruent right correct Normal 1109.241
702 31 LeftSmaller PercCAExp1 Prime_1A Target_6N hlfAMEH LifMGHj Incongruent right correct Normal 1685.535
702 32 LeftSmaller PercCAExp1 Prime_4A Target_1A IHhGEKB dELkBGl Congruent left correct Normal 1127.836
702 33 LeftSmaller PercCAExp1 Prime_4A Target_9N FcELlbC eLDijaA Incongruent right correct Normal 1000.784
702 34 LeftSmaller PercCAExp1 Prime_1N Target_6N daMhbiE jFmHlAI Incongruent right correct Late 6083.997
702 35 LeftSmaller PercCAExp1 Prime_1N Target_1A HDmbCIe GiHeFED Congruent right error Normal 3640.296
702 36 LeftSmaller PercCAExp1 Prime_4A Target_1N jDhlAeg fFLkcAg Congruent left correct Normal 962.2012
702 37 LeftSmaller PercCAExp1 Prime_6A Target_6N hEKfiFl kHdefcM Congruent left correct Normal 1264.109
702 38 LeftSmaller PercCAExp1 Prime_1N Target_9A DBeHJbi mhACkbi Incongruent right correct Normal 1631.301
702 39 LeftSmaller PercCAExp1 Prime_6N Target_6A amfjIDH FdihHDC Congruent right error Normal 2300.838
702 40 LeftSmaller PercCAExp1 Prime_6N Target_4A lkgAGei KMGHJmB Incongruent right correct Normal 2488.913
702 41 LeftSmaller PercCAExp1 Prime_1A Target_6A EeDIMHd FaicgLj Incongruent right correct Normal 1994.258
702 42 LeftSmaller PercCAExp1 Prime_4N Target_1A feIDhAL AaIhJFl Congruent left correct Normal 1127.946
702 43 LeftSmaller PercCAExp1 Prime_4N Target_4A GELmicf GBEmbMA Congruent left correct Normal 1602.404
702 44 LeftSmaller PercCAExp1 Prime_4N Target_6N cekLjiD MIJfmKb Incongruent left error Normal 1595.171
702 45 LeftSmaller PercCAExp1 Prime_6A Target_1N AIEaKgc FkJMlea Incongruent right correct Normal 2354.988
702 46 LeftSmaller PercCAExp1 Prime_1A Target_9N LAEdFBf iMdbHKf Incongruent right correct Normal 1189.423
702 47 LeftSmaller PercCAExp1 Prime_9A Target_6A DfkCMce bdGEAjc Congruent right error Normal 1089.104
702 48 LeftSmaller PercCAExp1 Prime_4A Target_4A jaJKeBA eJmaBKF Congruent left correct Normal 2251.76
702 49 LeftSmaller PercCAExp1 Prime_6N Target_1A DMIaCem BglAHkJ Incongruent right correct Normal 1009.244
702 50 LeftSmaller PercCAExp1 Prime_1N Target_1N AKmBdEc AdkLCje Congruent right error Normal 1137.659
702 51 LeftSmaller PercCAExp1 Prime_1N Target_6A MbAcChl liFaMCA Incongruent right correct Normal 1617.946
702 52 LeftSmaller PercCAExp1 Prime_9A Target_1A eGKLgEc KJekbEl Incongruent right correct Normal 1230.834
702 53 LeftSmaller PercCAExp1 Prime_9N Target_4A IjJaLhl jDgMdiK Incongruent left error Normal 2433.068
702 54 LeftSmaller PercCAExp1 Prime_9A Target_9N LCBKIkc DlMfgmB Congruent right error Normal 2679.138
702 55 LeftSmaller PercCAExp1 Prime_9A Target_4A bEeCBdg LkKjDec Incongruent right correct Normal 1726.123
702 56 LeftSmaller PercCAExp1 Prime_9N Target_4N FJfaclG dhBIeHC Incongruent left error Normal 2970.912
702 57 LeftSmaller PercCAExp1 Prime_1N Target_4A CEfDkji fdEIDHB Congruent right error Normal 2104.737
702 58 LeftSmaller PercCAExp1 Prime_9N Target_9A EdBaFcH BHjGDMk Congruent left correct Normal 2224.614
702 59 LeftSmaller PercCAExp1 Prime_6A Target_9N kIAjGJm JMCKjhD Congruent right error Normal 1706.113
702 60 LeftSmaller PercCAExp1 Prime_1A Target_4A mLihBKl HcKMEgh Congruent right error Normal 2041.438
702 61 LeftSmaller PercCAExp1 Prime_6A Target_4N ALgklMa bIAcimM Incongruent right correct Normal 1462.013
702 62 LeftSmaller PercCAExp1 Prime_1A Target_4N CmBgceG LkKDIlA Congruent right error Normal 1389.783
702 63 LeftSmaller PercCAExp1 Prime_9A Target_1N EHjbkdD dGIfLAc Incongruent right correct Normal 2796.824
702 64 LeftSmaller PercCAExp1 Prime_6A Target_9A adlkfJh IHikDBl Congruent left correct Normal 1363.101
702 65 LeftSmaller PercCAExp1 Prime_4A Target_4N fGcjaAd aiFCGAm Congruent left correct Normal 1107.02
702 66 LeftSmaller PercCAExp1 Prime_9A Target_4N bahGlcI kBMjKFf Incongruent right correct Normal 1476.558
702 67 LeftSmaller PercCAExp1 Prime_6N Target_1N cBhHimg FbEleGK Incongruent right correct Normal 1219.313
702 68 LeftSmaller PercCAExp1 Prime_9N Target_1A cLkaiFG ChBlMja Incongruent left error Normal 2277.674
702 69 LeftSmaller PercCAExp1 Prime_9A Target_6N eAMLCHD FLGCBKh Congruent left correct Normal 1179.427
702 70 LeftSmaller PercCAExp1 Prime_1A Target_1N KmHDLFi jHKLFcM Congruent left correct Normal 1519.272
702 71 LeftSmaller PercCAExp1 Prime_4N Target_4N LCaBKMF jliAfBG Congruent right error Normal 2424.325
702 72 LeftSmaller PercCAExp1 Prime_1N Target_9N lIEFkDC aJjhEgc Incongruent right correct Normal 1868.783
702 73 LeftSmaller PercCAExp1 Prime_4N Target_6A lkDEjdL ekAFmBM Incongruent left error Normal 1875.581
702 74 LeftSmaller PercCAExp1 Prime_6N Target_9N HACLhIf alAhJib Congruent left correct Normal 1010.04
702 75 LeftSmaller PercCAExp1 Prime_1A Target_1A eHdEgkl ADBGChe Congruent right error Normal 1628.595
702 76 LeftSmaller PercCAExp1 Prime_9N Target_6N keEGgbI LmHkDiJ Congruent right error Normal 2135.515
702 77 LeftSmaller PercCAExp1 Prime_6A Target_1A Becmlib LIMAcBl Incongruent left error Normal 894.4785
702 78 LeftSmaller PercCAExp1 Prime_6N Target_4N LJbEKkF hkCHAFe Incongruent right correct Normal 1114.02
702 79 LeftSmaller PercCAExp1 Prime_1A Target_9A HfBmGje jGAeIHl Incongruent right correct Normal 1948.202
702 80 LeftSmaller PercCAExp1 Prime_9N Target_9N bDGfdgj KgJhEmH Congruent left correct Normal 1156.397
702 81 LeftLarger PercCBPrac Prime_4A Target_4N lGiehEA flFKADb Congruent right correct Normal 1757.059
702 82 LeftLarger PercCBPrac Prime_4N Target_1A jhAfkla AhbLFKc Congruent right correct Normal 1467.087
702 83 LeftLarger PercCBPrac Prime_1A Target_6A AbFagHD gjdHiEL Incongruent right error Normal 2262.171
702 84 LeftLarger PercCBPrac Prime_4N Target_4A KHghImM MCDBmfG Congruent left error Normal 1507.002
702 85 LeftLarger PercCBPrac Prime_4N Target_9A IkKeagE CEagIGi Incongruent left correct Normal 1087.761
702 86 LeftLarger PercCBPrac Prime_6A Target_9N IABlDeJ KmdBlFD Congruent right correct Normal 1398.892
702 87 LeftLarger PercCBPrac Prime_9N Target_4N BalLcKJ FDjbikA Incongruent right error Normal 1353.414
702 88 LeftLarger PercCBPrac Prime_1A Target_4A elbfdEM iBfJFba Congruent left error Normal 1350.991
702 89 LeftLarger PercCBPrac Prime_1A Target_6N dAmHakB eKdFgck Incongruent left correct Normal 1365.642
702 90 LeftLarger PercCBPrac Prime_1A Target_1A McBkGgE HdceBgL Congruent left error Normal 1566.97
702 91 LeftLarger PercCBPrac Prime_4A Target_9N BJCgmlk BdiKEeh Incongruent left correct Normal 3057.896
702 92 LeftLarger PercCBPrac Prime_4N Target_6A hcFlKaI BdfgkDE Incongruent left correct Normal 1564.963
702 93 LeftLarger PercCBPrac Prime_9A Target_9A JAMCDgm CcfeaLD Congruent right correct Normal 2240.506
702 94 LeftLarger PercCBPrac Prime_4A Target_6A gMiDCmd KDLiAhf Incongruent left correct Normal 1249.527
702 95 LeftLarger PercCBPrac Prime_9N Target_1A bIEeBMa LJlCeGA Incongruent left correct Normal 2382.35
702 96 LeftLarger PercCBPrac Prime_1N Target_6A hdCDaIJ DGKLgja Incongruent right error Normal 1744.351
702 97 LeftLarger PercCBExp1 Prime_4A Target_9A MKGbLgh HFKDJdC Incongruent left correct Normal 2495.089
702 98 LeftLarger PercCBExp1 Prime_1N Target_4A gLfFdDE hMCJLKa Congruent right correct Normal 1708.025
702 99 LeftLarger PercCBExp1 Prime_9N Target_1N KLklfma IDkeAEJ Incongruent left correct Normal 1332.269
702 100 LeftLarger PercCBExp1 Prime_9A Target_4N khGgEDK mIkhHiC Incongruent left correct Normal 2110.782
702 101 LeftLarger PercCBExp1 Prime_1N Target_9N IADemiB cklbADI Incongruent left correct Normal 987.0978
702 102 LeftLarger PercCBExp1 Prime_4A Target_1A JceiIjd HKahAdi Congruent left error Normal 1090.282
702 103 LeftLarger PercCBExp1 Prime_1A Target_4N GHiELlK CDmLBlM Congruent right correct Normal 1858.579
702 104 LeftLarger PercCBExp1 Prime_6A Target_4N DjIEaKF BJfGIak Incongruent left correct Normal 920.5009
702 105 LeftLarger PercCBExp1 Prime_1A Target_4A GDCLAKb ifJImMG Congruent left error Normal 2200.188
702 106 LeftLarger PercCBExp1 Prime_9N Target_1A jleaILB iAmadBg Incongruent left correct Normal 2346.373
702 107 LeftLarger PercCBExp1 Prime_9N Target_9N DMBLaHb MDcJhik Congruent right correct Normal 1727.421
702 108 LeftLarger PercCBExp1 Prime_1A Target_6N aFkjebB LgMCHfA Incongruent left correct Normal 4514.235
702 109 LeftLarger PercCBExp1 Prime_9A Target_1A ADmCejM AgFBcHd Incongruent left correct Normal 1544.624
702 110 LeftLarger PercCBExp1 Prime_4N Target_6N DkdmLHF kdgEDaK Incongruent left correct Normal 1483.424
702 111 LeftLarger PercCBExp1 Prime_1A Target_1N fACcgle KJGdAif Congruent left error Normal 2322.242
702 112 LeftLarger PercCBExp1 Prime_6N Target_9N lFAdBIj IBgdaCH Congruent right correct Normal 1480.696
702 113 LeftLarger PercCBExp1 Prime_9A Target_9N ihjGlDk LEdeFGc Congruent right correct Normal 1180.638
702 114 LeftLarger PercCBExp1 Prime_6N Target_6N FKJmgcA bfJELKa Congruent right correct Normal 1099.368
702 115 LeftLarger PercCBExp1 Prime_9N Target_6N jfcCIkL aAGCblF Congruent right correct Normal 1265.112
702 116 LeftLarger PercCBExp1 Prime_9N Target_4N ajFdBlE lGCFKEJ Incongruent right error Normal 3377.992
702 117 LeftLarger PercCBExp1 Prime_4A Target_4A cMGBLai fCJbakg Congruent left error Normal 1573.856
702 118 LeftLarger PercCBExp1 Prime_6A Target_9N ClAMjmI ECcbLjJ Congruent right correct Normal 1658.058
702 119 LeftLarger PercCBExp1 Prime_6A Target_6A CBfhaJb dDJfGAi Congruent right correct Normal 1527.679
702 120 LeftLarger PercCBExp1 Prime_6N Target_4A FcMKglH mDafAgd Incongruent left correct Normal 1488.415
702 121 LeftLarger PercCBExp1 Prime_6N Target_9A jBhAcGE djAHfcD Congruent left error Normal 1801.223
702 122 LeftLarger PercCBExp1 Prime_4N Target_1N bGemAkl EIAgLei Congruent right correct Normal 1756.455
702 123 LeftLarger PercCBExp1 Prime_6A Target_1N GlhmBJF jcBhMga Incongruent left correct Normal 1842.448
702 124 LeftLarger PercCBExp1 Prime_9A Target_6N MHCBFGk iJmgIEB Congruent right correct Normal 1193.434
702 125 LeftLarger PercCBExp1 Prime_6A Target_4A gCDikdM IDHBdeA Incongruent left correct Normal 1068.716
702 126 LeftLarger PercCBExp1 Prime_6A Target_1A jKkEidA IkegdJf Incongruent left correct Normal 883.0353
702 127 LeftLarger PercCBExp1 Prime_4A Target_6A CgdADBm fMJHmeb Incongruent left correct Normal 1701.331
702 128 LeftLarger PercCBExp1 Prime_1N Target_4N MbCeigE jImeDBG Congruent left error Normal 1514.638
702 129 LeftLarger PercCBExp1 Prime_1N Target_6N ikhegBF ikaAeBL Incongruent right error Normal 3322.54
702 130 LeftLarger PercCBExp1 Prime_1A Target_9A lHdjCkf HCeiJGj Incongruent left correct Normal 1514.766
702 131 LeftLarger PercCBExp1 Prime_4A Target_6N dafDhij mIGbBja Incongruent left correct Normal 4052.859
702 132 LeftLarger PercCBExp1 Prime_1A Target_1A IFLMaEm lKHfhJI Congruent left error Normal 2291.944
702 133 LeftLarger PercCBExp1 Prime_9A Target_9A bjHBFAc fMImdkl Congruent right correct Normal 2114.129
702 134 LeftLarger PercCBExp1 Prime_6N Target_1A BiJelhH feIMFCE Incongruent left correct Normal 1947.34
702 135 LeftLarger PercCBExp1 Prime_6A Target_9A edmjlbE DBeLfiC Congruent right correct Normal 1691.12
702 136 LeftLarger PercCBExp1 Prime_4A Target_9N JeDGKlB kfAKBHF Incongruent right error Normal 2389.668
702 137 LeftLarger PercCBExp1 Prime_9N Target_6A CcBDHAd KFgdGcD Congruent right correct Normal 1515.138
702 138 LeftLarger PercCBExp1 Prime_1N Target_1A eFbfGid BgaiGfA Congruent left error Normal 1800.391
702 139 LeftLarger PercCBExp1 Prime_9N Target_4A KDMfhlL BfCGHhD Incongruent left correct Normal 2079.113
702 140 LeftLarger PercCBExp1 Prime_9A Target_4A dhlcgDi kgAbimI Incongruent left correct Normal 1304.711
702 141 LeftLarger PercCBExp1 Prime_6N Target_1N ihbdIeK MLEhFAb Incongruent left correct Normal 2618.022
702 142 LeftLarger PercCBExp1 Prime_4N Target_1A CMDjKhi elGcHfF Congruent left error Normal 2464.194
702 143 LeftLarger PercCBExp1 Prime_6N Target_6A cKaiemB iIKMgHf Congruent right correct Normal 1103.683
702 144 LeftLarger PercCBExp1 Prime_4N Target_9A DjfilKF lCgMAjB Incongruent left correct Normal 2058.666
702 145 LeftLarger PercCBExp1 Prime_1A Target_6A kKfLgBj BAIfMkj Incongruent right error Normal 2672.122
702 146 LeftLarger PercCBExp1 Prime_4A Target_4N DgJFiLb ebaGBHl Congruent left error Normal 1699.257
702 147 LeftLarger PercCBExp1 Prime_4N Target_4N lMaKLfD ILKkdBM Congruent left error Normal 2460.92
702 148 LeftLarger PercCBExp1 Prime_6A Target_6N lIkDHig kAfEMcB Congruent left error Normal 2087.977
702 149 LeftLarger PercCBExp1 Prime_9N Target_9A biEAIeg LJjDemg Congruent right correct Normal 1470.337
702 150 LeftLarger PercCBExp1 Prime_4N Target_4A BDJmahg aGEhiIM Congruent left error Normal 2495.205
702 151 LeftLarger PercCBExp1 Prime_9A Target_6A magHiJc ekdAmGI Congruent right correct Normal 1483.952
702 152 LeftLarger PercCBExp1 Prime_1N Target_6A JhMKLDC mbclICj Incongruent right error Normal 1300.139
702 153 LeftLarger PercCBExp1 Prime_9A Target_1N DeMBmgb HckEGbK Incongruent left correct Normal 1114.15
702 154 LeftLarger PercCBExp1 Prime_4N Target_9N MiBGIlF bIfhKja Incongruent left correct Normal 2172.446
702 155 LeftLarger PercCBExp1 Prime_1N Target_1N bDkEHKL maJKkjh Congruent right correct Normal 3969.662
702 156 LeftLarger PercCBExp1 Prime_1A Target_9N JdgFkEe GMLcfIH Incongruent left correct Normal 4561.529
702 157 LeftLarger PercCBExp1 Prime_1N Target_9A eacKiDA GDgHCEM Incongruent left correct Normal 1358.009
702 158 LeftLarger PercCBExp1 Prime_6N Target_4N KAlgaFe FhjMEJk Incongruent left correct Normal 1274.05
702 159 LeftLarger PercCBExp1 Prime_4A Target_1N ikaAhGH fADkhCG Congruent right correct Normal 1531.122
702 160 LeftLarger PercCBExp1 Prime_4N Target_6A DAcFHil fehCEgA Incongruent right error Normal 1979.279
703 1 LeftLarger PercCAPrac Prime_1N Target_9A jAlEfme mHkJAdh Incongruent right error Normal 1849.219
703 2 LeftLarger PercCAPrac Prime_6A Target_6A AHCGFDI eiCbhcJ Congruent left error Normal 1702.524
703 3 LeftLarger PercCAPrac Prime_9N Target_4A AbiIMcd igcblBa Incongruent left correct Normal 1836.217
703 4 LeftLarger PercCAPrac Prime_6N Target_9A fdKhLJC AfmHEMk Congruent right correct Normal 1225.928
703 5 LeftLarger PercCAPrac Prime_4A Target_1A AbfIkHl fchHmGA Congruent left error Normal 1880.722
703 6 LeftLarger PercCAPrac Prime_9N Target_6A mcMFJiK JLHgDCG Congruent right correct Normal 2608.892
703 7 LeftLarger PercCAPrac Prime_6A Target_9A lAejBmE JkbBfDc Congruent right correct Normal 1310.244
703 8 LeftLarger PercCAPrac Prime_4A Target_9A KhfmMbl HhDAmKL Incongruent left correct Normal 1047.889
703 9 LeftLarger PercCAPrac Prime_6N Target_6A cBkgDMf eKBlmMJ Congruent left error Normal 1755.926
703 10 LeftLarger PercCAPrac Prime_1N Target_4A bAJFBHe JGCbKBH Congruent left error Normal 1106.526
703 11 LeftLarger PercCAPrac Prime_1A Target_1A cBAdIGF BglAcea Congruent left error Normal 3171.54
703 12 LeftLarger PercCAPrac Prime_4N Target_4A EkfAaFm EfGAdik Congruent left error Normal 3892.902
703 13 LeftLarger PercCAPrac Prime_1N Target_6A BlEGjaD kAFfCKj Incongruent right error Normal 1691.376
703 14 LeftLarger PercCAPrac Prime_1N Target_6N JcBFgHD eKkAcFf Incongruent right error Normal 1965.396
703 15 LeftLarger PercCAPrac Prime_1A Target_4N FlhGckL FklghiE Congruent right correct Late 7565.844
703 16 LeftLarger PercCAPrac Prime_6A Target_1N GmKJCMi JdhKFDH Incongruent left correct Normal 2782.024
703 17 LeftLarger PercCAExp1 Prime_9A Target_1A IcBAdaJ dFHGlLE Incongruent left correct Normal 1940.026
703 18 LeftLarger PercCAExp1 Prime_9A Target_6A dcaBFlC LcGBKeH Congruent right correct Normal 1602.471
703 19 LeftLarger PercCAExp1 Prime_9A Target_1N dKjMDhi jlIKegJ Incongruent left correct Normal 1888.254
703 20 LeftLarger PercCAExp1 Prime_6A Target_4N HacibFj kFfibCj Incongruent left correct Normal 2110.008
703 21 LeftLarger PercCAExp1 Prime_6N Target_9A BAaCIhH BJIFGLE Congruent right correct Normal 2005.284
703 22 LeftLarger PercCAExp1 Prime_6A Target_9N afkJHce fkdcGaA Congruent right correct Normal 2018.462
703 23 LeftLarger PercCAExp1 Prime_6N Target_1A GIflgDe blcGFEd Incongruent left correct Normal 1347.746
703 24 LeftLarger PercCAExp1 Prime_4N Target_9N kBLgbiK LFBfbeK Incongruent left correct Normal 1897.577
703 25 LeftLarger PercCAExp1 Prime_1N Target_4A EjKHieI DalFijH Congruent left error Normal 1983.279
703 26 LeftLarger PercCAExp1 Prime_1N Target_6A EJmflcC dgDcIKM Incongruent left correct Normal 2688.612
703 27 LeftLarger PercCAExp1 Prime_9N Target_6A amlgfFh ElceiKk Congruent right correct Normal 1809.713
703 28 LeftLarger PercCAExp1 Prime_1N Target_1A AGKlILE dFAEcCD Congruent left error Normal 2898.483
703 29 LeftLarger PercCAExp1 Prime_6N Target_4A adBegAI hGIDdaH Incongruent left correct Normal 2855.042
703 30 LeftLarger PercCAExp1 Prime_4N Target_9A LIJHCcB lfiCLkc Incongruent left correct Normal 2877.652
703 31 LeftLarger PercCAExp1 Prime_4A Target_9A gEMkDAe kJjghmC Incongruent left correct Normal 1559.136
703 32 LeftLarger PercCAExp1 Prime_1N Target_6N BdKaLAM eHEMIDa Incongruent left correct Normal 3240.284
703 33 LeftLarger PercCAExp1 Prime_6A Target_6A IEGHJaA mbLiIKa Congruent left error Normal 2253.001
703 34 LeftLarger PercCAExp1 Prime_6A Target_1A lmIkdgA hAIMeid Incongruent left correct Normal 1713.962
703 35 LeftLarger PercCAExp1 Prime_1A Target_9A JIAMbCd gDlGEbf Incongruent left correct Normal 1283.149
703 36 LeftLarger PercCAExp1 Prime_1N Target_9N lKcfmhk FlBgcJf Incongruent left correct Normal 2635.108
703 37 LeftLarger PercCAExp1 Prime_1A Target_4A BjDEeMm GhaJicd Congruent right correct Normal 1357.907
703 38 LeftLarger PercCAExp1 Prime_1A Target_6A FcCmHei kEdfhgb Incongruent left correct Normal 1289.528
703 39 LeftLarger PercCAExp1 Prime_9A Target_9A GMdADbC IiDkAGh Congruent left error Normal 2714.956
703 40 LeftLarger PercCAExp1 Prime_4A Target_4N AJeMBcl KLDMAIe Congruent right correct Normal 2563.575
703 41 LeftLarger PercCAExp1 Prime_4A Target_6A ACLeIgf lfHekMd Incongruent left correct Normal 1248.332
703 42 LeftLarger PercCAExp1 Prime_6N Target_6A LdahgBA JkAHMIm Congruent left error Normal 1950.295
703 43 LeftLarger PercCAExp1 Prime_4A Target_9N LeGmjbM KDbmdfl Incongruent left correct Normal 1557.415
703 44 LeftLarger PercCAExp1 Prime_9N Target_4A CElHdhL DFJjMCh Incongruent left correct Normal 1556.595
703 45 LeftLarger PercCAExp1 Prime_1A Target_1A cFamGdM CEfHhDG Congruent left error Normal 1889.479
703 46 LeftLarger PercCAExp1 Prime_9A Target_9N JHCjghF McglAbh Congruent right correct Normal 1506.228
703 47 LeftLarger PercCAExp1 Prime_4N Target_1N CBhDMLG mLlBige Congruent right correct Normal 1825.775
703 48 LeftLarger PercCAExp1 Prime_4N Target_4N DmjhbJC KbLEehg Congruent right correct Normal 4164.827
703 49 LeftLarger PercCAExp1 Prime_9A Target_4N dJjaAiK JLHdeCD Incongruent left correct Normal 3139.916
703 50 LeftLarger PercCAExp1 Prime_6N Target_6N JBdhale djFKeDH Congruent right correct Normal 3613.895
703 51 LeftLarger PercCAExp1 Prime_1A Target_6N HCkFjGc LeAcCFg Incongruent left correct Normal 996.3322
703 52 LeftLarger PercCAExp1 Prime_6A Target_4A gEGCdAc kaJlmiM Incongruent left correct Normal 1274.049
703 53 LeftLarger PercCAExp1 Prime_4N Target_4A bdCgFLE MJldEmi Congruent right correct Normal 1995.083
703 54 LeftLarger PercCAExp1 Prime_1A Target_1N mJBFbki FhgkbmG Congruent right correct Normal 1671.928
703 55 LeftLarger PercCAExp1 Prime_4A Target_1A AkIEMFd GhIKaie Congruent right correct Normal 3050.695
703 56 LeftLarger PercCAExp1 Prime_9N Target_1N JeLBHMh fkhBgFH Incongruent left correct Normal 1101.577
703 57 LeftLarger PercCAExp1 Prime_9A Target_6N fiklHCJ LFmJDMA Congruent left error Normal 1774.63
703 58 LeftLarger PercCAExp1 Prime_1A Target_4N kAmLfIJ lAaDMdf Congruent right correct Normal 1142.944
703 59 LeftLarger PercCAExp1 Prime_6A Target_1N CKBeLaG HhEADCd Incongruent left correct Normal 1178.992
703 60 LeftLarger PercCAExp1 Prime_4N Target_6A KfeLJlM MDFiAKG Incongruent left correct Normal 1714.423
703 61 LeftLarger PercCAExp1 Prime_4A Target_1N lgBbiLh djcbLhK Congruent right correct Normal 2964.598
703 62 LeftLarger PercCAExp1 Prime_9N Target_1A GeIafFc hagHJdM Incongruent left correct Normal 1565.357
703 63 LeftLarger PercCAExp1 Prime_6N Target_1N CEdDaKj bDkAeMc Incongruent left correct Normal 1928.826
703 64 LeftLarger PercCAExp1 Prime_9A Target_4A CEgKedB mkeDalc Incongruent left correct Normal 1506.444
703 65 LeftLarger PercCAExp1 Prime_6A Target_6N kKliMDC gMkjhDl Congruent left error Normal 2311.21
703 66 LeftLarger PercCAExp1 Prime_1A Target_9N cIkeAlG IlEBCbM Incongruent left correct Normal 1012.361
703 67 LeftLarger PercCAExp1 Prime_4N Target_1A lEiDHBm LajBIkm Congruent right correct Normal 1240.739
703 68 LeftLarger PercCAExp1 Prime_9N Target_9A ChKfbLH EkHefKd Congruent left error Normal 1923.864
703 69 LeftLarger PercCAExp1 Prime_1N Target_9A EFhdlDG CeMibfE Incongruent left correct Normal 1352.86
703 70 LeftLarger PercCAExp1 Prime_1N Target_1N AmkCdKj AgGedcm Congruent right correct Normal 3233.014
703 71 LeftLarger PercCAExp1 Prime_9N Target_4N DhjgFcA HBikIhD Incongruent left correct Normal 1660.819
703 72 LeftLarger PercCAExp1 Prime_9N Target_6N jfgImGa ejgciaA Congruent left error Normal 2261.146
703 73 LeftLarger PercCAExp1 Prime_4A Target_6N IMbBghk JiIGkjH Incongruent left correct Normal 2339.989
703 74 LeftLarger PercCAExp1 Prime_6A Target_9A hIKmJbB kdFeDgb Congruent right correct Normal 1658.613
703 75 LeftLarger PercCAExp1 Prime_9N Target_9N FkfEDhB ifAGgMa Congruent left error Normal 2170.367
703 76 LeftLarger PercCAExp1 Prime_4A Target_4A GjeagEh MjDebLK Congruent left error Normal 3538.708
703 77 LeftLarger PercCAExp1 Prime_1N Target_4N ijlEbMg HaIcbgl Congruent left error Normal 2099.423
703 78 LeftLarger PercCAExp1 Prime_6N Target_9N GAHEBcj dBEACGk Congruent right correct Normal 1548.479
703 79 LeftLarger PercCAExp1 Prime_4N Target_6N mgMFehH iGemgIh Incongruent left correct Normal 1591.552
703 80 LeftLarger PercCAExp1 Prime_6N Target_4N IjBlKgb CgmMGIH Incongruent left correct Normal 1639.501
703 81 LeftSmaller PercCBPrac Prime_9N Target_4A EMCIejA imIbhkg Incongruent left error Normal 2925.497
703 82 LeftSmaller PercCBPrac Prime_4N Target_6A ibcEKAa JibDkem Incongruent right correct Normal 1721.609
703 83 LeftSmaller PercCBPrac Prime_1A Target_1N KciEAJF MdhLEmf Congruent left correct Normal 1879.247
703 84 LeftSmaller PercCBPrac Prime_1N Target_9N ABjbCdg cGHLDEi Incongruent right correct Normal 1754.009
703 85 LeftSmaller PercCBPrac Prime_6N Target_1N lgBEIHM hECibKc Incongruent right correct Normal 1790.734
703 86 LeftSmaller PercCBPrac Prime_4A Target_9N KeCJbMI DighFlA Incongruent right correct Normal 2211.409
703 87 LeftSmaller PercCBPrac Prime_6N Target_4N GHfehId HChMbjf Incongruent right correct Normal 1435.529
703 88 LeftSmaller PercCBPrac Prime_4N Target_4A mdCEGcb CALEIGH Congruent left correct Normal 2325.239
703 89 LeftSmaller PercCBPrac Prime_4N Target_1A hEaAKbk kfmBeGi Congruent right error Normal 2763.437
703 90 LeftSmaller PercCBPrac Prime_1N Target_4A DJiAadM cfLGAel Congruent left correct Normal 1667.886
703 91 LeftSmaller PercCBPrac Prime_6A Target_9N JjCaHDm JedjhLA Congruent right error Normal 4001.418
703 92 LeftSmaller PercCBPrac Prime_4A Target_6A bdEmaKM JBGgCIE Incongruent left error Normal 1504.232
703 93 LeftSmaller PercCBPrac Prime_4N Target_1N kGhbJeM CBiLmFj Congruent right error Normal 1863.54
703 94 LeftSmaller PercCBPrac Prime_6A Target_6N EaBDHhi AmEGCid Congruent left correct Normal 1103.674
703 95 LeftSmaller PercCBPrac Prime_9A Target_4A gFKlMHe JbkBHCL Incongruent right correct Normal 1781.339
703 96 LeftSmaller PercCBPrac Prime_4A Target_6N gkIciLf JijmcGD Incongruent right correct Normal 2657.967
703 97 LeftSmaller PercCBExp1 Prime_9N Target_1A acFEjHG hdIFamA Incongruent right correct Normal 1691.379
703 98 LeftSmaller PercCBExp1 Prime_9N Target_4A AhkbemI bKajkHl Incongruent left error Normal 983.9656
703 99 LeftSmaller PercCBExp1 Prime_6N Target_6N FJhMeLf bFcLmgh Congruent right error Normal 1247.909
703 100 LeftSmaller PercCBExp1 Prime_4A Target_9N aAihMkb dCakmlL Incongruent right correct Normal 2162.825
703 101 LeftSmaller PercCBExp1 Prime_1N Target_9A gEGAMcD EMgLcDa Incongruent right correct Normal 1070.42
703 102 LeftSmaller PercCBExp1 Prime_1N Target_4A hbEgfjB mjbGDLl Congruent left correct Normal 2234.539
703 103 LeftSmaller PercCBExp1 Prime_1N Target_1N KbfIFde GDebkdA Congruent right error Normal 1844.198
703 104 LeftSmaller PercCBExp1 Prime_4N Target_6A lcjgHKb fDKcgId Incongruent right correct Normal 1359.926
703 105 LeftSmaller PercCBExp1 Prime_6N Target_6A ikhEHFe IHgMCkh Congruent right error Normal 1670.978
703 106 LeftSmaller PercCBExp1 Prime_4N Target_9N IGFdHlh DGJCbBE Incongruent right correct Normal 1413.552
703 107 LeftSmaller PercCBExp1 Prime_9A Target_1A bBeDFli EMliLjb Incongruent right correct Normal 2028.001
703 108 LeftSmaller PercCBExp1 Prime_6N Target_1A CgjdfAI acGJeMK Incongruent right correct Normal 1361.808
703 109 LeftSmaller PercCBExp1 Prime_4A Target_1N keHaKhE fAmhKEI Congruent left correct Normal 1162.116
703 110 LeftSmaller PercCBExp1 Prime_1N Target_1A dmeAgKa DHMFjiJ Congruent left correct Normal 1093.92
703 111 LeftSmaller PercCBExp1 Prime_6A Target_4N MLJjFkD adGJLkc Incongruent right correct Normal 1827.767
703 112 LeftSmaller PercCBExp1 Prime_6A Target_1N hgELdCb KGhdIie Incongruent right correct Normal 2118.29
703 113 LeftSmaller PercCBExp1 Prime_9A Target_6A jdfhMce JjfhHke Congruent right error Normal 825.1036
703 114 LeftSmaller PercCBExp1 Prime_9A Target_9A LgeJBfE BimedFk Congruent right error Normal 1646.254
703 115 LeftSmaller PercCBExp1 Prime_9N Target_9A BGMHbdK JmaglMC Congruent right error Normal 1499.108
703 116 LeftSmaller PercCBExp1 Prime_4N Target_1N eBEfkja AlhBdEK Congruent left correct Normal 833.0158
703 117 LeftSmaller PercCBExp1 Prime_4A Target_6N AEelhak felAacj Incongruent right correct Normal 884.6025
703 118 LeftSmaller PercCBExp1 Prime_6A Target_6A hdgceFD lLDkjKG Congruent right error Normal 1538.344
703 119 LeftSmaller PercCBExp1 Prime_1A Target_4A JlgKmfM bGdmiag Congruent left correct Normal 714.1821
703 120 LeftSmaller PercCBExp1 Prime_6A Target_1A LMJhmaH AhBcIFj Incongruent right correct Normal 808.1434
703 121 LeftSmaller PercCBExp1 Prime_6N Target_4A CDgkiLj dLakFcK Incongruent left error Normal 1618.297
703 122 LeftSmaller PercCBExp1 Prime_9N Target_1N FcKJjdL DdhIJEA Incongruent right correct Normal 871.1789
703 123 LeftSmaller PercCBExp1 Prime_4A Target_4A MJglfcm dGIbLHC Congruent right error Normal 1793.358
703 124 LeftSmaller PercCBExp1 Prime_9N Target_4N fEJAbic cgAHdjI Incongruent right correct Normal 971.1137
703 125 LeftSmaller PercCBExp1 Prime_9N Target_6N DFcjCBm jKbcAGf Congruent left correct Normal 1839.956
703 126 LeftSmaller PercCBExp1 Prime_6N Target_9N jhDElAG ABeIChj Congruent left correct Normal 2290.395
703 127 LeftSmaller PercCBExp1 Prime_1A Target_1A kAIemgL hJFIlaG Congruent right error Normal 1933.094
703 128 LeftSmaller PercCBExp1 Prime_9N Target_9N BaIdikg acBfgbm Congruent right error Normal 1618.665
703 129 LeftSmaller PercCBExp1 Prime_9A Target_1N jKkbBeF LiMCFaI Incongruent right correct Normal 2136.575
703 130 LeftSmaller PercCBExp1 Prime_4N Target_6N FDbLhld HJmdCah Incongruent right correct Normal 1707.03
703 131 LeftSmaller PercCBExp1 Prime_1A Target_6N ACafjMJ EDekcJg Incongruent right correct Normal 1181.251
703 132 LeftSmaller PercCBExp1 Prime_9A Target_4N kKFHMLC mEgcGCL Incongruent right correct Normal 904.7762
703 133 LeftSmaller PercCBExp1 Prime_6N Target_4N bcgBfEC AbEdaJf Incongruent right correct Normal 1842.2
703 134 LeftSmaller PercCBExp1 Prime_1A Target_1N JaGmkeH GcFhEfi Congruent left correct Normal 1131.549
703 135 LeftSmaller PercCBExp1 Prime_4N Target_4A McDKJaL ihDbjEG Congruent right error Normal 1719.345
703 136 LeftSmaller PercCBExp1 Prime_1A Target_4N GMKidjk IiLMGmK Congruent left correct Normal 2379.518
703 137 LeftSmaller PercCBExp1 Prime_4A Target_4N IcGLbgJ CkjLhHF Congruent left correct Normal 1404.086
703 138 LeftSmaller PercCBExp1 Prime_6A Target_9N MDLgIcm CHIhclF Congruent right error Normal 1942.268
703 139 LeftSmaller PercCBExp1 Prime_6N Target_9A LiBhael jDKCAGL Congruent right error Normal 771.9245
703 140 LeftSmaller PercCBExp1 Prime_9A Target_9N KJliFcG BKIfgAe Congruent right error Normal 1105.862
703 141 LeftSmaller PercCBExp1 Prime_1N Target_9N AmchgBd aLmGcgE Incongruent right correct Normal 860.9198
703 142 LeftSmaller PercCBExp1 Prime_4N Target_1A HDIFJGd DJcabkh Congruent left correct Normal 4071.057
703 143 LeftSmaller PercCBExp1 Prime_1N Target_4N aEDMgBm HMBmfde Congruent left correct Normal 962.7115
703 144 LeftSmaller PercCBExp1 Prime_4A Target_1A DFECckG IaDEJMd Congruent left correct Normal 1092.988
703 145 LeftSmaller PercCBExp1 Prime_1A Target_9A AGDjlEh kfIDabg Incongruent right correct Normal 851.1899
703 146 LeftSmaller PercCBExp1 Prime_6N Target_1N abeCKEm iAHhmIk Incongruent right correct Normal 1249.586
703 147 LeftSmaller PercCBExp1 Prime_1A Target_9N kcKaHGI jGDmfBk Incongruent right correct Normal 2019.981
703 148 LeftSmaller PercCBExp1 Prime_9A Target_6N dHlMAfi JAkmcdf Congruent left correct Normal 1328.069
703 149 LeftSmaller PercCBExp1 Prime_6A Target_4A DHeBEcm jEJChHc Incongruent right correct Normal 1963.88
703 150 LeftSmaller PercCBExp1 Prime_6A Target_6N eHklLEF DiBFkGJ Congruent right error Normal 1265.225
703 151 LeftSmaller PercCBExp1 Prime_4A Target_6A GgbJcLD DeiljCG Incongruent left error Normal 1137.266
703 152 LeftSmaller PercCBExp1 Prime_1A Target_6A fiFdgJD aIKJDbe Incongruent right correct Normal 978.1514
703 153 LeftSmaller PercCBExp1 Prime_4N Target_9A hJcGBmf BhmGgjc Incongruent right correct Normal 1196.312
703 154 LeftSmaller PercCBExp1 Prime_6A Target_9A dJkmCAh BLDHCFE Congruent right error Normal 774.9169
703 155 LeftSmaller PercCBExp1 Prime_4N Target_4N lKFgJCL Akgmjfd Congruent right error Normal 1243.821
703 156 LeftSmaller PercCBExp1 Prime_1N Target_6A jiGCfFL imJDHkG Incongruent right correct Normal 1222.286
703 157 LeftSmaller PercCBExp1 Prime_1N Target_6N fcbMeLF lGADkBa Incongruent right correct Normal 1129.498
703 158 LeftSmaller PercCBExp1 Prime_9N Target_6A fClghHA MaeFdIG Congruent left correct Normal 1199.53
703 159 LeftSmaller PercCBExp1 Prime_9A Target_4A jkAKLCH LegFHDm Incongruent right correct Normal 856.787
703 160 LeftSmaller PercCBExp1 Prime_4A Target_9A fKLJFGh hdilIMf Incongruent right correct Normal 1120.789
704 1 LeftLarger PercCAPrac Prime_6A Target_1A GmFHeBE gaGKeDC Incongruent left correct Normal 1699.539
704 2 LeftLarger PercCAPrac Prime_6N Target_9N LlaeEDb mIclEbk Congruent right correct Normal 2419.941
704 3 LeftLarger PercCAPrac Prime_1N Target_4A iLMJHIC iMkhJec Congruent left error Normal 2653.388
704 4 LeftLarger PercCAPrac Prime_4A Target_9A Kmjhlcg CLbKEid Incongruent left correct Normal 1972.707
704 5 LeftLarger PercCAPrac Prime_6A Target_6A fFaidLC EceaCbh Congruent left error Normal 3088.348
704 6 LeftLarger PercCAPrac Prime_1A Target_9N fIdmiDl KhBJicA Incongruent left correct Normal 1953.221
704 7 LeftLarger PercCAPrac Prime_9N Target_4N FIaDfdJ cdlIMHk Incongruent right error Normal 4435.256
704 8 LeftLarger PercCAPrac Prime_6A Target_1N gLHMiJK EcgMHIi Incongruent left correct Normal 3403.765
704 9 LeftLarger PercCAPrac Prime_4A Target_1A kAfmgJI imLCjFK Congruent left error Normal 3082.153
704 10 LeftLarger PercCAPrac Prime_6N Target_4N EfegJFm fimBKaj Incongruent left correct Normal 4403.419
704 11 LeftLarger PercCAPrac Prime_9N Target_6N EaILkHm jDkJhEI Congruent right correct Normal 1508.976
704 12 LeftLarger PercCAPrac Prime_4N Target_1A BeDhblg JAIcfdB Congruent left error Normal 1308.72
704 13 LeftLarger PercCAPrac Prime_1A Target_9A JmIeFHg AeljdDK Incongruent right error Normal 2544.555
704 14 LeftLarger PercCAPrac Prime_4A Target_6N LCEmekK MJIaCjh Incongruent left correct Normal 1681.149
704 15 LeftLarger PercCAPrac Prime_1N Target_1N KhdbMHL ehaEdMD Congruent left error Normal 3052.584
704 16 LeftLarger PercCAPrac Prime_6N Target_1A emkAiaC CDHMeaK Incongruent right error Normal 2978.388
704 17 LeftLarger PercCAExp1 Prime_9N Target_4A kebaJLm amifjEJ Incongruent left correct Normal 2356.555
704 18 LeftLarger PercCAExp1 Prime_1N Target_4N JHAGFhI mdfFaKk Congruent right correct Normal 3458.488
704 19 LeftLarger PercCAExp1 Prime_6A Target_4A EhdcmiC BkGKChm Incongruent left correct Normal 1752.93
704 20 LeftLarger PercCAExp1 Prime_4N Target_1N idAIhcB dhAaglL Congruent right correct Normal 1824.059
704 21 LeftLarger PercCAExp1 Prime_6N Target_4A cEBjkdC KCkaLEA Incongruent left correct Normal 2039.524
704 22 LeftLarger PercCAExp1 Prime_6N Target_1A LBlGAji gaFlhfb Incongruent left correct Normal 1732.551
704 23 LeftLarger PercCAExp1 Prime_9A Target_9A aDKmdjf ACbagiB Congruent right correct Normal 2416.609
704 24 LeftLarger PercCAExp1 Prime_1A Target_4N amCflcE lKgbGHA Congruent left error Normal 1541.049
704 25 LeftLarger PercCAExp1 Prime_4A Target_6A jBILGak DjBKblI Incongruent left correct Normal 1279.842
704 26 LeftLarger PercCAExp1 Prime_9A Target_1A aijehkc aHLCAEJ Incongruent left correct Normal 1373.9
704 27 LeftLarger PercCAExp1 Prime_1A Target_9A kFgcCAh cEDJCBh Incongruent right error Normal 3209.696
704 28 LeftLarger PercCAExp1 Prime_9A Target_4A JibmEhc EJhGlDj Incongruent left correct Normal 2079.368
704 29 LeftLarger PercCAExp1 Prime_4N Target_1A EMgfCFI dcDEjCf Congruent right correct Normal 1179.392
704 30 LeftLarger PercCAExp1 Prime_9A Target_6N MmiLCIJ HlIbAGi Congruent right correct Normal 1832.441
704 31 LeftLarger PercCAExp1 Prime_9A Target_1N lcjCEaG JLIadHl Incongruent left correct Normal 2027.984
704 32 LeftLarger PercCAExp1 Prime_1A Target_9N FBbMeGL LeKBdDG Incongruent left correct Normal 1865.517
704 33 LeftLarger PercCAExp1 Prime_1N Target_9A gDdClbK bfhILgA Incongruent left correct Normal 2702.101
704 34 LeftLarger PercCAExp1 Prime_4A Target_9N fiBgbJc KCMJEja Incongruent left correct Normal 3376.064
704 35 LeftLarger PercCAExp1 Prime_6A Target_1A aicfkJG eciIgkM Incongruent right error Normal 2461.9
704 36 LeftLarger PercCAExp1 Prime_1A Target_1A IiGhCaD lIiHGec Congruent right correct Normal 1756.118
704 37 LeftLarger PercCAExp1 Prime_4N Target_6N aAgLfCj ckJLifG Incongruent right error Normal 2227.792
704 38 LeftLarger PercCAExp1 Prime_6A Target_1N kLDdcif mGMhAiI Incongruent left correct Normal 1922.368
704 39 LeftLarger PercCAExp1 Prime_1N Target_6A kcaDMIB BjbKfak Incongruent left correct Normal 1998.19
704 40 LeftLarger PercCAExp1 Prime_4A Target_9A hejaJkd JmaciEh Incongruent left correct Normal 1789.765
704 41 LeftLarger PercCAExp1 Prime_9N Target_1N GIgdEDB cJagjIL Incongruent left correct Normal 1599.33
704 42 LeftLarger PercCAExp1 Prime_1N Target_4A IAblFLD HKlCjFb Congruent right correct Normal 1489.01
704 43 LeftLarger PercCAExp1 Prime_4A Target_4N chkaMDm HGekacJ Congruent right correct Normal 1469.584
704 44 LeftLarger PercCAExp1 Prime_4N Target_9A BIcFalA cFjhKMH Incongruent left correct Normal 1105.385
704 45 LeftLarger PercCAExp1 Prime_9N Target_9A AbfCekl iDECFaH Congruent left error Normal 3705.347
704 46 LeftLarger PercCAExp1 Prime_9A Target_6A BkgbJaL CAlfIik Congruent right correct Normal 1336.889
704 47 LeftLarger PercCAExp1 Prime_6N Target_9N ijBDHdg mKFEMjd Congruent right correct Normal 1701.567
704 48 LeftLarger PercCAExp1 Prime_9N Target_9N fkCGdMb haJiCeI Congruent right correct Normal 2182.384
704 49 LeftLarger PercCAExp1 Prime_1A Target_6A hFdCcig dGmfDAe Incongruent left correct Normal 1839.212
704 50 LeftLarger PercCAExp1 Prime_9A Target_4N IfhmJaE IFMbdkg Incongruent left correct Normal 1756.394
704 51 LeftLarger PercCAExp1 Prime_6N Target_6A caJjlHK fIlDFGK Congruent left error Normal 3573.833
704 52 LeftLarger PercCAExp1 Prime_6A Target_6A ClmEcaJ LaJkcBb Congruent right correct Normal 1307.071
704 53 LeftLarger PercCAExp1 Prime_6N Target_1N geGlhcF cbCKeFD Incongruent left correct Normal 2379.094
704 54 LeftLarger PercCAExp1 Prime_1N Target_9N gklEbGA LJeKcFm Incongruent right error Normal 2475.167
704 55 LeftLarger PercCAExp1 Prime_4A Target_1A KDIlaMj fIJbimh Congruent right correct Normal 1359.027
704 56 LeftLarger PercCAExp1 Prime_4N Target_9N gblJhGA CMkhcGb Incongruent left correct Normal 1638.805
704 57 LeftLarger PercCAExp1 Prime_4N Target_4A BKCFaDl HAmGebk Congruent left error Normal 2218.985
704 58 LeftLarger PercCAExp1 Prime_4A Target_1N cFgCMLj cgAhkdJ Congruent right correct Normal 1193.571
704 59 LeftLarger PercCAExp1 Prime_6N Target_6N ALIFChE LEKGDaF Congruent left error Normal 1948.187
704 60 LeftLarger PercCAExp1 Prime_6A Target_9A IdmfKBC bihceJK Congruent right correct Normal 1378.331
704 61 LeftLarger PercCAExp1 Prime_6N Target_4N lAcmgkf hgMciGJ Incongruent right error Normal 2347.224
704 62 LeftLarger PercCAExp1 Prime_4A Target_6N akdFJbg gkIAjch Incongruent left correct Normal 1715.561
704 63 LeftLarger PercCAExp1 Prime_6N Target_9A KceHiGg AGlKIHd Congruent right correct Normal 1638.993
704 64 LeftLarger PercCAExp1 Prime_9N Target_1A KICdiFa mflhdLJ Incongruent left correct Normal 2193.042
704 65 LeftLarger PercCAExp1 Prime_1N Target_1N kjJghim HjcJgGB Congruent left error Normal 3331.065
704 66 LeftLarger PercCAExp1 Prime_1A Target_6N AFMefgE IgFEALf Incongruent left correct Normal 4410.418
704 67 LeftLarger PercCAExp1 Prime_1A Target_1N dMhDImL bldcAGE Congruent right correct Normal 2251.454
704 68 LeftLarger PercCAExp1 Prime_9N Target_6N eJmjabG aFbBiDh Congruent right correct Normal 1463.877
704 69 LeftLarger PercCAExp1 Prime_4N Target_4N ekcdBab bgIBmlC Congruent right correct Normal 3881.915
704 70 LeftLarger PercCAExp1 Prime_9N Target_6A ahdMiEe mhAMgcJ Congruent right correct Normal 2215.767
704 71 LeftLarger PercCAExp1 Prime_9N Target_4N DbJLHif KACeiIL Incongruent right error Normal 3392.467
704 72 LeftLarger PercCAExp1 Prime_6A Target_9N fgekbMD AdJcmhI Congruent right correct Normal 1562.953
704 73 LeftLarger PercCAExp1 Prime_1A Target_4A LHMFiag hHiAbFl Congruent left error Normal 2458.374
704 74 LeftLarger PercCAExp1 Prime_6A Target_6N KfIMjFe cgGEbAd Congruent right correct Normal 1334.472
704 75 LeftLarger PercCAExp1 Prime_4A Target_4A FBMClbL geBjMhA Congruent right correct Normal 2192.219
704 76 LeftLarger PercCAExp1 Prime_1N Target_6N EfcHFaJ mIdHhKe Incongruent right error Normal 1926.972
704 77 LeftLarger PercCAExp1 Prime_4N Target_6A cfDFLEk kcCdDgi Incongruent right error Normal 2219.549
704 78 LeftLarger PercCAExp1 Prime_1N Target_1A AEGFIcL klbKIiB Congruent right correct Normal 2210.725
704 79 LeftLarger PercCAExp1 Prime_9A Target_9N eGIHaDM kCBlbDK Congruent right correct Normal 1772.207
704 80 LeftLarger PercCAExp1 Prime_6A Target_4N LfKHEJh aCghjbK Incongruent left correct Normal 1424.742
704 81 LeftSmaller PercCBPrac Prime_4N Target_4A KDEiGFh GMEJjCf Congruent left correct Normal 3060.552
704 82 LeftSmaller PercCBPrac Prime_1N Target_6A DbjJlBF miCEgfK Incongruent right correct Normal 2079.561
704 83 LeftSmaller PercCBPrac Prime_4A Target_9N fkhKFeg AMmFLcf Incongruent right correct Normal 1214.975
704 84 LeftSmaller PercCBPrac Prime_9N Target_1N CjIlJLf cbjmhdl Incongruent right correct Normal 1779.376
704 85 LeftSmaller PercCBPrac Prime_1N Target_4A KjegiGA BaKEAFJ Congruent left correct Normal 2402.652
704 86 LeftSmaller PercCBPrac Prime_6N Target_1N iAkLJdG lcehfdg Incongruent right correct Normal 1688.443
704 87 LeftSmaller PercCBPrac Prime_6A Target_1N mhaIAFc KBejHAL Incongruent right correct Normal 2112.839
704 88 LeftSmaller PercCBPrac Prime_4A Target_4A HGDkAmd KcMijLA Congruent left correct Normal 1919.566
704 89 LeftSmaller PercCBPrac Prime_9N Target_9N LGAidkJ GCBIMDm Congruent right error Normal 2943.33
704 90 LeftSmaller PercCBPrac Prime_4A Target_6A HFbKhcG BlmHiMd Incongruent right correct Normal 1549.335
704 91 LeftSmaller PercCBPrac Prime_6N Target_9N jmfgMJd bjmigdk Congruent right error Normal 3354.411
704 92 LeftSmaller PercCBPrac Prime_9A Target_1A fgFdMaC KJcCfmI Incongruent right correct Normal 1125.525
704 93 LeftSmaller PercCBPrac Prime_6N Target_9A MgbjkLi BHIhkca Congruent left correct Normal 4675.734
704 94 LeftSmaller PercCBPrac Prime_6N Target_4N KfJEjli mAEJIbL Incongruent right correct Normal 1239.627
704 95 LeftSmaller PercCBPrac Prime_4N Target_1N JFcdfHI bkKaigd Congruent left correct Normal 1895.438
704 96 LeftSmaller PercCBPrac Prime_6A Target_9N iCHFdhI glFhHdA Congruent right error Normal 4217.704
704 97 LeftSmaller PercCBExp1 Prime_9N Target_9A eKMiElD IAglFbJ Congruent left correct Normal 1993.222
704 98 LeftSmaller PercCBExp1 Prime_4A Target_4N IDkfhcK lDLAeMJ Congruent left correct Normal 1884.947
704 99 LeftSmaller PercCBExp1 Prime_4A Target_6A LaHeGim LAikmGF Incongruent right correct Normal 2885.418
704 100 LeftSmaller PercCBExp1 Prime_4A Target_1N EKDkhmf KFgmjGc Congruent left correct Normal 2129.167
704 101 LeftSmaller PercCBExp1 Prime_4A Target_4A fKejBCJ GABbhCM Congruent left correct Normal 3279.902
704 102 LeftSmaller PercCBExp1 Prime_4N Target_1A MkJbLEF KbjILBM Congruent left correct Normal 1381.444
704 103 LeftSmaller PercCBExp1 Prime_9N Target_4A leFkDCf DHjIMJF Incongruent right correct Normal 1661.229
704 104 LeftSmaller PercCBExp1 Prime_9A Target_9N iAJglDL MhImikb Congruent right error Normal 1495.464
704 105 LeftSmaller PercCBExp1 Prime_6A Target_4A BaegFIf cEBJfKL Incongruent right correct Normal 1796.207
704 106 LeftSmaller PercCBExp1 Prime_6N Target_1N fGDIcdl DAGagik Incongruent right correct Normal 4827.563
704 107 LeftSmaller PercCBExp1 Prime_4N Target_6A daAKHBJ eKgGhdD Incongruent right correct Normal 1871.564
704 108 LeftSmaller PercCBExp1 Prime_4A Target_1A KCgGmBL gIlbdHm Congruent right error Normal 2883.052
704 109 LeftSmaller PercCBExp1 Prime_1N Target_6A hAkiKmB AlhigkJ Incongruent right correct Normal 3999.472
704 110 LeftSmaller PercCBExp1 Prime_1N Target_6N AgLDKBe CMFmacb Incongruent left error Normal 1840.818
704 111 LeftSmaller PercCBExp1 Prime_6N Target_4N cjCikdl GjKkBiE Incongruent right correct Normal 2748.15
704 112 LeftSmaller PercCBExp1 Prime_6A Target_9N MFJCaBh FjIihED Congruent left correct Normal 2106.08
704 113 LeftSmaller PercCBExp1 Prime_1N Target_4A ijJfKkL eGCJjdI Congruent left correct Normal 2565.267
704 114 LeftSmaller PercCBExp1 Prime_1N Target_9A gKAlaLj lKgIHLB Incongruent left error Normal 3618.807
704 115 LeftSmaller PercCBExp1 Prime_6A Target_1A kdiCMeA mCBIblg Incongruent right correct Normal 1808.081
704 116 LeftSmaller PercCBExp1 Prime_6N Target_6A ifhlMAL LHldMbE Congruent right error Normal 4538.693
704 117 LeftSmaller PercCBExp1 Prime_6A Target_6A FMdKlAH BcIGjEl Congruent left correct Normal 3381.402
704 118 LeftSmaller PercCBExp1 Prime_6N Target_4A FiKbfkC MEhKLBf Incongruent left error Normal 2946.19
704 119 LeftSmaller PercCBExp1 Prime_1A Target_6N IaeAdKC BeIlJiL Incongruent right correct Normal 1843.664
704 120 LeftSmaller PercCBExp1 Prime_1N Target_4N mMkAjKb EeDLAJC Congruent right error Normal 2350.59
704 121 LeftSmaller PercCBExp1 Prime_9N Target_4N MaJdKHb mgJcFBl Incongruent right correct Normal 1713.798
704 122 LeftSmaller PercCBExp1 Prime_1A Target_6A eBLJgfb kDfLGJi Incongruent right correct Normal 3927.701
704 123 LeftSmaller PercCBExp1 Prime_4N Target_4A bmeAGlj mdhBJCf Congruent left correct Normal 3063.56
704 124 LeftSmaller PercCBExp1 Prime_4N Target_4N BhcbFlM cHGglbC Congruent left correct Normal 2271.74
704 125 LeftSmaller PercCBExp1 Prime_9N Target_1N GjFHMBJ DmecaMg Incongruent right correct Normal 1628.1
704 126 LeftSmaller PercCBExp1 Prime_4A Target_9A lbIaHhL jEcekgD Incongruent right correct Normal 1807.87
704 127 LeftSmaller PercCBExp1 Prime_1A Target_1N chBjdaA JkFAiMK Congruent left correct Normal 2466.107
704 128 LeftSmaller PercCBExp1 Prime_6A Target_6N AKfkILh abIdGgD Congruent right error Normal 1740.59
704 129 LeftSmaller PercCBExp1 Prime_1N Target_1A EfglhiD fmejikM Congruent left correct Normal 1592.993
704 130 LeftSmaller PercCBExp1 Prime_9N Target_9N GEhJkFD dkJmfMA Congruent left correct Normal 2928.533
704 131 LeftSmaller PercCBExp1 Prime_4N Target_6N EdMiFIC digLecm Incongruent right correct Normal 2633.794
704 132 LeftSmaller PercCBExp1 Prime_6N Target_9A dAgDbkh FmiEaGH Congruent left correct Normal 1717.903
704 133 LeftSmaller PercCBExp1 Prime_9N Target_6A BDELabd jfJiFkC Congruent left correct Normal 1673.659
704 134 LeftSmaller PercCBExp1 Prime_9A Target_4A lAGMBiL lebHaFC Incongruent right correct Normal 2572.535
704 135 LeftSmaller PercCBExp1 Prime_1A Target_4N IElLaed dDfeJgm Congruent left correct Normal 2615.01
704 136 LeftSmaller PercCBExp1 Prime_9A Target_1N bJjLGek KJhHCfE Incongruent right correct Normal 2738.478
704 137 LeftSmaller PercCBExp1 Prime_6A Target_4N fFdhDig AMdEBjK Incongruent right correct Normal 2182.585
704 138 LeftSmaller PercCBExp1 Prime_4A Target_9N aAiMbje dGkIHMe Incongruent right correct Normal 1930.398
704 139 LeftSmaller PercCBExp1 Prime_1A Target_1A lecbdKM DjmkCBF Congruent right error Normal 4784.666
704 140 LeftSmaller PercCBExp1 Prime_9N Target_6N jAgEaDJ fglmJMB Congruent left correct Normal 1182.968
704 141 LeftSmaller PercCBExp1 Prime_9N Target_1A hefMaiL eMFcljB Incongruent right correct Normal 1830.404
704 142 LeftSmaller PercCBExp1 Prime_4N Target_1N JDBFjfh ieIhfjb Congruent left correct Normal 1263.999
704 143 LeftSmaller PercCBExp1 Prime_6A Target_1N HmMGbDE MBlkeCJ Incongruent right correct Normal 1667.64
704 144 LeftSmaller PercCBExp1 Prime_1N Target_9N EBJdFKh KLMCHDA Incongruent right correct Normal 2631.042
704 145 LeftSmaller PercCBExp1 Prime_9A Target_1A kKHidCl hlHdbJK Incongruent right correct Normal 3625.948
704 146 LeftSmaller PercCBExp1 Prime_9A Target_6N aceLmjh jGhlcHe Congruent left correct Normal 1374.219
704 147 LeftSmaller PercCBExp1 Prime_1A Target_4A cgimakj jgmFIfb Congruent left correct Normal 1568.654
704 148 LeftSmaller PercCBExp1 Prime_6N Target_6N ADIHelL MhBgmDc Congruent left correct Normal 2299.545
704 149 LeftSmaller PercCBExp1 Prime_9A Target_9A mhCcBLj mHcFDJi Congruent right error Normal 2848.77
704 150 LeftSmaller PercCBExp1 Prime_6A Target_9A MjmFikc CKEjgHe Congruent left correct Normal 2824.118
704 151 LeftSmaller PercCBExp1 Prime_6N Target_1A gleBjKc kadgAFL Incongruent right correct Normal 3513.761
704 152 LeftSmaller PercCBExp1 Prime_1A Target_9N jAIHgKa KEiDfkg Incongruent right correct Normal 1484.684
704 153 LeftSmaller PercCBExp1 Prime_4A Target_6N KILfeJk fGDjFiJ Incongruent right correct Normal 1597.868
704 154 LeftSmaller PercCBExp1 Prime_1N Target_1N BcCefgI CiJfLkh Congruent left correct Normal 3788.266
704 155 LeftSmaller PercCBExp1 Prime_4N Target_9N ADkHJbe IdJfkHi Incongruent right correct Normal 3389.181
704 156 LeftSmaller PercCBExp1 Prime_4N Target_9A FEdceCk HGcClKe Incongruent right correct Normal 3075.077
704 157 LeftSmaller PercCBExp1 Prime_6N Target_9N kFBIaLd BmKGacb Congruent left correct Normal 2786.297
704 158 LeftSmaller PercCBExp1 Prime_9A Target_6A djaECMc JdGmlfg Congruent right error Normal 3952.109
704 159 LeftSmaller PercCBExp1 Prime_9A Target_4N AgaCdcj KcfBJdE Incongruent right correct Normal 1561.867
704 160 LeftSmaller PercCBExp1 Prime_1A Target_9A AmJFGif BlcdKgG Incongruent left error Normal 3132.289
705 1 LeftSmaller PercCAPrac Prime_9A Target_1A AhHkDlL IFbCjBl Incongruent right correct Normal 1390.659
705 2 LeftSmaller PercCAPrac Prime_1A Target_4A dleMLfE FjMEmLG Congruent left correct Normal 780.4695
705 3 LeftSmaller PercCAPrac Prime_6N Target_4A mAkhfJa JjkacKf Incongruent left error Normal 1075.136
705 4 LeftSmaller PercCAPrac Prime_9N Target_9A iFjhHJl BdiKAcL Congruent left correct Normal 1149.596
705 5 LeftSmaller PercCAPrac Prime_6A Target_4A fKcGmaM aDedGAL Incongruent right correct Normal 1353.34
705 6 LeftSmaller PercCAPrac Prime_6N Target_1A gLhEKJA LEhDmjA Incongruent right correct Normal 1657.372
705 7 LeftSmaller PercCAPrac Prime_6N Target_9N ckKAbEl DcLJmIF Congruent left correct Normal 1690.532
705 8 LeftSmaller PercCAPrac Prime_9A Target_6A MiAIacC imCgHIE Congruent left correct Normal 1379.885
705 9 LeftSmaller PercCAPrac Prime_4A Target_6A LlBFfEH jBfhmFH Incongruent right correct Normal 1091.592
705 10 LeftSmaller PercCAPrac Prime_1A Target_6N HMJEhLm MIhbAkc Incongruent right correct Normal 1292.619
705 11 LeftSmaller PercCAPrac Prime_1N Target_6A dbAcHKG dIgiHDc Incongruent right correct Normal 1630.179
705 12 LeftSmaller PercCAPrac Prime_4A Target_4A EiaFCjl ebimCFj Congruent left correct Normal 1278.104
705 13 LeftSmaller PercCAPrac Prime_9N Target_4A lfkGKjb mbCeclK Incongruent right correct Normal 1428.306
705 14 LeftSmaller PercCAPrac Prime_4A Target_4N kMCFAIG HAEmfBe Congruent right error Normal 1192.877
705 15 LeftSmaller PercCAPrac Prime_9A Target_4A CDJmbdG ACfhEIL Incongruent right correct Normal 1339.912
705 16 LeftSmaller PercCAPrac Prime_4N Target_9N AjdlEaG beDchkJ Incongruent right correct Normal 1073.354
705 17 LeftSmaller PercCAExp1 Prime_9N Target_6A bAmfgLK iGFkdCH Congruent left correct Normal 1502.959
705 18 LeftSmaller PercCAExp1 Prime_1A Target_6N GFIEKDB khBfEeA Incongruent right correct Normal 2060.209
705 19 LeftSmaller PercCAExp1 Prime_6N Target_6N LebjGIC bAghcKd Congruent left correct Normal 1677.951
705 20 LeftSmaller PercCAExp1 Prime_1A Target_9N miIcDAJ dKJIkDb Incongruent right correct Normal 1354.726
705 21 LeftSmaller PercCAExp1 Prime_1N Target_9N hcjaCKf eDgiHmI Incongruent left error Normal 1341.068
705 22 LeftSmaller PercCAExp1 Prime_1N Target_1N eifCEGl DJCeEbk Congruent right error Normal 1635.91
705 23 LeftSmaller PercCAExp1 Prime_1N Target_9A DGahlFg fHjhLJc Incongruent left error Normal 1483.057
705 24 LeftSmaller PercCAExp1 Prime_4N Target_1A JbFigCc CcdGaMB Congruent right error Normal 1464.014
705 25 LeftSmaller PercCAExp1 Prime_6A Target_1A lFghfbD BeCAFKf Incongruent right correct Normal 1860.921
705 26 LeftSmaller PercCAExp1 Prime_1A Target_4A clJeHKD klDELhg Congruent left correct Normal 1277.988
705 27 LeftSmaller PercCAExp1 Prime_6A Target_9A LJlaHEj lfjKamd Congruent right error Normal 1869.655
705 28 LeftSmaller PercCAExp1 Prime_4A Target_4A fLMChcK BiDAIJh Congruent right error Normal 1745.736
705 29 LeftSmaller PercCAExp1 Prime_1A Target_6A gmGfMbe IcALgKj Incongruent right correct Normal 2783.516
705 30 LeftSmaller PercCAExp1 Prime_4N Target_1N ACfkEFb bCEDLjF Congruent left correct Normal 2076.991
705 31 LeftSmaller PercCAExp1 Prime_1N Target_6A lEachfG mJjLfEl Incongruent right correct Normal 2329.627
705 32 LeftSmaller PercCAExp1 Prime_6A Target_4N AIhejGF akKHDEd Incongruent right correct Normal 2344.853
705 33 LeftSmaller PercCAExp1 Prime_4N Target_4A KfBHkiF clJEgKa Congruent right error Normal 2222.601
705 34 LeftSmaller PercCAExp1 Prime_4N Target_6A gDMbEKa AcMbmEL Incongruent left error Normal 1887.457
705 35 LeftSmaller PercCAExp1 Prime_9A Target_1A MhfdcKB JDclihH Incongruent right correct Normal 1580.219
705 36 LeftSmaller PercCAExp1 Prime_4A Target_1A MEhGmFA ICedDbF Congruent right error Normal 3476.628
705 37 LeftSmaller PercCAExp1 Prime_6N Target_1A IbjaCGE fKgEekA Incongruent right correct Normal 2528.469
705 38 LeftSmaller PercCAExp1 Prime_4A Target_4N lKaLckJ HFMGJIm Congruent right error Normal 1725.451
705 39 LeftSmaller PercCAExp1 Prime_6A Target_6N JmdDkEA aHdjgAG Congruent right error Normal 1873.152
705 40 LeftSmaller PercCAExp1 Prime_6N Target_6A lBaFLKm AGMaKil Congruent right error Normal 1715.82
705 41 LeftSmaller PercCAExp1 Prime_9N Target_1N cGMClkD AECbFhL Incongruent left error Normal 2304.012
705 42 LeftSmaller PercCAExp1 Prime_1N Target_6N AIlKbdH bCEjBGH Incongruent right correct Normal 2711.07
705 43 LeftSmaller PercCAExp1 Prime_9N Target_9N dgbCEaJ liFdDHC Congruent right error Normal 1219.4
705 44 LeftSmaller PercCAExp1 Prime_9A Target_6A JBGlaIg MgaGclB Congruent left correct Normal 3757.179
705 45 LeftSmaller PercCAExp1 Prime_4A Target_6N jIgkchK eKEDfgM Incongruent right correct Normal 1668.062
705 46 LeftSmaller PercCAExp1 Prime_1N Target_4N GlHMcJk DGBiKIh Congruent left correct Normal 1975.74
705 47 LeftSmaller PercCAExp1 Prime_9A Target_9A LkgEMhd lIifDGe Congruent right error Normal 2616.402
705 48 LeftSmaller PercCAExp1 Prime_4A Target_9N cigDCkf fkGaBdm Incongruent right correct Normal 2740.717
705 49 LeftSmaller PercCAExp1 Prime_4A Target_1N egildFE dlJLHjD Congruent left correct Normal 983.6012
705 50 LeftSmaller PercCAExp1 Prime_6A Target_9N EkaHjFL ClBMehf Congruent left correct Normal 1930.902
705 51 LeftSmaller PercCAExp1 Prime_9N Target_9A ihgaCFE ClkmaGc Congruent left correct Normal 2740.817
705 52 LeftSmaller PercCAExp1 Prime_1A Target_1N eMDiBaK eIcfFAJ Congruent right error Normal 1562.767
705 53 LeftSmaller PercCAExp1 Prime_6A Target_4A DKecaBb cJMgCEf Incongruent right correct Normal 2607.587
705 54 LeftSmaller PercCAExp1 Prime_6N Target_9A AdcCbjH MKfchdC Congruent right error Normal 1802.927
705 55 LeftSmaller PercCAExp1 Prime_4N Target_4N ibcCjhJ cCiJhbj Congruent left correct Normal 3075.212
705 56 LeftSmaller PercCAExp1 Prime_9N Target_4A mjcCiMA AaHFEei Incongruent right correct Normal 1879.496
705 57 LeftSmaller PercCAExp1 Prime_9N Target_4N BcaMCIE GjBKDed Incongruent right correct Normal 2037.206
705 58 LeftSmaller PercCAExp1 Prime_6N Target_9N dDeGfiB KDLIdkh Congruent left correct Normal 1506.653
705 59 LeftSmaller PercCAExp1 Prime_6A Target_1N MLgEkfi fIecFah Incongruent right correct Normal 2016.781
705 60 LeftSmaller PercCAExp1 Prime_1N Target_1A CackGDK HkfcgEI Congruent left correct Normal 2186.997
705 61 LeftSmaller PercCAExp1 Prime_4N Target_6N DdjMmEh amLJhFd Incongruent left error Normal 1885.758
705 62 LeftSmaller PercCAExp1 Prime_6N Target_1N acJflMm KiaCbFh Incongruent right correct Normal 3910.938
705 63 LeftSmaller PercCAExp1 Prime_4N Target_9A bcaJdfD bCMLFIc Incongruent right correct Normal 2096.166
705 64 LeftSmaller PercCAExp1 Prime_4A Target_9A ldjHKiC AhJaDGb Incongruent right correct Normal 1431.265
705 65 LeftSmaller PercCAExp1 Prime_9A Target_1N mfMbahd edDGbME Incongruent right correct Normal 1596.31
705 66 LeftSmaller PercCAExp1 Prime_4A Target_6A FbglDIe aFEDAjb Incongruent right correct Normal 1997.507
705 67 LeftSmaller PercCAExp1 Prime_6N Target_4A KbijIdm aHbMdmA Incongruent left error Normal 2110.469
705 68 LeftSmaller PercCAExp1 Prime_6A Target_6A MKIcdCj eGLHIgK Congruent left correct Normal 2928.582
705 69 LeftSmaller PercCAExp1 Prime_9A Target_4N lEakFKe eMGijLF Incongruent right correct Normal 1817.944
705 70 LeftSmaller PercCAExp1 Prime_9A Target_9N jFJgfce Jciemlk Congruent right error Normal 2092.777
705 71 LeftSmaller PercCAExp1 Prime_1N Target_4A lGdAkMc gbMaKGL Congruent left correct Normal 3020.061
705 72 LeftSmaller PercCAExp1 Prime_9N Target_6N ijleBfD hBCHmdF Congruent right error Normal 1755.414
705 73 LeftSmaller PercCAExp1 Prime_4N Target_9N CMhgcId EkKAHla Incongruent right correct Normal 1709.703
705 74 LeftSmaller PercCAExp1 Prime_1A Target_9A mfHEDBC BbaLJMg Incongruent left error Normal 1607.113
705 75 LeftSmaller PercCAExp1 Prime_9N Target_1A bgMHjhI jhAilIM Incongruent right correct Normal 2152.209
705 76 LeftSmaller PercCAExp1 Prime_9A Target_4A EGhBibe hFHbEGK Incongruent right correct Normal 2167.739
705 77 LeftSmaller PercCAExp1 Prime_1A Target_1A LcIedDl aBAjbIJ Congruent left correct Normal 1735.631
705 78 LeftSmaller PercCAExp1 Prime_6N Target_4N hCKiHaD EFBMagd Incongruent right correct Normal 1788.184
705 79 LeftSmaller PercCAExp1 Prime_9A Target_6N kCIAbLc jeDLKCF Congruent left correct Normal 1468.239
705 80 LeftSmaller PercCAExp1 Prime_1A Target_4N mJMlIei EgLfiIA Congruent left correct Normal 1941.169
705 81 LeftLarger PercCBPrac Prime_9N Target_6A IJlhibc AEcHMif Congruent right correct Normal 1555.644
705 82 LeftLarger PercCBPrac Prime_1N Target_6A FBjLEKA CBcIKlm Incongruent left correct Normal 1346.504
705 83 LeftLarger PercCBPrac Prime_4A Target_1A fjJbacG KjfMLId Congruent right correct Normal 1551.934
705 84 LeftLarger PercCBPrac Prime_1A Target_1N GAFEJlb eJFigDM Congruent left error Normal 1673.843
705 85 LeftLarger PercCBPrac Prime_9A Target_4A dAMKJEC ikHgbeG Incongruent left correct Normal 1244.291
705 86 LeftLarger PercCBPrac Prime_1A Target_9A CBJFDgK AfehjFa Incongruent left correct Normal 1089.759
705 87 LeftLarger PercCBPrac Prime_6N Target_4A LladBiK bBFaCdf Incongruent left correct Normal 1260.387
705 88 LeftLarger PercCBPrac Prime_1A Target_4N HeEIMFj kDaFfdG Congruent right correct Normal 1467.403
705 89 LeftLarger PercCBPrac Prime_6N Target_1N ghAmkIb iKCbeMF Incongruent right error Normal 1889.364
705 90 LeftLarger PercCBPrac Prime_6N Target_1A kghLCcE HMBKmAj Incongruent left correct Normal 1275.553
705 91 LeftLarger PercCBPrac Prime_9A Target_9N BMJLcmi AagBcjG Congruent right correct Normal 1654.952
705 92 LeftLarger PercCBPrac Prime_1N Target_1A ClcEdGM bGLmkBH Congruent left error Normal 1173.066
705 93 LeftLarger PercCBPrac Prime_9N Target_1N BGLgiFc MiblIch Incongruent left correct Normal 2175.835
705 94 LeftLarger PercCBPrac Prime_6N Target_6N hCHblDj GlgekbI Congruent left error Normal 2094.743
705 95 LeftLarger PercCBPrac Prime_4N Target_6A eBdbMaC HFkmJgf Incongruent left correct Normal 2359.089
705 96 LeftLarger PercCBPrac Prime_1A Target_4A kMfLeBH jBmgEdK Congruent right correct Normal 1865.175
705 97 LeftLarger PercCBExp1 Prime_4N Target_6A eiCkdDm GmchIJL Incongruent left correct Normal 1744.759
705 98 LeftLarger PercCBExp1 Prime_1A Target_4A gLdhJHA JalcKGf Congruent right correct Normal 1258.555
705 99 LeftLarger PercCBExp1 Prime_1N Target_9N AbGgLfk JmGFCfM Incongruent right error Normal 3384.206
705 100 LeftLarger PercCBExp1 Prime_1A Target_6N cFeflmJ CHKhdfG Incongruent right error Normal 2185.038
705 101 LeftLarger PercCBExp1 Prime_4N Target_4N KlFHkJi JgBIKMm Congruent left error Normal 1474.135
705 102 LeftLarger PercCBExp1 Prime_4N Target_9N JLHFhlE eHglDkG Incongruent left correct Normal 1597.448
705 103 LeftLarger PercCBExp1 Prime_9A Target_4A GlBeikd CbegMfa Incongruent left correct Normal 1894.148
705 104 LeftLarger PercCBExp1 Prime_1A Target_9N JDEbgfM EBkilDf Incongruent right error Normal 2023.964
705 105 LeftLarger PercCBExp1 Prime_4A Target_1N EIdLBCD bAmLhEc Congruent left error Normal 2074.016
705 106 LeftLarger PercCBExp1 Prime_1N Target_9A agIAmJi HBCEbAK Incongruent right error Normal 1422.225
705 107 LeftLarger PercCBExp1 Prime_4A Target_1A bLihAfd hGfJegA Congruent left error Normal 2012.757
705 108 LeftLarger PercCBExp1 Prime_6A Target_6A jbkFlgA lLhkKcF Congruent right correct Normal 2379.806
705 109 LeftLarger PercCBExp1 Prime_9N Target_1A akmIJjD LkBlgGF Incongruent left correct Normal 1574.898
705 110 LeftLarger PercCBExp1 Prime_9A Target_1A FglbGMj EhmMdHB Incongruent right error Normal 3282.052
705 111 LeftLarger PercCBExp1 Prime_1N Target_1N bHDkKeA lFcJjME Congruent left error Normal 2151.803
705 112 LeftLarger PercCBExp1 Prime_6A Target_9A HFlicgb FGmMicd Congruent right correct Normal 3418.354
705 113 LeftLarger PercCBExp1 Prime_4N Target_9A LImeMgK gbhMGBL Incongruent right error Normal 1536.225
705 114 LeftLarger PercCBExp1 Prime_6A Target_1A mlcKFEG LAHDhIK Incongruent left correct Normal 1327.656
705 115 LeftLarger PercCBExp1 Prime_6N Target_6A KDElHIk FadhmbM Congruent right correct Normal 1989.007
705 116 LeftLarger PercCBExp1 Prime_9A Target_9A FdkbGcf ALMIBFe Congruent right correct Normal 1361.266
705 117 LeftLarger PercCBExp1 Prime_6N Target_9N BlMKjAg FLkdEGi Congruent right correct Normal 1093.475
705 118 LeftLarger PercCBExp1 Prime_1N Target_6N KHgfeLd eEBLAIm Incongruent left correct Normal 1254.234
705 119 LeftLarger PercCBExp1 Prime_1A Target_6A mcGfHld mHiLgDh Incongruent left correct Normal 1848.693
705 120 LeftLarger PercCBExp1 Prime_6N Target_1N iJKMbfA BCecaMA Incongruent left correct Normal 2114.227
705 121 LeftLarger PercCBExp1 Prime_6N Target_4A GHKfeMD fdIDHch Incongruent left correct Normal 2535.282
705 122 LeftLarger PercCBExp1 Prime_4N Target_1A FbjkGef bBfGCiL Congruent right correct Normal 2679.996
705 123 LeftLarger PercCBExp1 Prime_9A Target_6A CAMfGHc DlFkmHE Congruent right correct Normal 1536.232
705 124 LeftLarger PercCBExp1 Prime_1A Target_1N CbEBHhk AJBcheK Congruent left error Normal 1815.679
705 125 LeftLarger PercCBExp1 Prime_9N Target_6N CfbIHFd JGEmFKh Congruent right correct Normal 3123.807
705 126 LeftLarger PercCBExp1 Prime_4A Target_6N DFHelmE GfBEcgh Incongruent left correct Normal 3489.608
705 127 LeftLarger PercCBExp1 Prime_1A Target_4N AhMjCDl HgJAMld Congruent left error Normal 2407.999
705 128 LeftLarger PercCBExp1 Prime_1A Target_1A mcJLDEe bcegIKJ Congruent left error Normal 2470.303
705 129 LeftLarger PercCBExp1 Prime_9N Target_6A MGfIDdH LGDiAbf Congruent right correct Normal 1263.048
705 130 LeftLarger PercCBExp1 Prime_6A Target_9N ADMJHCI HdLiklh Congruent right correct Normal 1555.09
705 131 LeftLarger PercCBExp1 Prime_4N Target_1N FjmJGEL dfJheEb Congruent right correct Normal 2406.14
705 132 LeftLarger PercCBExp1 Prime_4A Target_4N JkElHDI CJlAmiF Congruent left error Normal 2440.08
705 133 LeftLarger PercCBExp1 Prime_6A Target_1N mkcabFe ieALEdF Incongruent left correct Normal 2292.961
705 134 LeftLarger PercCBExp1 Prime_4A Target_4A cBJCdAL FhfbEem Congruent right correct Normal 2295.576
705 135 LeftLarger PercCBExp1 Prime_4N Target_6N mIGahAc LGBKfMe Incongruent left correct Normal 1983.819
705 136 LeftLarger PercCBExp1 Prime_9A Target_1N jGiJkcE FJMDehb Incongruent left correct Normal 1725.998
705 137 LeftLarger PercCBExp1 Prime_9N Target_4A LlAEBmb iHFhgaB Incongruent left correct Normal 2451.568
705 138 LeftLarger PercCBExp1 Prime_9A Target_4N fbjEKcL abhFMLi Incongruent left correct Normal 1995.881
705 139 LeftLarger PercCBExp1 Prime_4N Target_4A CjiAkEJ cKEkBbI Congruent left error Normal 2194.305
705 140 LeftLarger PercCBExp1 Prime_6A Target_6N CHbfBAF GadMJIK Congruent right correct Normal 1536.156
705 141 LeftLarger PercCBExp1 Prime_9N Target_4N iLjeBJg dCFLKEl Incongruent left correct Normal 1546.458
705 142 LeftLarger PercCBExp1 Prime_1A Target_9A dFeEhIk DCmiGce Incongruent right error Normal 2088.648
705 143 LeftLarger PercCBExp1 Prime_1N Target_1A cMBHGdb lkdEAjf Congruent left error Normal 3052.949
705 144 LeftLarger PercCBExp1 Prime_6N Target_1A fiFJdGI iAGehkL Incongruent left correct Late 5510.614
705 145 LeftLarger PercCBExp1 Prime_4A Target_6A GAMJacE ejMLBCd Incongruent right error Normal 1525.816
705 146 LeftLarger PercCBExp1 Prime_9A Target_6N JbflLMF amlJGKd Congruent right correct Normal 1144.717
705 147 LeftLarger PercCBExp1 Prime_6A Target_4A DCbjIBf iHcfeMd Incongruent left correct Normal 1029.894
705 148 LeftLarger PercCBExp1 Prime_6N Target_6N lAfDiaH DgGkcmC Congruent left error Normal 2140.002
705 149 LeftLarger PercCBExp1 Prime_6N Target_9A ILkFfHA jmGkhAH Congruent right correct Normal 1344.363
705 150 LeftLarger PercCBExp1 Prime_9N Target_9N KacGlLm aEBhIlj Congruent right correct Normal 1914.534
705 151 LeftLarger PercCBExp1 Prime_6N Target_4N JHILjGE GLkHMdj Incongruent left correct Normal 1838.536
705 152 LeftLarger PercCBExp1 Prime_9A Target_9N eLcGJga dilCEfK Congruent right correct Normal 1923.427
705 153 LeftLarger PercCBExp1 Prime_4A Target_9A cEkICJD amIlBeE Incongruent left correct Normal 2406.457
705 154 LeftLarger PercCBExp1 Prime_9N Target_9A GibCjhM cIhHlAf Congruent right correct Normal 2128.104
705 155 LeftLarger PercCBExp1 Prime_9N Target_1N LhdiMgC BIDCeGf Incongruent left correct Normal 2078.922
705 156 LeftLarger PercCBExp1 Prime_4A Target_9N aIfdmJc dgAlJLD Incongruent left correct Normal 1773.336
705 157 LeftLarger PercCBExp1 Prime_1N Target_4A DBCIlma gCkKcBm Congruent right correct Normal 2992.728
705 158 LeftLarger PercCBExp1 Prime_1N Target_4N fKhJCHa FjKIdGg Congruent left error Normal 3869.919
705 159 LeftLarger PercCBExp1 Prime_6A Target_4N ELIaJgf cEdbAJk Incongruent right error Normal 2108.854
705 160 LeftLarger PercCBExp1 Prime_1N Target_6A FflbAHi MGeEcCd Incongruent left correct Normal 2082.168
706 1 LeftSmaller PercCAPrac Prime_9A Target_4A MJaBDEe LJjedMm Incongruent left error Normal 862.3475
706 2 LeftSmaller PercCAPrac Prime_9N Target_4A iIJleLh IDBJcbi Incongruent right correct Normal 968.3185
706 3 LeftSmaller PercCAPrac Prime_6N Target_4A ILCejFB lfdMDAF Incongruent right correct Normal 920.5529
706 4 LeftSmaller PercCAPrac Prime_9A Target_1A hmCIdiD GeaMHlD Incongruent right correct Normal 1430.657
706 5 LeftSmaller PercCAPrac Prime_6N Target_1N GcKAMjB DGMLfiH Incongruent right correct Normal 815.4494
706 6 LeftSmaller PercCAPrac Prime_6N Target_6A DHekIEB MdkfEHj Congruent left correct Normal 1580.145
706 7 LeftSmaller PercCAPrac Prime_1A Target_4N lBEgIKD EFdaHfb Congruent left correct Normal 2457.177
706 8 LeftSmaller PercCAPrac Prime_9A Target_9N DgfGMJd KLcGjkI Congruent left correct Normal 1891.187
706 9 LeftSmaller PercCAPrac Prime_4A Target_4N EIKiMkF CKLHgfG Congruent left correct Normal 1132.281
706 10 LeftSmaller PercCAPrac Prime_1A Target_6A dBEkjce jafMEHd Incongruent right correct Normal 952.4965
706 11 LeftSmaller PercCAPrac Prime_4N Target_4N LiGIeFd KHghjIC Congruent right error Normal 2090.547
706 12 LeftSmaller PercCAPrac Prime_4A Target_6N kBlamgD HmkDIMi Incongruent right correct Normal 1490.769
706 13 LeftSmaller PercCAPrac Prime_9N Target_4N EgBCalI BAMDLeG Incongruent right correct Normal 2886.668
706 14 LeftSmaller PercCAPrac Prime_1N Target_9N EbCaAgc bkgKhli Incongruent right correct Normal 1515.256
706 15 LeftSmaller PercCAPrac Prime_1A Target_6N KhEDeHk iLbgcdD Incongruent right correct Normal 1171.903
706 16 LeftSmaller PercCAPrac Prime_4N Target_1A jIDefCm CMgJDbh Congruent left correct Normal 1849.22
706 17 LeftSmaller PercCAExp1 Prime_1A Target_9N HLKMeJE FBKfImg Incongruent right correct Normal 1002.753
706 18 LeftSmaller PercCAExp1 Prime_1A Target_1A KCGHkmB FkeGbEK Congruent right error Normal 941.2117
706 19 LeftSmaller PercCAExp1 Prime_6N Target_9N FKkLAIM ihLdcGA Congruent left correct Normal 1561.376
706 20 LeftSmaller PercCAExp1 Prime_4A Target_9A HDfchkj gfcKeLI Incongruent right correct Normal 1020.525
706 21 LeftSmaller PercCAExp1 Prime_4N Target_9N LiEcDkm dIBhalL Incongruent right correct Normal 2498.494
706 22 LeftSmaller PercCAExp1 Prime_4N Target_6N DflJEiI AihjaLc Incongruent left error Normal 2537.285
706 23 LeftSmaller PercCAExp1 Prime_4A Target_1A cjGCgIi BdfJIgG Congruent left correct Normal 1226.651
706 24 LeftSmaller PercCAExp1 Prime_9A Target_4A MBCefAJ fJkbCmL Incongruent left error Normal 1287.32
706 25 LeftSmaller PercCAExp1 Prime_9N Target_6A chejCLK IEfiCLB Congruent left correct Normal 1818.497
706 26 LeftSmaller PercCAExp1 Prime_4N Target_4N jkfGMmh MKILfDm Congruent right error Normal 1479.322
706 27 LeftSmaller PercCAExp1 Prime_1A Target_6A HgkJmil JgDLejF Incongruent left error Normal 1313.486
706 28 LeftSmaller PercCAExp1 Prime_9A Target_1N JcElLKi HKFamDI Incongruent right correct Normal 3169.858
706 29 LeftSmaller PercCAExp1 Prime_6A Target_9N KdBaDEL EHjkbFl Congruent left correct Normal 1537.875
706 30 LeftSmaller PercCAExp1 Prime_6A Target_1A jelbGKa dKECFmi Incongruent right correct Normal 917.2752
706 31 LeftSmaller PercCAExp1 Prime_9A Target_6A diLebaE MEICDeB Congruent left correct Normal 1311.876
706 32 LeftSmaller PercCAExp1 Prime_4A Target_4A HbeJmFd JCHeKGi Congruent left correct Normal 1135.181
706 33 LeftSmaller PercCAExp1 Prime_4N Target_9A AjMcJal lBkjiFa Incongruent right correct Normal 1079.937
706 34 LeftSmaller PercCAExp1 Prime_1N Target_9A aiHKABb GalJBDh Incongruent right correct Normal 889.6085
706 35 LeftSmaller PercCAExp1 Prime_6N Target_4A HcfDJaC ELefdAk Incongruent right correct Normal 1405.165
706 36 LeftSmaller PercCAExp1 Prime_1A Target_4A hDMFdfC AgfFebL Congruent left correct Normal 951.6265
706 37 LeftSmaller PercCAExp1 Prime_4A Target_9N FkLhlfb MBJGIbk Incongruent right correct Normal 918.0567
706 38 LeftSmaller PercCAExp1 Prime_6N Target_9A kLgabeC KaAhgLH Congruent left correct Normal 952.8459
706 39 LeftSmaller PercCAExp1 Prime_9N Target_1A ciAfBEa dmEfBhi Incongruent right correct Normal 1301.277
706 40 LeftSmaller PercCAExp1 Prime_1N Target_6N aMKleLm cbjJHCf Incongruent right correct Normal 819.6008
706 41 LeftSmaller PercCAExp1 Prime_1A Target_1N cMEeKJH KHkafLc Congruent left correct Normal 996.1287
706 42 LeftSmaller PercCAExp1 Prime_6N Target_6N AMEIaFd EKcFlJC Congruent right error Normal 1048.041
706 43 LeftSmaller PercCAExp1 Prime_4A Target_4N JmjAdIM AHkgLhD Congruent left correct Normal 774.8248
706 44 LeftSmaller PercCAExp1 Prime_4N Target_1A ifHkLCm gFcbJeH Congruent left correct Normal 757.0995
706 45 LeftSmaller PercCAExp1 Prime_1A Target_6N JcKCgEe jdcGDeK Incongruent left error Normal 877.4738
706 46 LeftSmaller PercCAExp1 Prime_1N Target_1A IcgkijK LMaCJFi Congruent left correct Normal 1000.989
706 47 LeftSmaller PercCAExp1 Prime_1A Target_9A MfBJLgb jdEIDlB Incongruent right correct Normal 727.9154
706 48 LeftSmaller PercCAExp1 Prime_9N Target_9A fhiDBgm cdJLhMj Congruent left correct Normal 1083.939
706 49 LeftSmaller PercCAExp1 Prime_9A Target_1A hACDiLK hDjGMKL Incongruent right correct Normal 884.242
706 50 LeftSmaller PercCAExp1 Prime_6A Target_9A bIaLJDE kHaKmLC Congruent left correct Normal 834.9223
706 51 LeftSmaller PercCAExp1 Prime_1A Target_4N KLFDEHC FbidgIc Congruent left correct Normal 1078.459
706 52 LeftSmaller PercCAExp1 Prime_6N Target_1A ceamdLb cEJalKi Incongruent right correct Normal 745.5255
706 53 LeftSmaller PercCAExp1 Prime_4N Target_1N IjCideA jicfIGF Congruent left correct Normal 1357.075
706 54 LeftSmaller PercCAExp1 Prime_4N Target_4A ceEjJdL MaIBdfe Congruent right error Normal 1002.887
706 55 LeftSmaller PercCAExp1 Prime_6A Target_6N eKcCgDf IfKbmHJ Congruent left correct Normal 865.9227
706 56 LeftSmaller PercCAExp1 Prime_9N Target_1N MafAdEF AlJKiMI Incongruent left error Normal 1070.682
706 57 LeftSmaller PercCAExp1 Prime_9A Target_9N cbeKFJd kaDFhig Congruent right error Normal 788.3137
706 58 LeftSmaller PercCAExp1 Prime_9A Target_4N hGFJAgk ADBEFGI Incongruent right correct Normal 812.8458
706 59 LeftSmaller PercCAExp1 Prime_6A Target_6A HCmdFJk JIAhbcK Congruent left correct Normal 806.374
706 60 LeftSmaller PercCAExp1 Prime_9N Target_6N lFjiacJ dhlBgcJ Congruent left correct Normal 866.6678
706 61 LeftSmaller PercCAExp1 Prime_1N Target_4A kBDClAg dAJlmDb Congruent left correct Normal 1407.822
706 62 LeftSmaller PercCAExp1 Prime_6N Target_4N blDaMjK lCabALM Incongruent right correct Normal 1174.64
706 63 LeftSmaller PercCAExp1 Prime_6A Target_4A gDhdiMH eKMcJAk Incongruent right correct Normal 1002.449
706 64 LeftSmaller PercCAExp1 Prime_4A Target_1N dfbmJiK JBCHIlD Congruent right error Normal 1189.172
706 65 LeftSmaller PercCAExp1 Prime_1N Target_9N iCblEDF mMCGjld Incongruent right correct Normal 1169.385
706 66 LeftSmaller PercCAExp1 Prime_6A Target_1N icabLhB dhKjHeF Incongruent right correct Normal 982.0953
706 67 LeftSmaller PercCAExp1 Prime_4A Target_6A jEkMHJL HMiDbJC Incongruent right correct Normal 819.4108
706 68 LeftSmaller PercCAExp1 Prime_4A Target_6N bcFKILB IFDlmMf Incongruent right correct Normal 1040.044
706 69 LeftSmaller PercCAExp1 Prime_6N Target_6A kFMJCIE KLIaFhj Congruent left correct Normal 797.4336
706 70 LeftSmaller PercCAExp1 Prime_9A Target_9A IGhAmLF mHIjCAJ Congruent left correct Normal 614.1798
706 71 LeftSmaller PercCAExp1 Prime_1N Target_6A BaICJbd gAiGmBH Incongruent left error Normal 940.6094
706 72 LeftSmaller PercCAExp1 Prime_9N Target_4A IjAfGEK BIJdjKF Incongruent right correct Normal 1800.492
706 73 LeftSmaller PercCAExp1 Prime_4N Target_6A LEGlDCg EFbLGlI Incongruent right correct Normal 1494.103
706 74 LeftSmaller PercCAExp1 Prime_9N Target_9N EAcBgaf BklGLCF Congruent left correct Normal 1393.452
706 75 LeftSmaller PercCAExp1 Prime_6A Target_4N fjegAhL EhCbMgL Incongruent right correct Normal 1025.63
706 76 LeftSmaller PercCAExp1 Prime_9N Target_4N jLDFEld LAebkMH Incongruent right correct Normal 1223.215
706 77 LeftSmaller PercCAExp1 Prime_1N Target_1N iKMfJhE AbkiHjd Congruent right error Normal 917.5428
706 78 LeftSmaller PercCAExp1 Prime_6N Target_1N MKmLejh MhBiAlC Incongruent left error Normal 1372.545
706 79 LeftSmaller PercCAExp1 Prime_1N Target_4N EecJCKI MbcDeGh Congruent left correct Normal 888.582
706 80 LeftSmaller PercCAExp1 Prime_9A Target_6N FaGMdIC MgbCceI Congruent left correct Normal 1731.304
706 81 LeftLarger PercCBPrac Prime_6N Target_9N BeflbIG helKHJM Congruent right correct Normal 980.1303
706 82 LeftLarger PercCBPrac Prime_6N Target_1N ejCmLEc JcIaFgi Incongruent right error Normal 1074.847
706 83 LeftLarger PercCBPrac Prime_4N Target_9A CiFMdlL djmCaMJ Incongruent left correct Normal 949.8788
706 84 LeftLarger PercCBPrac Prime_6A Target_9A bhMecJD fmdglHE Congruent right correct Normal 788.1807
706 85 LeftLarger PercCBPrac Prime_1N Target_1N chMGFig dLckJlj Congruent left error Normal 957.1075
706 86 LeftLarger PercCBPrac Prime_6N Target_4N KgFIhma feFGkLK Incongruent left correct Normal 1380.536
706 87 LeftLarger PercCBPrac Prime_9N Target_4N mkDiGhC GEkfeKI Incongruent left correct Normal 1674.827
706 88 LeftLarger PercCBPrac Prime_4A Target_9A gIdDlah MLjcKie Incongruent left correct Normal 887.4523
706 89 LeftLarger PercCBPrac Prime_6N Target_1A MDjKaHk fdFGJBl Incongruent right error Normal 1447.455
706 90 LeftLarger PercCBPrac Prime_1A Target_6A fgKMkiC LCEeJKF Incongruent left correct Normal 1025.53
706 91 LeftLarger PercCBPrac Prime_6N Target_6A CjFicld cjgBKDi Congruent right correct Normal 1266.53
706 92 LeftLarger PercCBPrac Prime_9A Target_6A aBikKbE FKlHjiB Congruent right correct Normal 611.8558
706 93 LeftLarger PercCBPrac Prime_9A Target_4A EbMiljB EgeJhBC Incongruent left correct Normal 861.6505
706 94 LeftLarger PercCBPrac Prime_9N Target_1A BabEekH DMLhlIJ Incongruent left correct Normal 988.3119
706 95 LeftLarger PercCBPrac Prime_9N Target_9N GCbMied AGFLilM Congruent right correct Normal 1175.512
706 96 LeftLarger PercCBPrac Prime_9N Target_6N akCJIgj BcjdADF Congruent left error Normal 1034.673
706 97 LeftLarger PercCBExp1 Prime_6A Target_1N cDKBfGh LiEDamJ Incongruent left correct Normal 964.3534
706 98 LeftLarger PercCBExp1 Prime_6N Target_1N BgjHeDk LdjHhCM Incongruent left correct Normal 1046.509
706 99 LeftLarger PercCBExp1 Prime_1A Target_4A MkmKLJh igBjmJl Congruent right correct Normal 1052.802
706 100 LeftLarger PercCBExp1 Prime_1A Target_9A JhcCEMA lemiIHf Incongruent right error Normal 1266.972
706 101 LeftLarger PercCBExp1 Prime_4A Target_9N jfdHlhi LjAcJld Incongruent left correct Normal 862.1563
706 102 LeftLarger PercCBExp1 Prime_1A Target_1N mHkLIGi CFDMlfI Congruent right correct Normal 813.0941
706 103 LeftLarger PercCBExp1 Prime_4N Target_1N DdLfaCF AeFhEgl Congruent right correct Normal 862.8657
706 104 LeftLarger PercCBExp1 Prime_9N Target_9N kAGHdEi cKdiCah Congruent left error Normal 1052.474
706 105 LeftLarger PercCBExp1 Prime_4N Target_6N bfHkdFG GeAIiEH Incongruent left correct Normal 1312.346
706 106 LeftLarger PercCBExp1 Prime_4A Target_1A hmdAJkj KHfiDGL Congruent right correct Normal 856.7903
706 107 LeftLarger PercCBExp1 Prime_1A Target_1A hecFIEk HDAabBi Congruent right correct Normal 809.6036
706 108 LeftLarger PercCBExp1 Prime_6N Target_9A mkJLdbg FhaIgik Congruent left error Normal 883.0777
706 109 LeftLarger PercCBExp1 Prime_1A Target_9N HClGJkg DFfJkjC Incongruent left correct Normal 1171.413
706 110 LeftLarger PercCBExp1 Prime_4A Target_1N cCGfMed mebCfgD Congruent right correct Normal 910.103
706 111 LeftLarger PercCBExp1 Prime_9A Target_1A hdJLiIE gEdMHAh Incongruent left correct Normal 536.4124
706 112 LeftLarger PercCBExp1 Prime_4N Target_1A KIAegfL JcHCIlD Congruent left error Normal 821.8979
706 113 LeftLarger PercCBExp1 Prime_4A Target_4N iImfgcB aFcILHK Congruent right correct Normal 648.0884
706 114 LeftLarger PercCBExp1 Prime_9N Target_4N HjmBlfG aeilCdI Incongruent left correct Normal 866.6492
706 115 LeftLarger PercCBExp1 Prime_9A Target_9N BGbEIhi FAjkibe Congruent right correct Normal 1385.932
706 116 LeftLarger PercCBExp1 Prime_6A Target_9N cHkhbGm FLdaikI Congruent right correct Normal 895.7268
706 117 LeftLarger PercCBExp1 Prime_1N Target_4A gmJlFef jFbcdaI Congruent left error Normal 843.0442
706 118 LeftLarger PercCBExp1 Prime_9A Target_4A EIjHiLh FmgkiBJ Incongruent left correct Normal 1083.274
706 119 LeftLarger PercCBExp1 Prime_1N Target_6A EiclBFA HCMIjgK Incongruent left correct Normal 1231.769
706 120 LeftLarger PercCBExp1 Prime_9N Target_1N kIgGfad flKIMJk Incongruent right error Normal 1577.641
706 121 LeftLarger PercCBExp1 Prime_6A Target_4N heLBAfH HjcMKbL Incongruent left correct Normal 1006.139
706 122 LeftLarger PercCBExp1 Prime_1N Target_1A iLdaHcC bHLeCcM Congruent left error Normal 1582.252
706 123 LeftLarger PercCBExp1 Prime_9A Target_4N dMlJbHe cIABifa Incongruent left correct Normal 1273.973
706 124 LeftLarger PercCBExp1 Prime_6A Target_4A aCFjcdM cideGDH Incongruent left correct Normal 1227.742
706 125 LeftLarger PercCBExp1 Prime_1A Target_4N HhJGAmK cIdCihb Congruent right correct Normal 700.7215
706 126 LeftLarger PercCBExp1 Prime_6A Target_9A kEBiFLD bCjemcB Congruent left error Normal 666.1504
706 127 LeftLarger PercCBExp1 Prime_4A Target_9A EiBJkjf gBMLFKI Incongruent left correct Normal 751.2875
706 128 LeftLarger PercCBExp1 Prime_4N Target_9A LGbEhmK hHIECMd Incongruent left correct Normal 918.0943
706 129 LeftLarger PercCBExp1 Prime_1N Target_1N DMGcLdi ELhdeIJ Congruent right correct Normal 951.634
706 130 LeftLarger PercCBExp1 Prime_6A Target_6N FifCAaL iHlmdKk Congruent right correct Normal 855.6931
706 131 LeftLarger PercCBExp1 Prime_4N Target_9N bJAaFDm CDbEmfj Incongruent left correct Normal 777.3882
706 132 LeftLarger PercCBExp1 Prime_4A Target_6N FBbEjJk kbgKfGa Incongruent left correct Normal 832.8069
706 133 LeftLarger PercCBExp1 Prime_9N Target_4A bMlcJea JElcCmg Incongruent left correct Normal 891.7104
706 134 LeftLarger PercCBExp1 Prime_4N Target_4N eCEjgbK IDBabfe Congruent right correct Normal 843.0224
706 135 LeftLarger PercCBExp1 Prime_6N Target_1A GkeaFEh ceHCibA Incongruent left correct Normal 787.658
706 136 LeftLarger PercCBExp1 Prime_1N Target_4N aeGchKd LGCJDEj Congruent right correct Normal 767.2001
706 137 LeftLarger PercCBExp1 Prime_9N Target_6A EIHCjDF KciMCBE Congruent left error Normal 799.7299
706 138 LeftLarger PercCBExp1 Prime_9N Target_1A fdmcJHI FJiHIaD Incongruent left correct Normal 760.4045
706 139 LeftLarger PercCBExp1 Prime_6N Target_4N lKGEckF JmEfdbK Incongruent left correct Normal 799.1223
706 140 LeftLarger PercCBExp1 Prime_4A Target_4A fKIFCEj iLCcKad Congruent right correct Normal 980.8983
706 141 LeftLarger PercCBExp1 Prime_4N Target_6A kDHLcME dkbCDGe Incongruent left correct Normal 614.578
706 142 LeftLarger PercCBExp1 Prime_9A Target_9A aIMHklm BijaKcC Congruent right correct Normal 756.2369
706 143 LeftLarger PercCBExp1 Prime_9A Target_6N EhGbCAm GbikcjM Congruent right correct Normal 774.2927
706 144 LeftLarger PercCBExp1 Prime_1N Target_9N kHJGjEh fCekiKh Incongruent right error Normal 997.0845
706 145 LeftLarger PercCBExp1 Prime_4A Target_6A jdAKclh fdGCDlk Incongruent left correct Normal 635.0129
706 146 LeftLarger PercCBExp1 Prime_6A Target_6A MjfLcBd mgdehfl Congruent right correct Normal 1107.191
706 147 LeftLarger PercCBExp1 Prime_9N Target_6N fFiMKje aHLdeCf Congruent right correct Normal 944.6106
706 148 LeftLarger PercCBExp1 Prime_6N Target_6N iaAmfKM HAmLGgJ Congruent left error Normal 939.7771
706 149 LeftLarger PercCBExp1 Prime_6N Target_6A mKcBaFC DLmMeJh Congruent right correct Normal 1312.641
706 150 LeftLarger PercCBExp1 Prime_9A Target_1N fLlIaHB BjAGkgJ Incongruent left correct Normal 1404.498
706 151 LeftLarger PercCBExp1 Prime_6A Target_1A JBhCKGb KGljEBM Incongruent left correct Normal 785.582
706 152 LeftLarger PercCBExp1 Prime_9N Target_9A AhjeBbg EikGldD Congruent left error Normal 979.7119
706 153 LeftLarger PercCBExp1 Prime_1N Target_9A mKLagHF mGhHckC Incongruent left correct Normal 763.3845
706 154 LeftLarger PercCBExp1 Prime_9A Target_6A ClbmFfI AjFhiKc Congruent right correct Normal 821.0728
