sub trial_no group_type block_type prime target mask1 mask2 congruency key_press key_error time_error RT
111 1 LeftLarger RTTaskAPrac Prime_4N Target_9A DFEbkdH dbHcEMl Incongruent right error Late 1004.828
111 2 LeftLarger RTTaskAPrac Prime_9N Target_9N gAhMIce aKlALmc Congruent left correct Normal 890.7073
111 3 LeftLarger RTTaskAPrac Prime_4N Target_1N DeJAjEK kMfKHBa Congruent right correct Normal 765.1451
111 4 LeftLarger RTTaskAPrac Prime_1A Target_1N kKjlaCJ bjEMmCG Congruent right correct Normal 580.2021
111 5 LeftLarger RTTaskAPrac Prime_6A Target_9N mLADiCI mbdiIHM Congruent left correct Normal 588.2025
111 6 LeftLarger RTTaskAPrac Prime_4N Target_6N cLKblFi cjfDiBL Incongruent left correct Late 1110.372
111 7 LeftLarger RTTaskAPrac Prime_4A Target_9A KbLjBeA AGkLhed Incongruent left correct Normal 628.9341
111 8 LeftLarger RTTaskAPrac Prime_4N Target_6N CDajibG ecLbDCl Incongruent left correct Normal 596.6115
111 9 LeftLarger RTTaskAPrac Prime_4A Target_4N LBJFCfm iAHkFEg Congruent right correct Normal 439.7667
111 10 LeftLarger RTTaskAPrac Prime_9N Target_6A FfKlgbi GkLAHgi Congruent left correct Normal 437.074
111 11 LeftLarger RTTaskAPrac Prime_9A Target_6A MmIaJFG cdEFgHA Congruent left correct Normal 436.1303
111 12 LeftLarger RTTaskAPrac Prime_1A Target_4A kagCLJl haAfDjc Congruent right correct Normal 464.4152
111 13 LeftLarger RTTaskAPrac Prime_4N Target_9A EmIhdDK bcGELkd Incongruent left correct Normal 453.7301
111 14 LeftLarger RTTaskAPrac Prime_6A Target_1A mjbClka kfFJhHI Incongruent right correct Normal 471.7617
111 15 LeftLarger RTTaskAPrac Prime_1N Target_9A KMDJdEj jlaHdML Incongruent left correct Normal 399.533
111 16 LeftLarger RTTaskAPrac Prime_9N Target_1N hidmjJa DeljKAI Incongruent right correct Normal 519.2009
111 17 LeftLarger RTTaskAPrac Prime_4N Target_4N FaIfEgG BKdckmM Congruent right correct Normal 503.3758
111 18 LeftLarger RTTaskAPrac Prime_1N Target_4N AiaCFIh bIBaLmM Congruent right correct Normal 374.9875
111 19 LeftLarger RTTaskAExp1 Prime_6N Target_4A GIFDMiC lFiALag Incongruent right correct Normal 504.7603
111 20 LeftLarger RTTaskAExp1 Prime_4N Target_6A KaiDMhl EHGbcFe Incongruent left correct Normal 476.6854
111 21 LeftLarger RTTaskAExp1 Prime_9N Target_1N lfAGikK FIecBgJ Incongruent right correct Normal 499.6987
111 22 LeftLarger RTTaskAExp1 Prime_6N Target_6N AEcBieh lahFGAH Congruent left correct Normal 488.4554
111 23 LeftLarger RTTaskAExp1 Prime_9N Target_6N BeLAmFJ dKaiILM Congruent left correct Normal 473.1557
111 24 LeftLarger RTTaskAExp1 Prime_1A Target_4A AhFICkb aAgeDiL Congruent right correct Normal 428.8166
111 25 LeftLarger RTTaskAExp1 Prime_9N Target_6A mIGCkcA jClbHeI Congruent left correct Normal 404.1138
111 26 LeftLarger RTTaskAExp1 Prime_6A Target_9N bjdGBfF ghFkjmK Congruent left correct Normal 445.9181
111 27 LeftLarger RTTaskAExp1 Prime_4A Target_4A BmdAJhf DhjmCJa Congruent right correct Normal 382.182
111 28 LeftLarger RTTaskAExp1 Prime_1N Target_6A LFDlmJG lajHkfJ Incongruent left correct Normal 455.8538
111 29 LeftLarger RTTaskAExp1 Prime_6A Target_1N mKidCLc GEFcbIL Incongruent right correct Normal 492.0302
111 30 LeftLarger RTTaskAExp1 Prime_6A Target_6N DbEdIam jMbBaAH Congruent left correct Normal 554.8143
111 31 LeftLarger RTTaskAExp1 Prime_9A Target_9N IelHKmd LEHMGCD Congruent left correct Normal 451.6248
111 32 LeftLarger RTTaskAExp1 Prime_9A Target_4N LbmkhBe iFlfDEb Incongruent right correct Normal 410.5393
111 33 LeftLarger RTTaskAExp1 Prime_1A Target_1N gkEDdcI JfADkjB Congruent right correct Normal 450.5834
111 34 LeftLarger RTTaskAExp1 Prime_1A Target_9A CcDEaiL lEaiGdk Incongruent left correct Normal 461.335
111 35 LeftLarger RTTaskAExp1 Prime_6N Target_1N AGalJBj LjeCdhD Incongruent right correct Normal 412.0345
111 36 LeftLarger RTTaskAExp1 Prime_6N Target_9N CKjcMla bacJkdK Congruent left correct Normal 436.5893
111 37 LeftLarger RTTaskAExp1 Prime_4A Target_4N jDikICg lJjhdDa Congruent right correct Normal 458.0861
111 38 LeftLarger RTTaskAExp1 Prime_6A Target_4N cdjLlBk HjdCDif Incongruent right correct Normal 456.4232
111 39 LeftLarger RTTaskAExp1 Prime_9N Target_9A amICBef bBiImcd Congruent left correct Normal 461.6879
111 40 LeftLarger RTTaskAExp1 Prime_1A Target_1A jCfDJiM eJHaDLM Congruent right correct Normal 372.1066
111 41 LeftLarger RTTaskAExp1 Prime_1A Target_4N IGLkAMf leADgfE Congruent right correct Normal 455.7628
111 42 LeftLarger RTTaskAExp1 Prime_9A Target_9A cDFGhBf lkgjEAK Congruent left correct Normal 416.9288
111 43 LeftLarger RTTaskAExp1 Prime_1N Target_1N cFdEHlK ecBhafm Congruent right correct Normal 481.4777
111 44 LeftLarger RTTaskAExp1 Prime_4A Target_6N kmLJKAa jGKFLlC Incongruent left correct Normal 615.3841
111 45 LeftLarger RTTaskAExp1 Prime_6A Target_6A hEgJMIl FeLAfkE Congruent left correct Normal 493.8077
111 46 LeftLarger RTTaskAExp1 Prime_9N Target_4N BacAGbH iAdLGle Incongruent right correct Normal 502.3095
111 47 LeftLarger RTTaskAExp1 Prime_4N Target_9N KHakIMA JGEBMCd Incongruent left correct Normal 393.5038
111 48 LeftLarger RTTaskAExp1 Prime_4A Target_1N kljMAhF aMkhDJG Congruent right correct Normal 395.2967
111 49 LeftLarger RTTaskAExp1 Prime_9A Target_6A hmdeFcJ LimjAdb Congruent left correct Normal 427.8237
111 50 LeftLarger RTTaskAExp1 Prime_1A Target_6A bfamFDK JmfdhKl Incongruent left correct Normal 466.2393
111 51 LeftLarger RTTaskAExp1 Prime_9A Target_1N baDFmHe fAJGikI Incongruent right correct Normal 414.2161
111 52 LeftLarger RTTaskAExp1 Prime_4A Target_9N FGjlegc CKciFEg Incongruent left correct Normal 459.9648
111 53 LeftLarger RTTaskAExp1 Prime_9N Target_4A MhlIHFa bdeaBck Incongruent right correct Normal 363.8718
111 54 LeftLarger RTTaskAExp1 Prime_4N Target_6N LmfkaEg KeMDlka Incongruent left correct Normal 423.705
111 55 LeftLarger RTTaskAExp1 Prime_4N Target_1N ciGfFLd EbikLAC Congruent right correct Normal 401.3934
111 56 LeftLarger RTTaskAExp1 Prime_1A Target_9N GmDcbJI FKhkcMf Incongruent left correct Normal 420.0913
111 57 LeftLarger RTTaskAExp1 Prime_1N Target_9N DiklaMc dMlJkhB Incongruent left correct Normal 439.6092
111 58 LeftLarger RTTaskAExp1 Prime_6N Target_1A GCKJheI JdlcfLh Incongruent right correct Normal 378.5832
111 59 LeftLarger RTTaskAExp1 Prime_9N Target_1A hJGamei kAimjdF Incongruent right correct Normal 440.5728
111 60 LeftLarger RTTaskAExp1 Prime_4N Target_4N bBCHJGd geLMImJ Congruent right correct Normal 572.5682
111 61 LeftLarger RTTaskAExp1 Prime_1N Target_4A EbdFLDG fMEJBFI Congruent right correct Normal 478.3277
111 62 LeftLarger RTTaskAExp1 Prime_9N Target_9N jCDlfeh dkChlij Congruent left correct Normal 428.6112
111 63 LeftLarger RTTaskAExp1 Prime_6N Target_6A ilMCeaK fklaEjL Congruent left correct Normal 497.9007
111 64 LeftLarger RTTaskAExp1 Prime_9A Target_6N hLIKBEk eMIgLCi Congruent left correct Normal 546.3496
111 65 LeftLarger RTTaskAExp1 Prime_1N Target_9A HacFLfe JdGEKHk Incongruent left correct Normal 448.109
111 66 LeftLarger RTTaskAExp1 Prime_4N Target_1A lBekijJ kgJdmcb Congruent right correct Normal 466.1617
111 67 LeftLarger RTTaskAExp1 Prime_4A Target_1A jBMKAIL hkmLBgl Congruent right correct Normal 446.5837
111 68 LeftLarger RTTaskAExp1 Prime_1N Target_6N CcIEdFl GJejhKk Incongruent left correct Normal 527.4823
111 69 LeftLarger RTTaskAExp1 Prime_9A Target_4A KiICBgd gmfhjLE Incongruent right correct Normal 420.8794
111 70 LeftLarger RTTaskAExp1 Prime_4N Target_9A MCfeDcA gmlIeGA Incongruent left correct Normal 390.9241
111 71 LeftLarger RTTaskAExp1 Prime_1N Target_4N KdikalL ELJBGDH Congruent right correct Normal 435.534
111 72 LeftLarger RTTaskAExp1 Prime_6A Target_9A gfJkFHL FJiljkK Congruent left correct Normal 364.1417
111 73 LeftLarger RTTaskAExp1 Prime_4A Target_9A JeiCdjm bmGIedj Incongruent left correct Normal 435.7264
111 74 LeftLarger RTTaskAExp1 Prime_4N Target_4A HeClGJj IHcMbhg Congruent right correct Normal 392.6047
111 75 LeftLarger RTTaskAExp1 Prime_6A Target_1A ieafjcA mhildHK Incongruent right correct Normal 358.6198
111 76 LeftLarger RTTaskAExp1 Prime_1A Target_6N KIAMiac AgmkIeC Incongruent left correct Normal 501.176
111 77 LeftLarger RTTaskAExp1 Prime_1N Target_1A jmEBHei aBbfDeF Congruent right correct Normal 443.2126
111 78 LeftLarger RTTaskAExp1 Prime_4A Target_6A aKLGgbk bMcKLiF Incongruent left correct Normal 510.5541
111 79 LeftLarger RTTaskAExp1 Prime_6A Target_4A CmEbALa MEFKfkg Incongruent right correct Normal 362.8241
111 80 LeftLarger RTTaskAExp1 Prime_6N Target_9A cKjbFLG DMaldHk Congruent left correct Normal 410.3288
111 81 LeftLarger RTTaskAExp1 Prime_9A Target_1A bHFalMJ bkaDCLg Incongruent right correct Normal 356.5101
111 82 LeftLarger RTTaskAExp1 Prime_6N Target_4N ckfeHgK BIdEghD Incongruent right correct Normal 440.4105
111 83 LeftLarger RTTaskAExp2 Prime_6N Target_6A KIJBmfF KGMHAbm Congruent left correct Normal 470.3418
111 84 LeftLarger RTTaskAExp2 Prime_4A Target_6N EcGgAlb EgBeakc Incongruent left correct Normal 441.6143
111 85 LeftLarger RTTaskAExp2 Prime_1N Target_4A JIfgdCG iLKakcb Congruent right correct Normal 394.0443
111 86 LeftLarger RTTaskAExp2 Prime_4N Target_6N bhHlIcf MhibaGF Incongruent left correct Normal 497.6911
111 87 LeftLarger RTTaskAExp2 Prime_1A Target_9A kIceBEL afkGBji Incongruent left correct Normal 505.5002
111 88 LeftLarger RTTaskAExp2 Prime_4A Target_9A jEdFcaB gcCfbkj Incongruent left correct Normal 389.2916
111 89 LeftLarger RTTaskAExp2 Prime_4N Target_4A cFeBdkl IJcefhE Congruent right correct Normal 322.4372
111 90 LeftLarger RTTaskAExp2 Prime_9N Target_1N CILmMlA jCFBJab Incongruent right correct Normal 507.9925
111 91 LeftLarger RTTaskAExp2 Prime_1A Target_6N LhJfkDc kmGFbDJ Incongruent left correct Normal 519.8819
111 92 LeftLarger RTTaskAExp2 Prime_4A Target_4N ecICKkm jhiHDGg Congruent right correct Normal 403.1835
111 93 LeftLarger RTTaskAExp2 Prime_9N Target_4A eHaKCjA eLmIDhA Incongruent right correct Normal 372.6996
111 94 LeftLarger RTTaskAExp2 Prime_1A Target_9N FDfKkhc cBKdeGm Incongruent left correct Normal 375.0106
111 95 LeftLarger RTTaskAExp2 Prime_9A Target_1N GiKFfaD galhKdI Incongruent right correct Normal 393.6978
111 96 LeftLarger RTTaskAExp2 Prime_4N Target_4N aJGibAl LlijdFg Congruent right correct Normal 498.185
111 97 LeftLarger RTTaskAExp2 Prime_1A Target_4A BbEADaL KHkfACd Congruent right correct Normal 410.1668
111 98 LeftLarger RTTaskAExp2 Prime_6N Target_9A MAEaFhi ejaiMEF Congruent left correct Normal 404.5304
111 99 LeftLarger RTTaskAExp2 Prime_1N Target_9N aEmKfjD FJIjKMd Incongruent left correct Normal 408.8424
111 100 LeftLarger RTTaskAExp2 Prime_4N Target_9A HEAFJgl mFfhKbl Incongruent left correct Normal 421.7389
111 101 LeftLarger RTTaskAExp2 Prime_6N Target_1A EIDihMH ALkaHCK Incongruent right correct Normal 385.7776
111 102 LeftLarger RTTaskAExp2 Prime_6N Target_9N kfliagB CDIMdGl Congruent left correct Normal 427.3312
111 103 LeftLarger RTTaskAExp2 Prime_9A Target_4A dGjElfL KedIDkc Incongruent right correct Normal 414.1195
111 104 LeftLarger RTTaskAExp2 Prime_1N Target_1N IbFjaEi jIdaMlb Congruent right correct Normal 457.7684
111 105 LeftLarger RTTaskAExp2 Prime_9N Target_9N mjbAHLf hkiGHmI Congruent left correct Normal 399.8004
111 106 LeftLarger RTTaskAExp2 Prime_1A Target_1N lBEmCHL dgcLjGM Congruent right correct Normal 413.7649
111 107 LeftLarger RTTaskAExp2 Prime_9N Target_9A lgMdIEh fhmGMEH Congruent left correct Normal 372.4996
111 108 LeftLarger RTTaskAExp2 Prime_9A Target_9N fmbIhDF DClJIMA Congruent left correct Normal 488.1055
111 109 LeftLarger RTTaskAExp2 Prime_9N Target_4N fMaBCle hIDJLGc Incongruent right correct Normal 337.8448
111 110 LeftLarger RTTaskAExp2 Prime_6A Target_6A bcmGMBI iLHcDkE Congruent left correct Normal 504.6445
111 111 LeftLarger RTTaskAExp2 Prime_1N Target_6N MHhBKgj CIfkhce Incongruent left correct Normal 433.6736
111 112 LeftLarger RTTaskAExp2 Prime_6A Target_9A IJcbEgF mIEBhaJ Congruent left correct Normal 470.0208
111 113 LeftLarger RTTaskAExp2 Prime_9A Target_1A fgjmkED KIDkalf Incongruent right correct Normal 342.9764
111 114 LeftLarger RTTaskAExp2 Prime_9N Target_1A lJChMBj cFDEAMG Incongruent right correct Normal 455.9155
111 115 LeftLarger RTTaskAExp2 Prime_6A Target_1A hijCAGJ FhkBLmM Incongruent right correct Normal 496.0628
111 116 LeftLarger RTTaskAExp2 Prime_9N Target_6N HleLiME bCaJKfj Congruent left correct Normal 522.1267
111 117 LeftLarger RTTaskAExp2 Prime_4A Target_1N HEMjlGh gedlIAH Congruent right correct Normal 471.1651
111 118 LeftLarger RTTaskAExp2 Prime_9A Target_9A EfCAGlm fgCLdlj Congruent left correct Normal 433.9423
111 119 LeftLarger RTTaskAExp2 Prime_4N Target_1A bhlHGCk bJEKHFe Congruent right correct Normal 412.2487
111 120 LeftLarger RTTaskAExp2 Prime_6A Target_4A cCmDbfA JMhjkEF Incongruent right correct Normal 472.1176
111 121 LeftLarger RTTaskAExp2 Prime_9A Target_6N DBjHMKC lLCEieA Congruent left correct Normal 508.2967
111 122 LeftLarger RTTaskAExp2 Prime_6A Target_6N mkEeKIb cIFmBlb Congruent left correct Normal 489.8532
111 123 LeftLarger RTTaskAExp2 Prime_4N Target_9N kfBhbHm mIkhJdH Incongruent left correct Normal 394.1598
111 124 LeftLarger RTTaskAExp2 Prime_6A Target_4N jcEAMKG ClfkgdG Incongruent right correct Normal 448.3256
111 125 LeftLarger RTTaskAExp2 Prime_1A Target_1A deIKLak HEDmILG Congruent right correct Normal 380.484
111 126 LeftLarger RTTaskAExp2 Prime_4A Target_6A mMIEiAC hHidCKe Incongruent left correct Normal 400.3864
111 127 LeftLarger RTTaskAExp2 Prime_6N Target_1N ahiKgLd jIaCiAm Incongruent right correct Normal 449.3022
111 128 LeftLarger RTTaskAExp2 Prime_9N Target_6A dhAKBEg gMCKdJB Congruent left correct Normal 471.4766
111 129 LeftLarger RTTaskAExp2 Prime_4N Target_1N CDcMKbf bIDMJBH Congruent right correct Normal 377.3629
111 130 LeftLarger RTTaskAExp2 Prime_6A Target_9N fBcALdh EKladAI Congruent left correct Normal 417.9185
111 131 LeftLarger RTTaskAExp2 Prime_1N Target_9A cIgBJFa lJbghID Incongruent left correct Normal 493.2408
111 132 LeftLarger RTTaskAExp2 Prime_1A Target_4N fJlCLiG ILemgkc Congruent right correct Normal 449.7917
111 133 LeftLarger RTTaskAExp2 Prime_6N Target_6N aJiGcMH LJhcDbE Congruent left correct Normal 434.7962
111 134 LeftLarger RTTaskAExp2 Prime_1N Target_1A jfGmdMi JgFahHf Congruent right correct Normal 402.8465
111 135 LeftLarger RTTaskAExp2 Prime_6N Target_4A FIKmkDe JdFfhMi Incongruent right correct Normal 426.3572
111 136 LeftLarger RTTaskAExp2 Prime_9A Target_6A LeJCafK khEigKB Congruent left correct Normal 427.4965
111 137 LeftLarger RTTaskAExp2 Prime_1N Target_6A ekEKHGA jIJLElb Incongruent left correct Normal 615.7736
111 138 LeftLarger RTTaskAExp2 Prime_4A Target_1A lFgChkf jJeFMGa Congruent right correct Normal 353.5087
111 139 LeftLarger RTTaskAExp2 Prime_6A Target_1N BGEAilc ebmkMEL Incongruent right correct Normal 498.1611
111 140 LeftLarger RTTaskAExp2 Prime_6N Target_4N GjdbIcM eidMfIl Incongruent right correct Normal 429.2982
111 141 LeftLarger RTTaskAExp2 Prime_4N Target_6A JmHCflb miIlaMB Incongruent left correct Normal 477.0024
111 142 LeftLarger RTTaskAExp2 Prime_4A Target_9N dBEHikL bEBIKle Incongruent left correct Normal 468.0396
111 143 LeftLarger RTTaskAExp2 Prime_9A Target_4N cjJLDGB kAIjLcf Incongruent right correct Normal 406.9354
111 144 LeftLarger RTTaskAExp2 Prime_1N Target_4N baKElkJ FabCjiH Congruent right correct Normal 453.3647
111 145 LeftLarger RTTaskAExp2 Prime_4A Target_4A bGfgDIB AkcKIJa Congruent right correct Normal 361.2791
111 146 LeftLarger RTTaskAExp2 Prime_1A Target_6A cdFMjhf IHmEkgM Incongruent left correct Normal 471.2985
111 147 LeftSmaller RTTaskBPrac Prime_4A Target_6N gjJabLm GBjJLHd Incongruent right correct Normal 547.9164
111 148 LeftSmaller RTTaskBPrac Prime_1A Target_1N LfKMhAa edjcBbD Congruent left correct Normal 384.4976
111 149 LeftSmaller RTTaskBPrac Prime_9N Target_9A IaeKiJk KmGAjic Congruent right correct Normal 353.0355
111 150 LeftSmaller RTTaskBPrac Prime_9A Target_4A mdbAjkE DfFMaeg Incongruent left correct Normal 437.6977
111 151 LeftSmaller RTTaskBPrac Prime_4N Target_1N kIEGJec mkHbAEI Congruent left correct Normal 377.7251
111 152 LeftSmaller RTTaskBPrac Prime_4N Target_1A ILlGFca FebmIDJ Congruent left correct Normal 343.7619
111 153 LeftSmaller RTTaskBPrac Prime_1N Target_6A LeDMIah eJjmFGk Incongruent right correct Normal 380.4431
111 154 LeftSmaller RTTaskBPrac Prime_1N Target_4A icElghk mebcLHa Congruent left correct Normal 538.622
111 155 LeftSmaller RTTaskBPrac Prime_6N Target_9N gfCciJD JhaMeij Congruent right correct Normal 386.9273
111 156 LeftSmaller RTTaskBPrac Prime_9N Target_6N LbKiIEk gjmekhL Congruent right correct Normal 345.4209
111 157 LeftSmaller RTTaskBPrac Prime_6N Target_1A eIJgDLF MeAHmFB Incongruent left correct Normal 363.8435
111 158 LeftSmaller RTTaskBPrac Prime_9A Target_1N mLhgKGf HlhMkfB Incongruent left correct Normal 460.4025
111 159 LeftSmaller RTTaskBPrac Prime_6A Target_1A FCihmdM BjefmcE Incongruent left correct Normal 341.5647
111 160 LeftSmaller RTTaskBPrac Prime_4N Target_4A jKkFBGD lhCmILJ Congruent left correct Normal 447.0696
111 161 LeftSmaller RTTaskBPrac Prime_9N Target_9N iEmgLbJ FCKabgI Congruent right correct Normal 394.3622
111 162 LeftSmaller RTTaskBPrac Prime_1N Target_4N GIJMaBc HkgabFK Congruent left correct Normal 498.161
111 163 LeftSmaller RTTaskBExp1 Prime_9N Target_6N BjGLdcK EDeLMhi Congruent right correct Normal 517.6435
111 164 LeftSmaller RTTaskBExp1 Prime_4N Target_4A jJKchBg gDhMHcL Congruent left correct Normal 350.6739
111 165 LeftSmaller RTTaskBExp1 Prime_1A Target_9A mHDdBKC khbeLJG Incongruent right correct Normal 345.0913
111 166 LeftSmaller RTTaskBExp1 Prime_4N Target_6N jedKICa CaMhjIL Incongruent right correct Normal 573.257
111 167 LeftSmaller RTTaskBExp1 Prime_4A Target_9A iBKEeId CKcHMdj Incongruent right correct Normal 377.3064
111 168 LeftSmaller RTTaskBExp1 Prime_6A Target_1A LcdjhKa HAdDBjc Incongruent left correct Normal 359.6825
111 169 LeftSmaller RTTaskBExp1 Prime_1N Target_9N dkFMDJe MbBmEDh Incongruent right correct Normal 418.3338
111 170 LeftSmaller RTTaskBExp1 Prime_4N Target_6A gbIkdaf AamMDbd Incongruent right correct Normal 413.9019
111 171 LeftSmaller RTTaskBExp1 Prime_4N Target_1N IACHihJ maDHICd Congruent left correct Normal 424.0613
111 172 LeftSmaller RTTaskBExp1 Prime_6A Target_9A afEMkFC KAfibCd Congruent right correct Normal 353.2256
111 173 LeftSmaller RTTaskBExp1 Prime_4A Target_6N dfaMDGj DFmcbeg Incongruent right correct Normal 393.1661
111 174 LeftSmaller RTTaskBExp1 Prime_4A Target_6A MGKkhLH gdehlij Incongruent right correct Normal 406.4368
111 175 LeftSmaller RTTaskBExp1 Prime_9A Target_6A afGjDbg KMLEbIe Congruent right correct Normal 443.4675
111 176 LeftSmaller RTTaskBExp1 Prime_4N Target_4N MHkCaeJ lDEJAeh Congruent left correct Normal 453.0353
111 177 LeftSmaller RTTaskBExp1 Prime_6A Target_1N aBDAcJI GcgdBbC Incongruent left correct Normal 443.9842
111 178 LeftSmaller RTTaskBExp1 Prime_1A Target_6N EbAgiCd dBEhFeJ Incongruent right correct Normal 361.8232
111 179 LeftSmaller RTTaskBExp1 Prime_6N Target_9A MfLKalA dJFGAhc Congruent right correct Normal 385.8606
111 180 LeftSmaller RTTaskBExp1 Prime_1N Target_9A hFbfdHA dKBimGA Incongruent right correct Normal 411.6727
111 181 LeftSmaller RTTaskBExp1 Prime_6A Target_4N IFmdglj fKFJbkE Incongruent left correct Normal 463.1607
111 182 LeftSmaller RTTaskBExp1 Prime_9N Target_4A jDLAcgd gDIjHlf Incongruent left correct Normal 378.3607
111 183 LeftSmaller RTTaskBExp1 Prime_9A Target_6N FMbHdhe akAdjcL Congruent right correct Normal 401.0441
111 184 LeftSmaller RTTaskBExp1 Prime_4A Target_1A GcFklML cFMlBag Congruent left correct Normal 463.5213
111 185 LeftSmaller RTTaskBExp1 Prime_1A Target_1N kDKJmEG KBiDCdE Congruent left correct Normal 438.3585
111 186 LeftSmaller RTTaskBExp1 Prime_9A Target_9N KkfembM FEHdDKM Congruent right correct Normal 363.4029
111 187 LeftSmaller RTTaskBExp1 Prime_1A Target_9N DBdjFmG fMBeciH Incongruent right correct Normal 457.3921
111 188 LeftSmaller RTTaskBExp1 Prime_4A Target_9N HKDJLIA EmGijMl Incongruent right correct Normal 418.7466
111 189 LeftSmaller RTTaskBExp1 Prime_6A Target_6N bKEDJhe hjFeMAg Congruent right correct Normal 369.2827
111 190 LeftSmaller RTTaskBExp1 Prime_4N Target_9N cHdMIGA mIdLBcH Incongruent right correct Normal 479.0597
111 191 LeftSmaller RTTaskBExp1 Prime_9N Target_6A FHDdmhB GMfFDem Congruent right correct Normal 452.1
111 192 LeftSmaller RTTaskBExp1 Prime_1A Target_6A iEKmIeB gcjfFmM Incongruent right correct Normal 485.1358
111 193 LeftSmaller RTTaskBExp1 Prime_4N Target_9A lAafIDd BdIJbaK Incongruent right correct Normal 382.818
111 194 LeftSmaller RTTaskBExp1 Prime_9A Target_4A ILlDCge GfCFHgj Incongruent left correct Normal 441.3211
111 195 LeftSmaller RTTaskBExp1 Prime_1N Target_1N MdAmcEH cAFhIHl Congruent left correct Normal 528.0057
111 196 LeftSmaller RTTaskBExp1 Prime_6N Target_4A LejFEbG BbhDJCi Incongruent left correct Normal 447.0614
111 197 LeftSmaller RTTaskBExp1 Prime_1N Target_6A AKkDGFb IFlKJek Incongruent right correct Normal 463.6511
111 198 LeftSmaller RTTaskBExp1 Prime_9N Target_9N KimHFjd MmldIEB Congruent right correct Normal 507.6432
111 199 LeftSmaller RTTaskBExp1 Prime_1A Target_4A GAhjiIc agGBMmI Congruent left correct Normal 378.5336
111 200 LeftSmaller RTTaskBExp1 Prime_6N Target_1N BFhJflj gAlmjJM Incongruent left correct Normal 491.1349
111 201 LeftSmaller RTTaskBExp1 Prime_4A Target_4A iGBdaHf FIJdfGD Congruent left correct Normal 420.8766
111 202 LeftSmaller RTTaskBExp1 Prime_6N Target_1A jdcgLeJ KEbMjDc Incongruent left correct Normal 453.2654
111 203 LeftSmaller RTTaskBExp1 Prime_1N Target_1A IabAKCH Ikedlbm Congruent left correct Normal 354.6904
111 204 LeftSmaller RTTaskBExp1 Prime_6N Target_6N lcCMGDd mgiIkHl Congruent right correct Normal 358.3656
111 205 LeftSmaller RTTaskBExp1 Prime_9N Target_9A gbieckI jJCeMEa Congruent right correct Normal 383.3928
111 206 LeftSmaller RTTaskBExp1 Prime_4A Target_1N hgbBldc GHfKBia Congruent left correct Normal 480.2723
111 207 LeftSmaller RTTaskBExp1 Prime_6N Target_9N bfFMlKI GdDAgKL Congruent right correct Normal 416.4598
111 208 LeftSmaller RTTaskBExp1 Prime_1N Target_4N AbmiEBK IlFdihf Congruent left correct Normal 451.5071
111 209 LeftSmaller RTTaskBExp1 Prime_6N Target_4N MkHfegc JfCKdha Incongruent left correct Normal 456.6572
111 210 LeftSmaller RTTaskBExp1 Prime_9A Target_1N cIhDBdi hIfJilc Incongruent left correct Normal 376.3348
111 211 LeftSmaller RTTaskBExp1 Prime_1N Target_4A MAgElhD eAdcaKC Congruent left correct Normal 506.4051
111 212 LeftSmaller RTTaskBExp1 Prime_9N Target_1A IaiAGbj DHKjgGe Incongruent left correct Normal 431.2958
111 213 LeftSmaller RTTaskBExp1 Prime_1A Target_1A MmaebCh iahdMmD Congruent left correct Normal 339.3243
111 214 LeftSmaller RTTaskBExp1 Prime_9N Target_4N DaedhcI lBFKJfH Incongruent left correct Normal 392.5891
111 215 LeftSmaller RTTaskBExp1 Prime_9A Target_9A aMfkAmG IiLmDBG Congruent right correct Normal 450.1292
111 216 LeftSmaller RTTaskBExp1 Prime_6A Target_9N lgFIbfc GDKcjfk Congruent right correct Normal 422.0879
111 217 LeftSmaller RTTaskBExp1 Prime_1N Target_6N JGdmEbH BgbaMEm Incongruent right correct Normal 475.1083
111 218 LeftSmaller RTTaskBExp1 Prime_9N Target_1N FjiDBcG cBlmCei Incongruent left correct Normal 344.6614
111 219 LeftSmaller RTTaskBExp1 Prime_4N Target_1A EkCfacF DCdkAab Congruent left correct Normal 417.6945
111 220 LeftSmaller RTTaskBExp1 Prime_6N Target_6A JdMCajG dGAMcFb Congruent right correct Normal 509.8401
111 221 LeftSmaller RTTaskBExp1 Prime_1A Target_4N lchiDKk IfljKAM Congruent left correct Normal 458.5085
111 222 LeftSmaller RTTaskBExp1 Prime_6A Target_6A GAHBfEh gfCaHmD Congruent right correct Normal 440.4424
111 223 LeftSmaller RTTaskBExp1 Prime_9A Target_1A DGBjJCM FKhGAjB Incongruent left correct Normal 480.1046
111 224 LeftSmaller RTTaskBExp1 Prime_4A Target_4N jlmghHb IDBAidf Congruent left correct Normal 450.3905
111 225 LeftSmaller RTTaskBExp1 Prime_9A Target_4N BEigFCM MEjbKaA Incongruent left correct Normal 458.143
111 226 LeftSmaller RTTaskBExp1 Prime_6A Target_4A dDailCm AMjhkGm Incongruent left correct Normal 365.3337
111 227 LeftSmaller RTTaskBExp2 Prime_9A Target_4N KIlcaEh cmLJIdh Incongruent left correct Normal 377.5994
111 228 LeftSmaller RTTaskBExp2 Prime_4N Target_4A LBbecMi BcdhEIG Congruent left correct Normal 322.7633
111 229 LeftSmaller RTTaskBExp2 Prime_1N Target_6N BikjfED bMCHgIi Incongruent right correct Normal 336.9127
111 230 LeftSmaller RTTaskBExp2 Prime_9A Target_6N HeMBliJ FEKAjBl Congruent right correct Normal 306.1994
111 231 LeftSmaller RTTaskBExp2 Prime_1N Target_9A FcaDlLk LHdiIae Incongruent right correct Normal 362.8978
111 232 LeftSmaller RTTaskBExp2 Prime_6N Target_9A GmdIHgi FHemILj Congruent right correct Normal 300.7103
111 233 LeftSmaller RTTaskBExp2 Prime_1A Target_9A HgdFEiG LMJieDG Incongruent right correct Normal 291.5628
111 234 LeftSmaller RTTaskBExp2 Prime_9N Target_9A jdhlmJi bMDjFhH Congruent right correct Normal 374.0294
111 235 LeftSmaller RTTaskBExp2 Prime_4A Target_6N mgkDHAe aAbCKgm Incongruent right correct Normal 451.553
111 236 LeftSmaller RTTaskBExp2 Prime_1N Target_1A mKhcMkd ALJMmFH Congruent left correct Normal 326.4845
111 237 LeftSmaller RTTaskBExp2 Prime_4N Target_6A GACfkch lLGjgab Incongruent right correct Normal 436.1996
111 238 LeftSmaller RTTaskBExp2 Prime_1A Target_4A Kfehdjk glbKmEk Congruent left correct Normal 416.0668
111 239 LeftSmaller RTTaskBExp2 Prime_4A Target_6A HgKICec GdeaiIB Incongruent right correct Normal 556.2226
111 240 LeftSmaller RTTaskBExp2 Prime_4N Target_4N FfmiAae EdCfGDm Congruent left correct Normal 489.2625
111 241 LeftSmaller RTTaskBExp2 Prime_1N Target_4A jMKHlLm IhjkKbB Congruent left correct Normal 429.5894
111 242 LeftSmaller RTTaskBExp2 Prime_4N Target_6N HgFMIjA LMeDjai Incongruent right correct Normal 382.4605
111 243 LeftSmaller RTTaskBExp2 Prime_9N Target_6N hdMKlJG AKJGcLd Congruent right correct Normal 431.351
111 244 LeftSmaller RTTaskBExp2 Prime_4A Target_4N jeCcgad kliHhaF Congruent left correct Normal 397.7984
111 245 LeftSmaller RTTaskBExp2 Prime_6A Target_4A CIdlfeB HALedEf Incongruent left correct Normal 380.1981
111 246 LeftSmaller RTTaskBExp2 Prime_6N Target_6A hbeIcHA mJchjHF Congruent right correct Normal 448.1092
111 247 LeftSmaller RTTaskBExp2 Prime_9A Target_9N iJeCamf aHJDdCl Congruent right correct Normal 395.0882
111 248 LeftSmaller RTTaskBExp2 Prime_6A Target_4N jDbGFmM KfEIhLJ Incongruent left correct Normal 439.8087
111 249 LeftSmaller RTTaskBExp2 Prime_6A Target_6N FMCKalI BHbLmiC Congruent right correct Normal 377.4726
111 250 LeftSmaller RTTaskBExp2 Prime_6A Target_1N DFMgiCB KejGmIg Incongruent left correct Normal 504.7676
111 251 LeftSmaller RTTaskBExp2 Prime_6N Target_4N DJgkMjl EMdcGmh Incongruent left correct Normal 466.0475
111 252 LeftSmaller RTTaskBExp2 Prime_9A Target_6A mhMFdKA mldGgFL Congruent right correct Normal 252.2393
111 253 LeftSmaller RTTaskBExp2 Prime_1A Target_6N AldEebF iHLDACh Incongruent right correct Normal 316.1279
111 254 LeftSmaller RTTaskBExp2 Prime_6A Target_9N LdfDEGe KAkiMbJ Congruent right correct Normal 481.3682
111 255 LeftSmaller RTTaskBExp2 Prime_6N Target_1N JADCEGf LhGJegE Incongruent left correct Normal 376.327
111 256 LeftSmaller RTTaskBExp2 Prime_4A Target_9A IaiJFHK ghLJMbE Incongruent right correct Normal 357.61
111 257 LeftSmaller RTTaskBExp2 Prime_1A Target_1N DjaeBlE fMlDCIc Congruent left correct Normal 359.7893
111 258 LeftSmaller RTTaskBExp2 Prime_1N Target_6A gLjldJh lMfgecG Incongruent right correct Normal 381.9588
111 259 LeftSmaller RTTaskBExp2 Prime_6A Target_6A HIALmjM eKdMJhD Congruent right correct Normal 212.6899
111 260 LeftSmaller RTTaskBExp2 Prime_9N Target_6A mfbHAlj kAhDiKl Congruent right correct Normal 332.1579
111 261 LeftSmaller RTTaskBExp2 Prime_4A Target_9N hiKFgHc hjamCFb Incongruent right correct Normal 374.313
111 262 LeftSmaller RTTaskBExp2 Prime_9N Target_4N mBFHabc aheCEGD Incongruent left correct Normal 374.3512
111 263 LeftSmaller RTTaskBExp2 Prime_1A Target_6A dHgDaJi fFalMIB Incongruent left error Normal 377.7692
111 264 LeftSmaller RTTaskBExp2 Prime_9N Target_9N hgkfBbE HFBjgeC Congruent right correct Normal 351.5602
111 265 LeftSmaller RTTaskBExp2 Prime_9A Target_9A iDkEdIe daCGlcI Congruent right correct Normal 334.9903
111 266 LeftSmaller RTTaskBExp2 Prime_4N Target_1A GHBdlFi MhIbKkc Congruent left correct Normal 425.8863
111 267 LeftSmaller RTTaskBExp2 Prime_6N Target_9N gbDaekI DakEAML Congruent right correct Normal 293.6821
111 268 LeftSmaller RTTaskBExp2 Prime_9A Target_1N AlJfbKF LJfMGAc Incongruent left correct Normal 480.8568
111 269 LeftSmaller RTTaskBExp2 Prime_6A Target_9A LagBiKD lefIHFE Congruent right correct Normal 293.6288
111 270 LeftSmaller RTTaskBExp2 Prime_1A Target_6A AHiFCmD DkLKBfi Incongruent right correct Normal 494.0544
111 271 LeftSmaller RTTaskBExp2 Prime_4A Target_1A dCjLIHF EcJlfFM Congruent left correct Normal 367.3385
111 272 LeftSmaller RTTaskBExp2 Prime_1A Target_4N aMkADLB hHcgKAB Congruent left correct Normal 492.6955
111 273 LeftSmaller RTTaskBExp2 Prime_6A Target_1A AbeahJC IKlbLgh Incongruent left correct Normal 476.5306
111 274 LeftSmaller RTTaskBExp2 Prime_9N Target_1A mBKbMck HJkCmFe Incongruent left correct Normal 431.1004
111 275 LeftSmaller RTTaskBExp2 Prime_1N Target_1N LCDbgBd jEGCaeg Congruent left correct Normal 519.9924
111 276 LeftSmaller RTTaskBExp2 Prime_4A Target_4A HjIBFCA lCAGmch Congruent left correct Normal 459.3729
111 277 LeftSmaller RTTaskBExp2 Prime_9N Target_4A HAMCLkK kgfAGIe Incongruent left correct Normal 386.4549
111 278 LeftSmaller RTTaskBExp2 Prime_9A Target_1A LjEDKmi fgKIcmH Incongruent right error Normal 283.1235
111 279 LeftSmaller RTTaskBExp2 Prime_4N Target_1N EBAflga DFlJejM Congruent left correct Normal 279.6304
111 280 LeftSmaller RTTaskBExp2 Prime_6N Target_6N dCBFADm meMfKlj Congruent right correct Normal 541.5802
111 281 LeftSmaller RTTaskBExp2 Prime_1N Target_9N JdlmeIh CiJgkEb Incongruent right correct Normal 390.7574
111 282 LeftSmaller RTTaskBExp2 Prime_4A Target_1N mcbBJkK GgMKFCD Congruent left correct Normal 370.6177
111 283 LeftSmaller RTTaskBExp2 Prime_1A Target_9N hacJbEg fIFklMK Incongruent right correct Normal 448.6651
111 284 LeftSmaller RTTaskBExp2 Prime_1A Target_1A IHClhKe CHKjaJf Congruent left correct Normal 346.3802
111 285 LeftSmaller RTTaskBExp2 Prime_6N Target_1A mlhDfFL DHLhiCa Incongruent left correct Normal 392.1143
111 286 LeftSmaller RTTaskBExp2 Prime_1N Target_4N cLDMgaC MBcmejI Congruent left correct Normal 402.162
111 287 LeftSmaller RTTaskBExp2 Prime_4N Target_9N HgLmeIA eAIaDJk Incongruent right correct Normal 559.4243
111 288 LeftSmaller RTTaskBExp2 Prime_9A Target_1A GFfMBbE EKlbIDe Incongruent left correct Normal 323.0151
111 289 LeftSmaller RTTaskBExp2 Prime_9A Target_4A mcKEBaG CcMikgd Incongruent left correct Normal 353.6251
111 290 LeftSmaller RTTaskBExp2 Prime_9N Target_1N GagjeMh dAIfHiF Incongruent left correct Normal 413.9933
111 291 LeftSmaller RTTaskBExp2 Prime_6N Target_4A dbfJEFG deCfEaD Incongruent left correct Normal 482.2519
111 292 LeftSmaller RTTaskBExp2 Prime_4N Target_9A GhJFagL MeKbcdk Incongruent right correct Normal 395.4254
112 1 LeftSmaller RTTaskAPrac Prime_4A Target_1A dhGHKIg mfKGIga Congruent left correct Normal 677.0033
112 2 LeftSmaller RTTaskAPrac Prime_6N Target_6N dmkaAcF MiGdgbA Congruent right correct Normal 617.5776
112 3 LeftSmaller RTTaskAPrac Prime_6N Target_9N LMkfclm KLaDkmC Congruent right correct Normal 534.8661
112 4 LeftSmaller RTTaskAPrac Prime_4N Target_1A kJgGfHK lhiaMbg Congruent left correct Normal 457.1279
112 5 LeftSmaller RTTaskAPrac Prime_4N Target_4N eKadFmb afLhFjg Congruent left correct Normal 533.9389
112 6 LeftSmaller RTTaskAPrac Prime_4N Target_9N gFjHkmD bfHKIBg Incongruent right correct Normal 474.0075
112 7 LeftSmaller RTTaskAPrac Prime_1N Target_6A FChKGeE iBbGkDf Incongruent right correct Normal 439.7773
112 8 LeftSmaller RTTaskAPrac Prime_1A Target_6N EgmfjaB agIFbCK Incongruent right correct Normal 429.3372
112 9 LeftSmaller RTTaskAPrac Prime_4N Target_6N mDICiBM fHljCem Incongruent right correct Normal 357.2504
112 10 LeftSmaller RTTaskAPrac Prime_6N Target_9A cbMdIHh MefFdlb Congruent right correct Normal 470.0597
112 11 LeftSmaller RTTaskAPrac Prime_1N Target_1N mJHDMed LmMEIBg Congruent left correct Normal 402.5085
112 12 LeftSmaller RTTaskAPrac Prime_4A Target_4A AJlDdma FjEdJef Congruent left correct Normal 457.8521
112 13 LeftSmaller RTTaskAPrac Prime_6N Target_1N GMeFBha hjCcEGH Incongruent left correct Normal 509.7739
112 14 LeftSmaller RTTaskAPrac Prime_6A Target_1N fJHCdbj cjKFaeH Incongruent left correct Normal 367.787
112 15 LeftSmaller RTTaskAPrac Prime_6A Target_9N FcadAJi hijbkfE Congruent right correct Normal 560.8409
112 16 LeftSmaller RTTaskAPrac Prime_6A Target_4A AeHFCLj hlbciBm Incongruent left correct Normal 563.3002
112 17 LeftSmaller RTTaskAExp1 Prime_4N Target_6A IMLkBhg HlEfBIA Incongruent right correct Normal 495.6999
112 18 LeftSmaller RTTaskAExp1 Prime_9N Target_9A AILEkcj jFGDbeJ Congruent right correct Normal 372.9412
112 19 LeftSmaller RTTaskAExp1 Prime_1A Target_9A CHbDajf cIfeAFg Incongruent right correct Normal 399.0933
112 20 LeftSmaller RTTaskAExp1 Prime_1N Target_1N AFgKdCL iCEbhKj Congruent left correct Normal 437.9704
112 21 LeftSmaller RTTaskAExp1 Prime_6A Target_6A MkKLBGF MmFkgeA Congruent right correct Normal 465.1701
112 22 LeftSmaller RTTaskAExp1 Prime_6N Target_9A EHLcBha mFikblB Congruent right correct Normal 419.3949
112 23 LeftSmaller RTTaskAExp1 Prime_6N Target_6A cAbJjHa mGlCILA Congruent right correct Normal 409.5326
112 24 LeftSmaller RTTaskAExp1 Prime_1A Target_9N GEIcLAd GiDkCMj Incongruent right correct Normal 515.7086
112 25 LeftSmaller RTTaskAExp1 Prime_9N Target_1A IkFjcfE jBCJgKe Incongruent left correct Normal 509.1894
112 26 LeftSmaller RTTaskAExp1 Prime_1N Target_9A BaLMeKc LihJIAE Incongruent right correct Normal 447.8092
112 27 LeftSmaller RTTaskAExp1 Prime_1N Target_9N FfBAhgD MCeIfch Incongruent right correct Normal 485.2853
112 28 LeftSmaller RTTaskAExp1 Prime_6N Target_6N jJkIBGL fhIAaEg Congruent right correct Normal 654.7596
112 29 LeftSmaller RTTaskAExp1 Prime_4A Target_4A iCKcljE jGLFCBc Congruent left correct Normal 512.9275
112 30 LeftSmaller RTTaskAExp1 Prime_1A Target_1A eMhbjJE kFijLCa Congruent left correct Normal 436.4722
112 31 LeftSmaller RTTaskAExp1 Prime_9A Target_9A cbDiJKA JCjDLAK Congruent right correct Normal 436.5567
112 32 LeftSmaller RTTaskAExp1 Prime_6A Target_1N acjIkbg bCiBhjl Incongruent left correct Normal 465.429
112 33 LeftSmaller RTTaskAExp1 Prime_6N Target_1N kahKdiD ahJcfDg Incongruent left correct Normal 438.5106
112 34 LeftSmaller RTTaskAExp1 Prime_9A Target_9N jLkEiHd MHLiklm Congruent right correct Normal 407.493
112 35 LeftSmaller RTTaskAExp1 Prime_6A Target_9A LMKmGhb LbDEGBF Congruent right correct Normal 421.178
112 36 LeftSmaller RTTaskAExp1 Prime_6N Target_1A lgbkFjH mDEfFhi Incongruent left correct Normal 377.0061
112 37 LeftSmaller RTTaskAExp1 Prime_4A Target_4N iEGHaId cCDdelm Congruent left correct Normal 503.0027
112 38 LeftSmaller RTTaskAExp1 Prime_9N Target_9N dJlEhgb DlaGgMF Congruent right correct Normal 426.661
112 39 LeftSmaller RTTaskAExp1 Prime_4N Target_6N MaHEjek CjkmMJl Incongruent right correct Normal 399.932
112 40 LeftSmaller RTTaskAExp1 Prime_1N Target_6A cAgBjaG edHJAGh Incongruent left error Normal 397.2971
112 41 LeftSmaller RTTaskAExp1 Prime_4A Target_6A kCmidBJ DdgcheA Incongruent right correct Normal 425.3046
112 42 LeftSmaller RTTaskAExp1 Prime_4N Target_9A ciBMIgF gMfKhjl Incongruent right correct Normal 353.2419
112 43 LeftSmaller RTTaskAExp1 Prime_6A Target_4A MiAaLbe lckGKjf Incongruent left correct Normal 429.6858
112 44 LeftSmaller RTTaskAExp1 Prime_1A Target_6A mEIgbDk DgIGdjf Incongruent right correct Normal 448.7419
112 45 LeftSmaller RTTaskAExp1 Prime_6A Target_9N AFEkHcd jLMJKFf Congruent right correct Normal 342.7388
112 46 LeftSmaller RTTaskAExp1 Prime_6A Target_1A lGAfdLh AjgJfei Incongruent left correct Normal 415.9999
112 47 LeftSmaller RTTaskAExp1 Prime_6A Target_6N eDghlLj CAEDhHB Congruent right correct Normal 426.541
112 48 LeftSmaller RTTaskAExp1 Prime_9A Target_4A bdHfEjI mKiHMdC Incongruent left correct Normal 518.251
112 49 LeftSmaller RTTaskAExp1 Prime_4A Target_6N flhjkmD KdCiEea Incongruent right correct Normal 468.7187
112 50 LeftSmaller RTTaskAExp1 Prime_1N Target_4A BfgieFG BDbEKfe Congruent left correct Normal 396.6321
112 51 LeftSmaller RTTaskAExp1 Prime_4N Target_9N mkgBedl jClJaIb Incongruent right correct Normal 477.7036
112 52 LeftSmaller RTTaskAExp1 Prime_6N Target_4N fGFMeBh iFdhkcE Incongruent left correct Normal 414.1116
112 53 LeftSmaller RTTaskAExp1 Prime_4A Target_1A alIGMed jlBMLaJ Congruent left correct Normal 409.7243
112 54 LeftSmaller RTTaskAExp1 Prime_9N Target_4A DaiGJCl JMciKIA Incongruent left correct Normal 410.8511
112 55 LeftSmaller RTTaskAExp1 Prime_9A Target_1A aMkHmiE hIFJALb Incongruent left correct Normal 370.4781
112 56 LeftSmaller RTTaskAExp1 Prime_9N Target_6A JhajKgi hkMemLA Congruent right correct Normal 471.8432
112 57 LeftSmaller RTTaskAExp1 Prime_4A Target_9A DGEldka DkbILJi Incongruent right correct Normal 447.6858
112 58 LeftSmaller RTTaskAExp1 Prime_4N Target_4A AKGhcba geKEfbF Congruent left correct Normal 386.0098
112 59 LeftSmaller RTTaskAExp1 Prime_6A Target_4N HfCgekD MJelBFd Incongruent right error Normal 406.5148
112 60 LeftSmaller RTTaskAExp1 Prime_1N Target_6N IFDeHBE HefJhjM Incongruent right correct Normal 453.696
112 61 LeftSmaller RTTaskAExp1 Prime_1A Target_4N iIDFGkK ebdCmJA Congruent left correct Normal 502.6948
112 62 LeftSmaller RTTaskAExp1 Prime_4A Target_9N DMieAaI MCamfjB Incongruent right correct Normal 461.1564
112 63 LeftSmaller RTTaskAExp1 Prime_9N Target_4N dckJBFI FhfgeCJ Incongruent left correct Normal 536.109
112 64 LeftSmaller RTTaskAExp1 Prime_4A Target_1N FiecgDB GmhlCjK Congruent left correct Normal 523.7364
112 65 LeftSmaller RTTaskAExp1 Prime_9N Target_6N ljaJMCb kbdLIJB Congruent right correct Normal 541.4357
112 66 LeftSmaller RTTaskAExp1 Prime_6N Target_4A iaeFCcG mleAbjC Incongruent left correct Normal 534.866
112 67 LeftSmaller RTTaskAExp1 Prime_9N Target_1N lhLAaJK CbkjEcF Incongruent left correct Normal 526.5107
112 68 LeftSmaller RTTaskAExp1 Prime_6A Target_4N gHhCBad ABdilLe Incongruent left correct Normal 476.1467
112 69 LeftSmaller RTTaskAExp1 Prime_9A Target_6A haHjCkI MmfjkBl Congruent right correct Normal 486.2052
112 70 LeftSmaller RTTaskAExp1 Prime_4N Target_4N hKifkbM mgEGAbF Congruent left correct Normal 417.4148
112 71 LeftSmaller RTTaskAExp1 Prime_9A Target_1N aGEjMdf ihmlAKC Incongruent left correct Normal 482.5843
112 72 LeftSmaller RTTaskAExp1 Prime_4N Target_1A jgkaAeM DjIelmG Congruent left correct Normal 403.2127
112 73 LeftSmaller RTTaskAExp1 Prime_1A Target_1N JFHKeDE bEBhDCa Congruent left correct Normal 385.2827
112 74 LeftSmaller RTTaskAExp1 Prime_1A Target_6N jFMblBA HmlciDb Incongruent right correct Normal 550.1675
112 75 LeftSmaller RTTaskAExp1 Prime_9A Target_6N LjJaDcd lefHCgc Congruent right correct Normal 474.9318
112 76 LeftSmaller RTTaskAExp1 Prime_6N Target_9N IaDGihK fDMbFkh Congruent right correct Normal 567.6592
112 77 LeftSmaller RTTaskAExp1 Prime_1N Target_4N KmIaiFA CAahdgi Congruent left correct Normal 488.1876
112 78 LeftSmaller RTTaskAExp1 Prime_9A Target_4N cBFCMIA CbIgeci Incongruent left correct Normal 461.2219
112 79 LeftSmaller RTTaskAExp1 Prime_1N Target_1A bEgHFiA GljdekI Congruent left correct Normal 415.1269
112 80 LeftSmaller RTTaskAExp1 Prime_1A Target_4A HlEFkGm JhfbaAC Congruent right error Normal 484.8458
112 81 LeftSmaller RTTaskAExp1 Prime_4N Target_1N ICLDBfF aBHGFAf Congruent left correct Normal 482.4818
112 82 LeftSmaller RTTaskAExp1 Prime_1N Target_6A GmfcMBe BCLAfJh Incongruent right correct Normal 548.77
112 83 LeftSmaller RTTaskAExp1 Prime_1A Target_4A EKDlmbG GbFhckL Congruent left correct Normal 498.5349
112 84 LeftSmaller RTTaskAExp2 Prime_4A Target_4N BkMdihF DbAhELe Congruent left correct Normal 564.0909
112 85 LeftSmaller RTTaskAExp2 Prime_4A Target_6N kHCLFge MCAHgdl Incongruent right correct Normal 514.4418
112 86 LeftSmaller RTTaskAExp2 Prime_6A Target_1A ecdmjlC GeLImKH Incongruent left correct Normal 422.4745
112 87 LeftSmaller RTTaskAExp2 Prime_1N Target_1A fJekaGD DEJKFCb Congruent left correct Normal 423.1934
112 88 LeftSmaller RTTaskAExp2 Prime_9N Target_6A dgHAmjc IlkdemK Congruent right correct Normal 523.8666
112 89 LeftSmaller RTTaskAExp2 Prime_9A Target_4N HAjFlMC ADLMBgI Incongruent left correct Normal 447.7731
112 90 LeftSmaller RTTaskAExp2 Prime_4N Target_4A EHBFmJg fMLmlak Congruent left correct Normal 410.7057
112 91 LeftSmaller RTTaskAExp2 Prime_9A Target_1A igDmAkG HemBdjg Incongruent left correct Normal 397.1115
112 92 LeftSmaller RTTaskAExp2 Prime_9N Target_4N dflCKFA GcfACEa Incongruent left correct Normal 381.8181
112 93 LeftSmaller RTTaskAExp2 Prime_4A Target_6A ImBJkbi CFEjhci Incongruent right correct Normal 384.1429
112 94 LeftSmaller RTTaskAExp2 Prime_9N Target_9A HIeMlBF FEhbGji Congruent right correct Normal 409.1879
112 95 LeftSmaller RTTaskAExp2 Prime_6A Target_6N JfEeMIL GbAjdcC Congruent right correct Normal 422.7242
112 96 LeftSmaller RTTaskAExp2 Prime_6N Target_6N ijMImkF hlIakMj Congruent right correct Normal 380.2654
112 97 LeftSmaller RTTaskAExp2 Prime_9N Target_1N KeHILAi iIHBgDh Incongruent left correct Normal 584.4808
112 98 LeftSmaller RTTaskAExp2 Prime_1A Target_9A hEGAlFM DbMIhCj Incongruent right correct Normal 534.3397
112 99 LeftSmaller RTTaskAExp2 Prime_9N Target_6N JlbBAiE mdjbEHh Congruent right correct Normal 390.138
112 100 LeftSmaller RTTaskAExp2 Prime_6N Target_6A mjdfgCl CHLkaKM Congruent right correct Normal 430.6847
112 101 LeftSmaller RTTaskAExp2 Prime_4N Target_4N DCELcHB MgbBAeD Congruent left correct Normal 449.2148
112 102 LeftSmaller RTTaskAExp2 Prime_1A Target_9N AlFgJha DbcgCaE Incongruent right correct Normal 486.85
112 103 LeftSmaller RTTaskAExp2 Prime_6N Target_4N FdEjGbi eMLDFIm Incongruent left correct Normal 578.8496
112 104 LeftSmaller RTTaskAExp2 Prime_6A Target_6A EIKMFkb jMLmgfK Congruent right correct Normal 493.8198
112 105 LeftSmaller RTTaskAExp2 Prime_6N Target_4A ciGDdeC eiJdLDE Incongruent left correct Normal 397.279
112 106 LeftSmaller RTTaskAExp2 Prime_6N Target_9N FMiDhbk idgmLef Congruent right correct Normal 496.7793
112 107 LeftSmaller RTTaskAExp2 Prime_1N Target_6N bjfdFAK LdmeBcj Incongruent right correct Normal 541.3307
112 108 LeftSmaller RTTaskAExp2 Prime_4A Target_4A bFeBLiM AgkFiIf Congruent left correct Normal 456.3809
112 109 LeftSmaller RTTaskAExp2 Prime_1A Target_6A kIcAGgf HEBbJMI Incongruent right correct Normal 471.1291
112 110 LeftSmaller RTTaskAExp2 Prime_6A Target_9A MmdkLGh iAHEklj Congruent right correct Normal 431.1126
112 111 LeftSmaller RTTaskAExp2 Prime_4N Target_9N lMkFiEK idhLFab Incongruent right correct Normal 570.7125
112 112 LeftSmaller RTTaskAExp2 Prime_1A Target_1N lAbdgCh gbBAcmE Congruent left correct Normal 475.8231
112 113 LeftSmaller RTTaskAExp2 Prime_6N Target_1A BgalEHh EAfcBHl Incongruent left correct Normal 505.0474
112 114 LeftSmaller RTTaskAExp2 Prime_9A Target_9N MeaHDLh FJfedKG Congruent right correct Normal 419.6142
112 115 LeftSmaller RTTaskAExp2 Prime_9A Target_6N aIJjfLd DHfjdMC Congruent right correct Normal 560.6524
112 116 LeftSmaller RTTaskAExp2 Prime_9A Target_6A kgjIfci elCkJmf Congruent right correct Normal 445.936
112 117 LeftSmaller RTTaskAExp2 Prime_4A Target_1A bDEAKGJ FkfeLCm Congruent left correct Normal 437.1051
112 118 LeftSmaller RTTaskAExp2 Prime_4A Target_1N jlAfhkD mHLaJFl Congruent left correct Normal 461.4251
112 119 LeftSmaller RTTaskAExp2 Prime_1A Target_6N bImLcMg mKBladf Incongruent right correct Normal 527.7484
112 120 LeftSmaller RTTaskAExp2 Prime_1N Target_1N FaEIkfA BFcDeCj Congruent left correct Normal 674.1112
112 121 LeftSmaller RTTaskAExp2 Prime_6A Target_1N cIlLDhb lhHJfLC Incongruent left correct Normal 481.5963
112 122 LeftSmaller RTTaskAExp2 Prime_9N Target_4A lgKCbid bfeklGd Incongruent left correct Normal 562.1422
112 123 LeftSmaller RTTaskAExp2 Prime_9N Target_9N jecKabm ajklBgb Congruent right correct Normal 467.8549
112 124 LeftSmaller RTTaskAExp2 Prime_9N Target_1A BdAibjF mbgABLC Incongruent left correct Normal 471.2518
112 125 LeftSmaller RTTaskAExp2 Prime_4N Target_1A eJakfcj bIMeGAa Congruent left correct Normal 464.2917
112 126 LeftSmaller RTTaskAExp2 Prime_6A Target_9N GMfBamj DieCblK Congruent right correct Normal 499.5137
112 127 LeftSmaller RTTaskAExp2 Prime_9A Target_1N KaIhMAf fdlBmjk Incongruent left correct Normal 495.3286
112 128 LeftSmaller RTTaskAExp2 Prime_1A Target_4N kemLGEf mIdABMb Congruent left correct Normal 492.3528
112 129 LeftSmaller RTTaskAExp2 Prime_1A Target_4A hGcMKkH gaKkDhJ Congruent left correct Normal 415.364
112 130 LeftSmaller RTTaskAExp2 Prime_6A Target_4N igLKfDm CdJFklD Incongruent left correct Normal 424.7482
112 131 LeftSmaller RTTaskAExp2 Prime_1N Target_9N DcjiJgm JlDihjH Incongruent right correct Normal 479.9231
112 132 LeftSmaller RTTaskAExp2 Prime_1N Target_6A dkFeCgD bgHlLBj Incongruent right correct Normal 409.5923
112 133 LeftSmaller RTTaskAExp2 Prime_1N Target_4A DbMGafi fFcDMlj Congruent left correct Normal 483.5138
112 134 LeftSmaller RTTaskAExp2 Prime_4N Target_6N ICdhFAD hGJfHEe Incongruent right correct Normal 564.8098
112 135 LeftSmaller RTTaskAExp2 Prime_4N Target_9A MCcdIBg fiBEDFI Incongruent right correct Normal 416.0918
112 136 LeftSmaller RTTaskAExp2 Prime_4A Target_9A bhJEiGg FCgklca Incongruent right correct Normal 410.0078
112 137 LeftSmaller RTTaskAExp2 Prime_6N Target_9A jlFJABK LmIclak Congruent right correct Normal 366.6013
112 138 LeftSmaller RTTaskAExp2 Prime_9A Target_4A jfAmlkK MIijbGH Incongruent left correct Normal 559.4409
112 139 LeftSmaller RTTaskAExp2 Prime_4N Target_1N DEaCIeJ AigBKGI Congruent left correct Normal 543.9691
112 140 LeftSmaller RTTaskAExp2 Prime_1N Target_9A EHiGMdI mHigjdb Incongruent right correct Normal 461.7808
112 141 LeftSmaller RTTaskAExp2 Prime_6A Target_4A mKbhljd IfHEAKC Incongruent left correct Normal 564.4244
112 142 LeftSmaller RTTaskAExp2 Prime_6N Target_1N fgCbFjk cbghKDl Incongruent left correct Normal 491.4473
112 143 LeftSmaller RTTaskAExp2 Prime_1A Target_1A JDaBmjF fHChLjc Congruent left correct Normal 413.8694
112 144 LeftSmaller RTTaskAExp2 Prime_9A Target_9A LfCjgbk iFIgGAb Congruent right correct Normal 535.0405
112 145 LeftSmaller RTTaskAExp2 Prime_4N Target_6A klCmAKh maEKJHI Incongruent right correct Normal 510.2293
112 146 LeftSmaller RTTaskAExp2 Prime_1N Target_4N hilDekF BLldMhf Congruent left correct Normal 435.7734
112 147 LeftSmaller RTTaskAExp2 Prime_4A Target_9N dDbHkja HhfMbAd Incongruent right correct Normal 498.0685
112 148 LeftLarger RTTaskBPrac Prime_1N Target_9N lGgjDLK ahfFckm Incongruent left correct Normal 551.856
112 149 LeftLarger RTTaskBPrac Prime_6A Target_9N CafmjDM cLDCile Congruent left correct Normal 397.2983
112 150 LeftLarger RTTaskBPrac Prime_1A Target_4A FaglAcD lAMKDch Congruent right correct Normal 400.7056
112 151 LeftLarger RTTaskBPrac Prime_1A Target_6A hfaFiKE kaMdjfh Incongruent left correct Normal 465.6812
112 152 LeftLarger RTTaskBPrac Prime_1A Target_6N dMimKJG clImBDE Incongruent left correct Normal 656.9704
112 153 LeftLarger RTTaskBPrac Prime_9N Target_9N cLBGghK ikHmdeB Congruent left correct Normal 532.2982
112 154 LeftLarger RTTaskBPrac Prime_9N Target_9A GbCkAjM cjkifeJ Congruent left correct Normal 431.6063
112 155 LeftLarger RTTaskBPrac Prime_9A Target_6A HgGfaMm kjCJgEc Congruent left correct Normal 442.1572
112 156 LeftLarger RTTaskBPrac Prime_9A Target_9N jfhdJcb JfCljHK Congruent left correct Normal 435.0531
112 157 LeftLarger RTTaskBPrac Prime_4A Target_1A lbdIghA eHFIgCd Congruent right correct Normal 395.8581
112 158 LeftLarger RTTaskBPrac Prime_4A Target_9N DdGlahK cjbKDIe Incongruent left correct Normal 450.2631
112 159 LeftLarger RTTaskBPrac Prime_1N Target_1N ajlKGLI IdFBgeL Congruent left error Normal 410.1804
112 160 LeftLarger RTTaskBPrac Prime_9N Target_1A CJfMgLb debBDLK Incongruent right correct Normal 725.7392
112 161 LeftLarger RTTaskBPrac Prime_1N Target_1N JGMadFC glaBCGh Congruent right correct Normal 411.7775
112 162 LeftLarger RTTaskBPrac Prime_9A Target_1N akecCBj kgCcADL Incongruent right correct Normal 392.0584
112 163 LeftLarger RTTaskBPrac Prime_6N Target_9A LJCFKIa BabimcH Congruent left correct Normal 480.8438
112 164 LeftLarger RTTaskBPrac Prime_9N Target_4N ekFLhBC JCgbikD Incongruent right correct Normal 498.8103
112 165 LeftLarger RTTaskBExp1 Prime_4A Target_4A BcDHAJE EejciHm Congruent right correct Normal 444.9935
112 166 LeftLarger RTTaskBExp1 Prime_6A Target_9N IBfGMdc LDmJfec Congruent left correct Normal 508.5149
112 167 LeftLarger RTTaskBExp1 Prime_1N Target_1A cKgbIjD MDmKCEj Congruent right correct Normal 442.7405
112 168 LeftLarger RTTaskBExp1 Prime_1N Target_9N BJCmFel aGhIJdl Incongruent left correct Normal 440.854
112 169 LeftLarger RTTaskBExp1 Prime_6A Target_4A fKFkEHI EjCgiMe Incongruent right correct Normal 426.4981
112 170 LeftLarger RTTaskBExp1 Prime_1N Target_4N HBceJEA eEIkBKb Congruent right correct Normal 463.3046
112 171 LeftLarger RTTaskBExp1 Prime_4A Target_9N bIefdhk GMgAmla Incongruent left correct Normal 502.7179
112 172 LeftLarger RTTaskBExp1 Prime_4N Target_6N jEBfdFe iDFjdKA Incongruent left correct Normal 532.8847
112 173 LeftLarger RTTaskBExp1 Prime_6A Target_9A iIKFLgA GbKFhCB Congruent left correct Normal 548.02
112 174 LeftLarger RTTaskBExp1 Prime_6N Target_9A LbgCMBc Jealcmf Congruent left correct Normal 446.2298
112 175 LeftLarger RTTaskBExp1 Prime_9A Target_4A BaKCLij eKjFaAH Incongruent right correct Normal 508.2523
112 176 LeftLarger RTTaskBExp1 Prime_1A Target_6N gbEhGMk gHjBafL Incongruent left correct Normal 552.9153
112 177 LeftLarger RTTaskBExp1 Prime_1A Target_4A bEHhAkF EiBbfhD Congruent right correct Normal 464.4879
112 178 LeftLarger RTTaskBExp1 Prime_1A Target_4N IHjJCBb cehCbBk Congruent right correct Normal 406.8837
112 179 LeftLarger RTTaskBExp1 Prime_1A Target_9N ABHjMhb eJFCamb Incongruent left correct Normal 508.1156
112 180 LeftLarger RTTaskBExp1 Prime_9N Target_4N HbJBALK CIiFakm Incongruent right correct Normal 449.2883
112 181 LeftLarger RTTaskBExp1 Prime_9N Target_9A eFDGHMk LDdkFIC Congruent left correct Normal 629.5855
112 182 LeftLarger RTTaskBExp1 Prime_9A Target_1A gHLljJF FkKDAML Incongruent right correct Normal 465.7506
112 183 LeftLarger RTTaskBExp1 Prime_1N Target_6N IGaKcjE cLCgDdk Incongruent left correct Normal 588.3315
112 184 LeftLarger RTTaskBExp1 Prime_9A Target_6A DHhbAJL fIMChBb Congruent left correct Normal 485.6459
112 185 LeftLarger RTTaskBExp1 Prime_4A Target_6N HDMiEAd ibAhIaG Incongruent left correct Normal 430.2421
112 186 LeftLarger RTTaskBExp1 Prime_4A Target_1A iLgmIeJ ekCcBDa Congruent right correct Normal 391.3476
112 187 LeftLarger RTTaskBExp1 Prime_6N Target_1N DFGimAb JaeCfFG Incongruent right correct Normal 527.2558
112 188 LeftLarger RTTaskBExp1 Prime_4N Target_1A iHjEIDk dIikHlG Congruent right correct Normal 399.9147
112 189 LeftLarger RTTaskBExp1 Prime_6N Target_6N fFdhbGc BaLJKjd Congruent left correct Normal 563.9064
112 190 LeftLarger RTTaskBExp1 Prime_6A Target_1A dhbiBgl bGfBkCh Incongruent right correct Normal 578.0903
112 191 LeftLarger RTTaskBExp1 Prime_6N Target_6A CkBmelJ lMFhmdD Congruent left correct Normal 497.6758
112 192 LeftLarger RTTaskBExp1 Prime_6A Target_6N bhIglBa iLlMcgb Congruent left correct Normal 547.3501
112 193 LeftLarger RTTaskBExp1 Prime_4A Target_9A fmMecbd kgCKFaD Incongruent left correct Normal 403.6982
112 194 LeftLarger RTTaskBExp1 Prime_4N Target_9N ecLJHig LeBGJih Incongruent left correct Normal 483.0484
112 195 LeftLarger RTTaskBExp1 Prime_1N Target_1N ALCiFeI kLGhgmH Congruent right correct Normal 447.7746
112 196 LeftLarger RTTaskBExp1 Prime_9N Target_1N DbEjdlK DBGFaJC Incongruent right correct Normal 426.3693
112 197 LeftLarger RTTaskBExp1 Prime_4N Target_4A DMJLlid KgGCJiD Congruent right correct Normal 433.2555
112 198 LeftLarger RTTaskBExp1 Prime_1A Target_9A mKgHkbM gcJfCjb Incongruent left correct Normal 464.8889
112 199 LeftLarger RTTaskBExp1 Prime_9N Target_9N BjEmKGL ildemLF Congruent left correct Normal 531.7363
112 200 LeftLarger RTTaskBExp1 Prime_9A Target_4N mJijfdF FjdLDac Incongruent right correct Normal 466.6135
112 201 LeftLarger RTTaskBExp1 Prime_9A Target_6N ghMlEID jELhidk Congruent left correct Normal 567.1888
112 202 LeftLarger RTTaskBExp1 Prime_9N Target_1A IiGCHdM HJLkljA Incongruent right correct Normal 467.7292
112 203 LeftLarger RTTaskBExp1 Prime_6N Target_9N MjLgebB efKBLDa Congruent left correct Normal 502.2694
112 204 LeftLarger RTTaskBExp1 Prime_4N Target_6A JADjGai HeLAECG Incongruent right error Normal 429.9511
112 205 LeftLarger RTTaskBExp1 Prime_1N Target_9A hlEJkaB DMfkIGl Incongruent left correct Normal 504.8892
112 206 LeftLarger RTTaskBExp1 Prime_4N Target_1N BHdikfC FhMbJCg Congruent right correct Normal 592.7961
112 207 LeftLarger RTTaskBExp1 Prime_6A Target_6A AkilfIL HEaeihb Congruent left correct Normal 483.2051
112 208 LeftLarger RTTaskBExp1 Prime_9A Target_1N MmGbICg ghalGEF Incongruent right correct Normal 480.3829
112 209 LeftLarger RTTaskBExp1 Prime_9A Target_9A EGgDdbh jDIEbLC Congruent left correct Normal 453.2807
112 210 LeftLarger RTTaskBExp1 Prime_9N Target_6A amFGgBE LAEdIGC Congruent left correct Normal 634.4426
112 211 LeftLarger RTTaskBExp1 Prime_1A Target_1N mIMLhgK bjBAIeh Congruent right correct Normal 447.0049
112 212 LeftLarger RTTaskBExp1 Prime_6N Target_1A AiceFEG fkCbdLJ Incongruent right correct Normal 377.9132
112 213 LeftLarger RTTaskBExp1 Prime_1N Target_4A EJBdGKD EiJbBgL Congruent right correct Normal 487.9547
112 214 LeftLarger RTTaskBExp1 Prime_4A Target_6A gHjDJKL McJalCF Incongruent left correct Normal 419.6141
112 215 LeftLarger RTTaskBExp1 Prime_6N Target_4N gdaMHic CfkKIAL Incongruent right correct Normal 602.3297
112 216 LeftLarger RTTaskBExp1 Prime_6N Target_4A KIHFcfb bfmIFld Incongruent right correct Normal 569.2904
112 217 LeftLarger RTTaskBExp1 Prime_4A Target_4N MjeLhFa GiMbLBA Congruent right correct Normal 436.4431
112 218 LeftLarger RTTaskBExp1 Prime_6A Target_1N mbCGeIH ifFcEhm Incongruent right correct Normal 471.5614
112 219 LeftLarger RTTaskBExp1 Prime_4N Target_9A GlECkKB GmKIbHB Incongruent left correct Normal 415.4402
112 220 LeftLarger RTTaskBExp1 Prime_4N Target_4N MdAJBcK fdMBahl Congruent left error Normal 477.6181
112 221 LeftLarger RTTaskBExp1 Prime_1A Target_1A DMeJchd LJgmcHI Congruent right correct Normal 414.9105
112 222 LeftLarger RTTaskBExp1 Prime_9N Target_6N IhJaicH AfCFIKg Congruent left correct Normal 488.5701
112 223 LeftLarger RTTaskBExp1 Prime_1N Target_6A FDeiJLE HibAKea Incongruent left correct Normal 670.1178
112 224 LeftLarger RTTaskBExp1 Prime_4N Target_4N BeEfbFd dcfHLGC Congruent right correct Normal 725.4364
112 225 LeftLarger RTTaskBExp1 Prime_4N Target_6A maelBiG lDLMbkA Incongruent left correct Normal 539.5184
112 226 LeftLarger RTTaskBExp1 Prime_9N Target_4A LmClikf DdLjFBa Incongruent right correct Normal 522.7951
112 227 LeftLarger RTTaskBExp1 Prime_9A Target_9N BCmcfHF mJBFLAG Congruent left correct Normal 484.6677
112 228 LeftLarger RTTaskBExp1 Prime_4A Target_1N IDGLCJa AFmHEbL Congruent right correct Normal 477.5371
112 229 LeftLarger RTTaskBExp1 Prime_6A Target_4N CFhfldg LlhidjC Incongruent right correct Normal 527.2548
112 230 LeftLarger RTTaskBExp1 Prime_1A Target_6A HMAicJB fLkAJia Incongruent left correct Normal 464.5364
112 231 LeftLarger RTTaskBExp2 Prime_9A Target_9N jACHDhI eFhCgAd Congruent left correct Normal 465.1201
112 232 LeftLarger RTTaskBExp2 Prime_4A Target_9N fdBAaiE DdbEkgI Incongruent left correct Normal 396.8039
112 233 LeftLarger RTTaskBExp2 Prime_9N Target_6A kJmhIFj JkIidCa Congruent left correct Normal 488.3009
112 234 LeftLarger RTTaskBExp2 Prime_4A Target_1A FbBMJgA kmgJCjl Congruent right correct Normal 434.6151
112 235 LeftLarger RTTaskBExp2 Prime_4N Target_6N hfIAciG CKcJGkl Incongruent left correct Normal 557.3045
112 236 LeftLarger RTTaskBExp2 Prime_9N Target_9N GhHAJkC MlAHCkj Congruent left correct Normal 478.4834
112 237 LeftLarger RTTaskBExp2 Prime_6A Target_4A clDAEFb JghCHFI Incongruent right correct Normal 432.7429
112 238 LeftLarger RTTaskBExp2 Prime_1N Target_4N MJaeAIL elBCjLk Congruent right correct Normal 456.1504
112 239 LeftLarger RTTaskBExp2 Prime_4N Target_1A GebgLBE bHDldai Congruent right correct Normal 485.445
112 240 LeftLarger RTTaskBExp2 Prime_9N Target_4A jKaidhI CBdmMLk Incongruent right correct Normal 455.8399
112 241 LeftLarger RTTaskBExp2 Prime_6N Target_6N bkAKdCc fJdHieg Congruent left correct Normal 477.5088
112 242 LeftLarger RTTaskBExp2 Prime_4A Target_6N efhkBiI cbeEmFL Incongruent left correct Normal 491.3703
112 243 LeftLarger RTTaskBExp2 Prime_1A Target_9A bCjhKBD cjBDgHh Incongruent left correct Normal 539.3323
112 244 LeftLarger RTTaskBExp2 Prime_4A Target_1N eiCHIbh LCfbkGK Congruent right correct Normal 511.8668
112 245 LeftLarger RTTaskBExp2 Prime_6A Target_6N CagKJmL Kkhbejm Congruent left correct Normal 491.3209
112 246 LeftLarger RTTaskBExp2 Prime_1A Target_4A mCcAial BEILldh Congruent right correct Normal 487.0284
112 247 LeftLarger RTTaskBExp2 Prime_1A Target_9N jiCAmbM aJLiIAF Incongruent left correct Normal 467.8815
112 248 LeftLarger RTTaskBExp2 Prime_9N Target_1A cElkBhD IeECmbF Incongruent right correct Normal 419.0486
112 249 LeftLarger RTTaskBExp2 Prime_6A Target_4N CmFjIcl icjHDdF Incongruent right correct Normal 495.2091
112 250 LeftLarger RTTaskBExp2 Prime_4N Target_4N bBjMlGf GafHdKE Congruent right correct Normal 389.8614
112 251 LeftLarger RTTaskBExp2 Prime_1N Target_6A IAMkGFD iedhcEm Incongruent left correct Normal 424.5377
112 252 LeftLarger RTTaskBExp2 Prime_9N Target_4N dcmlbeK GHjbDmL Incongruent right correct Normal 601.3224
112 253 LeftLarger RTTaskBExp2 Prime_6N Target_6A LkmlIhg mGCkjHK Congruent left correct Normal 459.2046
112 254 LeftLarger RTTaskBExp2 Prime_1N Target_9A EjlaILC ekMGaLb Incongruent left correct Normal 483.0218
112 255 LeftLarger RTTaskBExp2 Prime_9N Target_1N EBehMDG AlFGkhK Incongruent right correct Normal 438.7614
112 256 LeftLarger RTTaskBExp2 Prime_1N Target_4A jklEFDf CAlIcgk Congruent right correct Normal 711.544
112 257 LeftLarger RTTaskBExp2 Prime_1N Target_1N gCimjfd cMiKaFC Congruent right correct Normal 480.9049
112 258 LeftLarger RTTaskBExp2 Prime_6A Target_9A eGFHhIM MCgbafi Congruent left correct Normal 377.4461
112 259 LeftLarger RTTaskBExp2 Prime_4N Target_4A FkfdGCj gFLJlMa Congruent right correct Normal 466.0095
112 260 LeftLarger RTTaskBExp2 Prime_6N Target_9A BlkCIeg jGiMDHK Congruent left correct Normal 515.0332
112 261 LeftLarger RTTaskBExp2 Prime_9A Target_1N jEJBemL daILJAe Incongruent right correct Normal 399.5456
112 262 LeftLarger RTTaskBExp2 Prime_1A Target_4N DcLliIK JIGlaeH Congruent right correct Normal 672.9702
112 263 LeftLarger RTTaskBExp2 Prime_1N Target_1A eiJHlkG JcEgmBj Congruent right correct Normal 427.8513
112 264 LeftLarger RTTaskBExp2 Prime_9A Target_6A hIbkmfM lgeAjDI Congruent left correct Normal 466.1708
112 265 LeftLarger RTTaskBExp2 Prime_6N Target_1A iGHMfDJ aALbdfC Incongruent right correct Normal 432.4764
112 266 LeftLarger RTTaskBExp2 Prime_1A Target_1N BkdfCHK AHImkFL Congruent right correct Normal 402.041
112 267 LeftLarger RTTaskBExp2 Prime_1N Target_6N BakdCJi CkcjAmh Incongruent left correct Normal 608.4531
112 268 LeftLarger RTTaskBExp2 Prime_9A Target_9A ifFhkKH GglAHkI Congruent left correct Normal 440.7966
112 269 LeftLarger RTTaskBExp2 Prime_6N Target_4A BMGJkDK mKgfcaL Incongruent right correct Normal 519.6837
112 270 LeftLarger RTTaskBExp2 Prime_4N Target_6A mIaKeFb DcKJlba Incongruent left correct Normal 597.6737
112 271 LeftLarger RTTaskBExp2 Prime_4N Target_1N hjfFJKk GMABKhE Congruent right correct Normal 437.2929
112 272 LeftLarger RTTaskBExp2 Prime_9A Target_1A cMibFlm hImAcgJ Incongruent right correct Normal 411.1291
112 273 LeftLarger RTTaskBExp2 Prime_1A Target_6N FjEeCAk agmBdDE Incongruent left correct Normal 483.1944
112 274 LeftLarger RTTaskBExp2 Prime_9N Target_9A bkiImHa MAhjkcF Congruent left correct Normal 490.9429
112 275 LeftLarger RTTaskBExp2 Prime_4A Target_4A eiHagFh KMLbgHf Congruent right correct Normal 589.8546
112 276 LeftLarger RTTaskBExp2 Prime_4A Target_4N HJbGLMA gHLeGDi Congruent right correct Normal 642.784
112 277 LeftLarger RTTaskBExp2 Prime_6A Target_1A LjIGkfC CKblfJE Incongruent right correct Normal 441.9838
112 278 LeftLarger RTTaskBExp2 Prime_4N Target_9A BbfMehi BflDgiG Incongruent left correct Normal 410.5166
112 279 LeftLarger RTTaskBExp2 Prime_6A Target_1N iAlaJIb LgcBjmd Incongruent right correct Normal 381.6265
112 280 LeftLarger RTTaskBExp2 Prime_6N Target_4N lGCLiDb GLhgjHK Incongruent right correct Normal 466.785
112 281 LeftLarger RTTaskBExp2 Prime_6N Target_1N HclgkGh JEgAIeD Incongruent right correct Normal 436.5183
112 282 LeftLarger RTTaskBExp2 Prime_4A Target_6A cKmdikF DgKBLHE Incongruent left correct Normal 463.2451
112 283 LeftLarger RTTaskBExp2 Prime_1A Target_1A KaelmgF jHfakIF Congruent right correct Normal 405.9468
112 284 LeftLarger RTTaskBExp2 Prime_1N Target_9N giJfDce gKkFfLD Incongruent left correct Normal 452.467
112 285 LeftLarger RTTaskBExp2 Prime_9A Target_6N kKGCbJh CDAiEjd Congruent left correct Normal 538.2947
112 286 LeftLarger RTTaskBExp2 Prime_4N Target_9N fFBCibk IilbmHG Incongruent left correct Normal 573.3546
112 287 LeftLarger RTTaskBExp2 Prime_6A Target_9N HeJbcgM CliLFKk Congruent left correct Normal 403.2409
112 288 LeftLarger RTTaskBExp2 Prime_6A Target_6A CkeHiBE MLDeCAF Congruent left correct Normal 571.7959
112 289 LeftLarger RTTaskBExp2 Prime_9A Target_4A chkjdAF MLcBHKf Incongruent right correct Normal 525.8193
112 290 LeftLarger RTTaskBExp2 Prime_6N Target_9N hGaldcj HGcilme Congruent left correct Normal 439.8387
112 291 LeftLarger RTTaskBExp2 Prime_1A Target_6A HEafGBg FkJhbgi Incongruent left correct Normal 474.6349
112 292 LeftLarger RTTaskBExp2 Prime_4A Target_9A hKkGbLi FaimkMe Incongruent left correct Normal 398.888
112 293 LeftLarger RTTaskBExp2 Prime_9N Target_6N hCEJdem LeMmcDi Congruent left correct Normal 644.6057
112 294 LeftLarger RTTaskBExp2 Prime_9A Target_4N lebDEmh GBMkDIa Incongruent right correct Normal 413.1284
113 1 LeftSmaller RTTaskAPrac Prime_4N Target_9N eDcjhmI LbeckIf Incongruent right correct Normal 882.3569
113 2 LeftSmaller RTTaskAPrac Prime_4N Target_1A EbJHIMc lCjFdab Congruent right error Late 1522.544
113 3 LeftSmaller RTTaskAPrac Prime_1N Target_4A cLfCIjD CcIMlfj Congruent left correct Normal 795.1192
113 4 LeftSmaller RTTaskAPrac Prime_4N Target_9A GfCBFhI lLFcdKh Incongruent left error Late 2869.575
113 5 LeftSmaller RTTaskAPrac Prime_6A Target_9N MbajIcA BejCkfb Congruent right correct Late 1335.369
113 6 LeftSmaller RTTaskAPrac Prime_6A Target_4A AjJIhBc FbKeEki Incongruent left correct Normal 879.8328
113 7 LeftSmaller RTTaskAPrac Prime_9N Target_1A EgAMBkc ckhEDdB Incongruent left correct Normal 829.6234
113 8 LeftSmaller RTTaskAPrac Prime_9N Target_4N bDEhmGH MAfhJeB Incongruent left correct Normal 721.1909
113 9 LeftSmaller RTTaskAPrac Prime_9A Target_1N kFhKeAf lKjecBb Incongruent left correct Normal 620.0813
113 10 LeftSmaller RTTaskAPrac Prime_4N Target_1A jDFKgkc dLJaFjH Congruent left correct Normal 511.3859
113 11 LeftSmaller RTTaskAPrac Prime_4N Target_9A AaKbdIj BHbmFDh Incongruent right correct Normal 757.415
113 12 LeftSmaller RTTaskAPrac Prime_1A Target_9N KMejLlH hGFlKfa Incongruent right correct Normal 551.6666
113 13 LeftSmaller RTTaskAPrac Prime_4A Target_6N AEBbMHd JcMCldm Incongruent right correct Normal 526.0317
113 14 LeftSmaller RTTaskAPrac Prime_4A Target_6A FfkAiej KHmJbfE Incongruent right correct Normal 512.8411
113 15 LeftSmaller RTTaskAPrac Prime_4N Target_9N ehmdLbk IMjCLgc Incongruent right correct Normal 536.4888
113 16 LeftSmaller RTTaskAPrac Prime_1N Target_4N aeJHIdD ImDbeEi Congruent left correct Normal 599.6104
113 17 LeftSmaller RTTaskAPrac Prime_6N Target_9N gCaKABh aFlJICm Congruent right correct Normal 614.6662
113 18 LeftSmaller RTTaskAPrac Prime_6A Target_9N EKCjmgl aHigCek Congruent right correct Normal 626.9783
113 19 LeftSmaller RTTaskAPrac Prime_6A Target_1A jfbJKkL AMFlJkb Incongruent left correct Normal 522.5285
113 20 LeftSmaller RTTaskAPrac Prime_4N Target_4N cIadkhl mhLKGjf Congruent left correct Normal 621.3307
113 21 LeftSmaller RTTaskAExp1 Prime_6A Target_6A ahfKjJc IAbHcCj Congruent right correct Normal 886.1081
113 22 LeftSmaller RTTaskAExp1 Prime_6N Target_1A ckmJeIC eEifkHg Incongruent left correct Normal 494.0124
113 23 LeftSmaller RTTaskAExp1 Prime_1A Target_1N JLhmcdK iDkmaLA Congruent left correct Normal 521.0516
113 24 LeftSmaller RTTaskAExp1 Prime_4N Target_9A AaildFI BihMcgE Incongruent right correct Normal 521.9868
113 25 LeftSmaller RTTaskAExp1 Prime_9N Target_9A jDgKaLd HfAmkBG Congruent right correct Normal 414.6527
113 26 LeftSmaller RTTaskAExp1 Prime_1N Target_9N EmLIgFJ JdKaLBi Incongruent right correct Normal 533.4983
113 27 LeftSmaller RTTaskAExp1 Prime_9A Target_6N kAdeEjb HDjimhl Congruent right correct Normal 517.8402
113 28 LeftSmaller RTTaskAExp1 Prime_6N Target_1N gDEilbf KlkceMD Incongruent left correct Normal 508.4214
113 29 LeftSmaller RTTaskAExp1 Prime_1A Target_6A BgEkHIK LDMjJFg Incongruent right correct Normal 519.6027
113 30 LeftSmaller RTTaskAExp1 Prime_1N Target_9A JMGjLmD LmDGHCg Incongruent right correct Normal 455.612
113 31 LeftSmaller RTTaskAExp1 Prime_4N Target_9N lIFGLCj cgdFKaL Incongruent right correct Normal 468.0444
113 32 LeftSmaller RTTaskAExp1 Prime_4A Target_6A GDihABL eMGhiLH Incongruent right correct Normal 463.3203
113 33 LeftSmaller RTTaskAExp1 Prime_1N Target_6N jgdMGmF AfdJaje Incongruent right correct Normal 495.231
113 34 LeftSmaller RTTaskAExp1 Prime_9N Target_1N IbgheEl eDdGlHa Incongruent left correct Normal 395.0263
113 35 LeftSmaller RTTaskAExp1 Prime_1N Target_1N mfCLdgK hAEaFCH Congruent left correct Normal 379.6553
113 36 LeftSmaller RTTaskAExp1 Prime_4A Target_4N kIeBJbd ilcCbek Congruent left correct Normal 547.7219
113 37 LeftSmaller RTTaskAExp1 Prime_6N Target_4A LfmIbkM GeDImkE Incongruent left correct Normal 386.1297
113 38 LeftSmaller RTTaskAExp1 Prime_9N Target_9N FcKeIDH DbMcKBF Congruent right correct Normal 540.1848
113 39 LeftSmaller RTTaskAExp1 Prime_9A Target_4N mLlKdie jagJhli Incongruent left correct Normal 507.0731
113 40 LeftSmaller RTTaskAExp1 Prime_4N Target_6A biBLFhl bjcaFgl Incongruent right correct Normal 660.8077
113 41 LeftSmaller RTTaskAExp1 Prime_1N Target_1A cHFJCKb eIjAcfD Congruent left correct Normal 421.7894
113 42 LeftSmaller RTTaskAExp1 Prime_9A Target_1N aFkKHlg KgbjHkI Incongruent left correct Normal 467.464
113 43 LeftSmaller RTTaskAExp1 Prime_6N Target_4N hLmEgFk aMJGcmI Incongruent left correct Normal 485.1376
113 44 LeftSmaller RTTaskAExp1 Prime_6N Target_9A EaLeJcd jkgbdcL Congruent right correct Normal 454.5266
113 45 LeftSmaller RTTaskAExp1 Prime_9N Target_6A ajCeEmL CehMKjk Congruent right correct Normal 690.0825
113 46 LeftSmaller RTTaskAExp1 Prime_6A Target_6N DaHjdbg DMeaBgh Congruent right correct Normal 463.3798
113 47 LeftSmaller RTTaskAExp1 Prime_9A Target_4A JeCFDEl CeckGbj Incongruent left correct Normal 376.4138
113 48 LeftSmaller RTTaskAExp1 Prime_6A Target_4N hkDGfgH jGkcbgM Incongruent left correct Normal 444.6967
113 49 LeftSmaller RTTaskAExp1 Prime_9A Target_6A kmlBbFg djaJmkG Congruent right correct Normal 511.3149
113 50 LeftSmaller RTTaskAExp1 Prime_4N Target_4N EMFilcH emlLAiD Congruent left correct Normal 474.7249
113 51 LeftSmaller RTTaskAExp1 Prime_9A Target_9A aCDfLjc aJcIMml Congruent right correct Normal 459.5018
113 52 LeftSmaller RTTaskAExp1 Prime_1A Target_9A LHJdAab hkbjGci Incongruent right correct Normal 364.9664
113 53 LeftSmaller RTTaskAExp1 Prime_9N Target_1A eBjlKLh JgfBIiF Incongruent left correct Normal 390.9688
113 54 LeftSmaller RTTaskAExp1 Prime_4A Target_4A HMefhIE aJjHGbh Congruent left correct Normal 470.1305
113 55 LeftSmaller RTTaskAExp1 Prime_4A Target_1N hDLdFeB EAICFej Congruent left correct Normal 469.4296
113 56 LeftSmaller RTTaskAExp1 Prime_1N Target_4A CHfmekG jemLBkF Congruent left correct Normal 398.2605
113 57 LeftSmaller RTTaskAExp1 Prime_1A Target_4N AhBamKH KaeGgFh Congruent left correct Normal 467.4366
113 58 LeftSmaller RTTaskAExp1 Prime_9N Target_4N ACfEDcG jDGJEHc Incongruent left correct Normal 431.4972
113 59 LeftSmaller RTTaskAExp1 Prime_6A Target_1N hlkIfHF cAKkBma Incongruent left correct Normal 410.7655
113 60 LeftSmaller RTTaskAExp1 Prime_1A Target_9N HGFcgMh aIGEDFL Incongruent right correct Normal 476.9354
113 61 LeftSmaller RTTaskAExp1 Prime_1A Target_4A GKMICHF blDdACE Congruent left correct Normal 368.1113
113 62 LeftSmaller RTTaskAExp1 Prime_4N Target_1N IhdEciA mfCFdlb Congruent left correct Normal 445.8197
113 63 LeftSmaller RTTaskAExp1 Prime_6A Target_9N gBCAjla GlDEcja Congruent right correct Normal 481.0404
113 64 LeftSmaller RTTaskAExp1 Prime_4A Target_9N BHfghEk CDeiGkh Incongruent right correct Normal 465.937
113 65 LeftSmaller RTTaskAExp1 Prime_4N Target_6N abimFGk EMHjACd Incongruent right correct Normal 495.7413
113 66 LeftSmaller RTTaskAExp1 Prime_9A Target_9N BECFDIm EHGgmCi Congruent right correct Normal 496.5424
113 67 LeftSmaller RTTaskAExp1 Prime_6N Target_6A EbKgiAC EBAlkKa Congruent right correct Normal 444.72
113 68 LeftSmaller RTTaskAExp1 Prime_6N Target_9N IjFJgAm JFGfiel Congruent right correct Normal 466.5961
113 69 LeftSmaller RTTaskAExp1 Prime_4N Target_1A kHbELel eajAlmM Congruent left correct Normal 426.4025
113 70 LeftSmaller RTTaskAExp1 Prime_9N Target_6N AEKmGLD JFBHiDK Congruent right correct Normal 552.7499
113 71 LeftSmaller RTTaskAExp1 Prime_4N Target_4A FDEbimK aEKFmkc Congruent left correct Normal 411.6043
113 72 LeftSmaller RTTaskAExp1 Prime_6A Target_1A mKMDibB CmagIhB Incongruent left correct Normal 378.7862
113 73 LeftSmaller RTTaskAExp1 Prime_4A Target_1A edGicMj ekjFMiI Congruent left correct Normal 401.0641
113 74 LeftSmaller RTTaskAExp1 Prime_6N Target_6N CIjmADf iEcLegG Congruent right correct Normal 519.8349
113 75 LeftSmaller RTTaskAExp1 Prime_6A Target_9A BgFljHa FMjfLle Congruent right correct Normal 417.3812
113 76 LeftSmaller RTTaskAExp1 Prime_9N Target_4A GkMjJHg mgafhbM Incongruent left correct Normal 435.8724
113 77 LeftSmaller RTTaskAExp1 Prime_6A Target_4A jdDbJkB gLJdFcb Incongruent left correct Normal 420.2344
113 78 LeftSmaller RTTaskAExp1 Prime_1N Target_4N gBeJGAK klJAjeb Congruent left correct Normal 519.2357
113 79 LeftSmaller RTTaskAExp1 Prime_9A Target_1A AMcHbfd HIhldEG Incongruent left correct Normal 382.9305
113 80 LeftSmaller RTTaskAExp1 Prime_4A Target_9A HEMJhkf kIfJFhj Incongruent right correct Normal 410.9856
113 81 LeftSmaller RTTaskAExp1 Prime_1A Target_6N ehKDIJi idJcEgl Incongruent right correct Normal 415.3987
113 82 LeftSmaller RTTaskAExp1 Prime_1N Target_6A MDBfbLK AMelIfc Incongruent right correct Normal 433.7815
113 83 LeftSmaller RTTaskAExp1 Prime_1A Target_1A jfcaBGm eklhgFj Congruent left correct Normal 422.0587
113 84 LeftSmaller RTTaskAExp1 Prime_4A Target_6N MDFHEcm acBkGdI Incongruent right correct Normal 479.6186
113 85 LeftSmaller RTTaskAExp2 Prime_1A Target_4N haJdDKF IcCAJaD Congruent left correct Normal 501.5505
113 86 LeftSmaller RTTaskAExp2 Prime_4A Target_9N GDgLHCJ gaKIJeb Incongruent right correct Normal 430.2334
113 87 LeftSmaller RTTaskAExp2 Prime_9N Target_6A hMamJKl maKdHiM Congruent right correct Normal 463.491
113 88 LeftSmaller RTTaskAExp2 Prime_9A Target_1A gAblFid kFcEdLh Incongruent left correct Normal 377.9254
113 89 LeftSmaller RTTaskAExp2 Prime_1A Target_1N AehKLlD BdcCMiH Congruent left correct Normal 404.5578
113 90 LeftSmaller RTTaskAExp2 Prime_4N Target_1A CGkHBlA CAhkILf Congruent left correct Normal 355.878
113 91 LeftSmaller RTTaskAExp2 Prime_9N Target_4A fFmLDcB cGAIBak Incongruent left correct Normal 495.7477
113 92 LeftSmaller RTTaskAExp2 Prime_6A Target_9A JAKiaHE djhkCEe Congruent right correct Normal 397.453
113 93 LeftSmaller RTTaskAExp2 Prime_4N Target_1N hbifmeI FKbmGLa Congruent left correct Normal 384.05
113 94 LeftSmaller RTTaskAExp2 Prime_6N Target_6N gMeJlKE GJihCDa Congruent right correct Normal 422.6502
113 95 LeftSmaller RTTaskAExp2 Prime_9N Target_9N hFbLeEj ajLDlBI Congruent right correct Normal 493.0598
113 96 LeftSmaller RTTaskAExp2 Prime_6N Target_6A aDElAGi KcMGgCi Congruent left error Normal 359.6899
113 97 LeftSmaller RTTaskAExp2 Prime_4A Target_9A dIkDgHG aMDiJlc Incongruent right correct Normal 461.1547
113 98 LeftSmaller RTTaskAExp2 Prime_6A Target_6A eECBKlh igefmAL Congruent right correct Normal 492.8286
113 99 LeftSmaller RTTaskAExp2 Prime_1A Target_6N faibCeF IBJGAiM Incongruent right correct Normal 451.0988
113 100 LeftSmaller RTTaskAExp2 Prime_9A Target_9A KAhLgcE LcJAIKG Congruent right correct Normal 389.1572
113 101 LeftSmaller RTTaskAExp2 Prime_6N Target_9A AchEKbF bDBaHJL Congruent right correct Normal 407.6441
113 102 LeftSmaller RTTaskAExp2 Prime_4N Target_6N CjbaIhe bcklABF Incongruent right correct Normal 443.689
113 103 LeftSmaller RTTaskAExp2 Prime_4A Target_1A dMilkDB maCgIje Congruent left correct Normal 444.4153
113 104 LeftSmaller RTTaskAExp2 Prime_6N Target_1N LlCIbGe aLHbEkK Incongruent left correct Normal 403.5768
113 105 LeftSmaller RTTaskAExp2 Prime_9N Target_9A debkGiL BGhCEgk Congruent right correct Normal 404.0578
113 106 LeftSmaller RTTaskAExp2 Prime_4A Target_4N BIfLekJ CmeGIAg Congruent right error Normal 514.4605
113 107 LeftSmaller RTTaskAExp2 Prime_9A Target_1N lALiaJH mlfkHIE Incongruent left correct Normal 483.4615
113 108 LeftSmaller RTTaskAExp2 Prime_4A Target_1N kBfIDhj GAgMBci Congruent left correct Normal 440.2462
113 109 LeftSmaller RTTaskAExp2 Prime_1N Target_6N eBigmhA ckdHiBf Incongruent right correct Normal 537.1606
113 110 LeftSmaller RTTaskAExp2 Prime_6A Target_4N hefAcFM dAfheMF Incongruent left correct Normal 578.9501
113 111 LeftSmaller RTTaskAExp2 Prime_4N Target_4N KdjkAJb BFIcDHg Congruent left correct Normal 384.8797
113 112 LeftSmaller RTTaskAExp2 Prime_9A Target_6A lLbFAhf kCgiGEB Congruent right correct Normal 475.146
113 113 LeftSmaller RTTaskAExp2 Prime_1A Target_9A iLajlDA KLbmdEC Incongruent right correct Normal 453.1215
113 114 LeftSmaller RTTaskAExp2 Prime_6N Target_4A eGIgKlf IlHbKBL Incongruent left correct Normal 424.8237
113 115 LeftSmaller RTTaskAExp2 Prime_6N Target_4N cgECMHb GjmJehC Incongruent left correct Normal 512.8901
113 116 LeftSmaller RTTaskAExp2 Prime_6A Target_9N kIbKaAj HjbFJEL Congruent right correct Normal 480.5619
113 117 LeftSmaller RTTaskAExp2 Prime_9A Target_4N AFhkCBb AagjImD Incongruent left correct Normal 562.9641
113 118 LeftSmaller RTTaskAExp2 Prime_1A Target_9N cdCLFgh fEmMbKG Incongruent right correct Normal 514.7693
113 119 LeftSmaller RTTaskAExp2 Prime_6A Target_1N lHimkAa hCebMcI Incongruent left correct Normal 395.297
113 120 LeftSmaller RTTaskAExp2 Prime_4N Target_6A aMJIcLB KkmAjgB Incongruent right correct Normal 430.2189
113 121 LeftSmaller RTTaskAExp2 Prime_4N Target_9A ALFkEJD GgDJbEi Incongruent right correct Normal 402.386
113 122 LeftSmaller RTTaskAExp2 Prime_9N Target_4N EfFAdCl eGBlcdj Incongruent left correct Normal 479.168
113 123 LeftSmaller RTTaskAExp2 Prime_4A Target_4N FAHLhDb IgJAaKj Congruent left correct Normal 393.8331
113 124 LeftSmaller RTTaskAExp2 Prime_6A Target_1A cgiHejh hbMjICL Incongruent left correct Normal 430.8874
113 125 LeftSmaller RTTaskAExp2 Prime_4N Target_9N eBMLCcH digkKfF Incongruent right correct Normal 438.1655
113 126 LeftSmaller RTTaskAExp2 Prime_6N Target_9N ahgCIDj HACfghJ Congruent right correct Normal 367.3136
113 127 LeftSmaller RTTaskAExp2 Prime_4A Target_4A lDEikhb FgdCKcM Congruent left correct Normal 361.4864
113 128 LeftSmaller RTTaskAExp2 Prime_1N Target_9N FLHDCgM KCeDAlf Incongruent right correct Normal 524.538
113 129 LeftSmaller RTTaskAExp2 Prime_6N Target_6A DaEBLeK GcLkbKJ Congruent right correct Normal 465.7039
113 130 LeftSmaller RTTaskAExp2 Prime_1A Target_1A LiEjgdl jMAieGf Congruent left correct Normal 424.2732
113 131 LeftSmaller RTTaskAExp2 Prime_9A Target_9N HDLKlbG BkeEAHj Congruent right correct Normal 450.4108
113 132 LeftSmaller RTTaskAExp2 Prime_4N Target_4A FIMGjid HAlmFCK Congruent left correct Normal 454.9424
113 133 LeftSmaller RTTaskAExp2 Prime_1A Target_6A CmAhFeB BKDFCAa Incongruent right correct Normal 408.9527
113 134 LeftSmaller RTTaskAExp2 Prime_9A Target_4A GbFBEgh heckBjE Incongruent left correct Normal 388.4031
113 135 LeftSmaller RTTaskAExp2 Prime_4A Target_6A CcLfdlH kJKbFGj Incongruent right correct Normal 409.1739
113 136 LeftSmaller RTTaskAExp2 Prime_9N Target_1N iejaGEC GabLfMl Incongruent left correct Normal 435.3095
113 137 LeftSmaller RTTaskAExp2 Prime_1N Target_6A KmGbJFd ChaBGEc Incongruent right correct Normal 405.137
113 138 LeftSmaller RTTaskAExp2 Prime_1N Target_9A GcdkfLj bcihCAJ Incongruent right correct Normal 406.423
113 139 LeftSmaller RTTaskAExp2 Prime_9A Target_6N LhHCfJi ecKBIkH Congruent right correct Normal 469.9624
113 140 LeftSmaller RTTaskAExp2 Prime_1A Target_4A diBaCAk haBmcMC Congruent left correct Normal 390.1052
113 141 LeftSmaller RTTaskAExp2 Prime_6A Target_4A CmHdEal MhjGDbA Incongruent left correct Normal 354.7926
113 142 LeftSmaller RTTaskAExp2 Prime_4A Target_6N eaAlKbH kKEeLhc Incongruent right correct Normal 481.2829
113 143 LeftSmaller RTTaskAExp2 Prime_1N Target_1N GFgiedm DABCLlf Congruent left correct Normal 475.2416
113 144 LeftSmaller RTTaskAExp2 Prime_1N Target_1A IFcKhCa LdDIJbC Congruent left correct Normal 470.0385
113 145 LeftSmaller RTTaskAExp2 Prime_6N Target_1A fGemgHa kiKJhMj Incongruent left correct Normal 355.4325
113 146 LeftSmaller RTTaskAExp2 Prime_9N Target_6N kDHKhJL hmkbFGL Congruent right correct Normal 408.4874
113 147 LeftSmaller RTTaskAExp2 Prime_1N Target_4N hgKBCDe JfbCIai Congruent left correct Normal 452.1133
113 148 LeftSmaller RTTaskAExp2 Prime_9N Target_1A ljimbHE hlkKaiA Incongruent left correct Normal 390.1912
113 149 LeftSmaller RTTaskAExp2 Prime_6A Target_6N BEAmbfc gLcGmfM Congruent right correct Normal 483.4307
113 150 LeftSmaller RTTaskAExp2 Prime_1N Target_4A kGcCaBA bElBCKe Congruent left correct Normal 467.5936
113 151 LeftLarger RTTaskBPrac Prime_6N Target_4N mkMibel ikKdGCH Incongruent right correct Normal 530.7872
113 152 LeftLarger RTTaskBPrac Prime_1A Target_4A JlejgaE iLmlkJD Congruent right correct Normal 470.0154
113 153 LeftLarger RTTaskBPrac Prime_6A Target_4N JilLbjm FajdBmA Incongruent right correct Normal 471.1859
113 154 LeftLarger RTTaskBPrac Prime_1A Target_1A iEIkGjF abfmKlM Congruent right correct Normal 408.3383
113 155 LeftLarger RTTaskBPrac Prime_9N Target_6N FKmEceC hiaAJef Congruent left correct Normal 574.5141
113 156 LeftLarger RTTaskBPrac Prime_6A Target_1A mebMIki cHEaIFm Incongruent right correct Normal 455.6759
113 157 LeftLarger RTTaskBPrac Prime_1N Target_1A HLaADFG khilbdE Congruent right correct Normal 419.1593
113 158 LeftLarger RTTaskBPrac Prime_6N Target_6N mHbflDg KMlacGk Congruent left correct Normal 478.6239
113 159 LeftLarger RTTaskBPrac Prime_9A Target_6N KHICadF BIfFjba Congruent left correct Normal 601.1679
113 160 LeftLarger RTTaskBPrac Prime_9A Target_4N hBiAGdj mebAJEk Incongruent right correct Normal 567.2256
113 161 LeftLarger RTTaskBPrac Prime_1A Target_4N BbDhmFf faleFHE Congruent right correct Normal 409.8403
113 162 LeftLarger RTTaskBPrac Prime_4A Target_1N kMbHFGE lBAgmeG Congruent right correct Normal 456.1482
113 163 LeftLarger RTTaskBPrac Prime_4N Target_4A fAkcaIb bhEJBam Congruent right correct Normal 492.9542
113 164 LeftLarger RTTaskBPrac Prime_9A Target_9N BahHfDm JmilkGM Congruent left correct Normal 528.144
113 165 LeftLarger RTTaskBPrac Prime_1N Target_1N jaDkAeH kbmJMlj Congruent right correct Normal 465.6408
113 166 LeftLarger RTTaskBPrac Prime_6A Target_4A DJahEcB FDkjgKc Incongruent right correct Normal 413.6182
113 167 LeftLarger RTTaskBExp1 Prime_1N Target_9A AfjbImE djDhbaM Incongruent left correct Normal 423.3232
113 168 LeftLarger RTTaskBExp1 Prime_9N Target_9A leIMbAE IkEhbDj Congruent left correct Normal 383.2701
113 169 LeftLarger RTTaskBExp1 Prime_9N Target_6N leIaAfL KblDhMG Congruent left correct Normal 535.1748
113 170 LeftLarger RTTaskBExp1 Prime_4A Target_4A LMBFmaI lJDdFHf Congruent right correct Normal 388.5838
113 171 LeftLarger RTTaskBExp1 Prime_4A Target_9A aLgMdiK MgjLKbh Incongruent left correct Normal 417.6566
113 172 LeftLarger RTTaskBExp1 Prime_9N Target_1A KLDMlAF JHaEDIG Incongruent right correct Normal 467.5532
113 173 LeftLarger RTTaskBExp1 Prime_1N Target_4N kmDhBcK iDhEcJg Congruent right correct Normal 423.4163
113 174 LeftLarger RTTaskBExp1 Prime_4N Target_1A FKeBlmh KfIdMHi Congruent right correct Normal 372.3803
113 175 LeftLarger RTTaskBExp1 Prime_9N Target_1N BKlIkAh hlMHmFG Incongruent right correct Normal 441.5016
113 176 LeftLarger RTTaskBExp1 Prime_1N Target_4A GabmDAk dAGHDgh Congruent right correct Normal 406.9151
113 177 LeftLarger RTTaskBExp1 Prime_6A Target_4N jEkcLde CcjhJEA Incongruent right correct Normal 489.9271
113 178 LeftLarger RTTaskBExp1 Prime_9A Target_4A lbBHhkI ecAJdDl Incongruent right correct Normal 384.2299
113 179 LeftLarger RTTaskBExp1 Prime_9A Target_9N gFEilfj adAlcbF Congruent left correct Normal 541.7022
113 180 LeftLarger RTTaskBExp1 Prime_4N Target_6A FMKBcmd iMBDdEf Incongruent left correct Normal 387.3233
113 181 LeftLarger RTTaskBExp1 Prime_4N Target_1N iChfaEe hEGFAHc Congruent right correct Normal 432.0258
113 182 LeftLarger RTTaskBExp1 Prime_6A Target_6N eclbHhi lKkfgGm Congruent left correct Normal 477.6472
113 183 LeftLarger RTTaskBExp1 Prime_6A Target_4A eFmhaJG GfEelIK Incongruent right correct Normal 406.7585
113 184 LeftLarger RTTaskBExp1 Prime_4A Target_9N bJECGcB LACGaBb Incongruent left correct Normal 491.9809
113 185 LeftLarger RTTaskBExp1 Prime_6A Target_1N EBKGdjJ LaKEjBd Incongruent right correct Normal 414.5612
113 186 LeftLarger RTTaskBExp1 Prime_1A Target_4N IBCdieh icfGlCa Congruent right correct Normal 477.9641
113 187 LeftLarger RTTaskBExp1 Prime_4A Target_6N bJAGcik Cefgabk Incongruent left correct Normal 425.491
113 188 LeftLarger RTTaskBExp1 Prime_9N Target_4A ADdHfFG HGgIMeB Incongruent right correct Normal 436.8139
113 189 LeftLarger RTTaskBExp1 Prime_9N Target_4N ifmbeMC BdFLjHb Incongruent right correct Normal 404.814
113 190 LeftLarger RTTaskBExp1 Prime_9A Target_6N gHmfhKe mjdMKiG Congruent left correct Normal 434.5078
113 191 LeftLarger RTTaskBExp1 Prime_1N Target_9N afilKId MfkCdmG Incongruent left correct Normal 465.9188
113 192 LeftLarger RTTaskBExp1 Prime_4A Target_1N jfILFiJ FbJCakf Congruent right correct Normal 394.6832
113 193 LeftLarger RTTaskBExp1 Prime_9A Target_4N mcJefMk MLfbcBD Incongruent right correct Normal 448.9879
113 194 LeftLarger RTTaskBExp1 Prime_4N Target_6N mHJMaLE BIaeMml Incongruent left correct Normal 439.9299
113 195 LeftLarger RTTaskBExp1 Prime_9N Target_6A CLdbGfa gmGHaBe Congruent left correct Normal 414.0672
113 196 LeftLarger RTTaskBExp1 Prime_4A Target_6A BFebmIC IfcLlFm Incongruent left correct Normal 454.7467
113 197 LeftLarger RTTaskBExp1 Prime_1N Target_6N FijKcLC BMhHdbF Incongruent left correct Normal 414.6538
113 198 LeftLarger RTTaskBExp1 Prime_6N Target_9A hGiIBEd jkFfdGI Congruent left correct Normal 419.6704
113 199 LeftLarger RTTaskBExp1 Prime_6N Target_4A elbcKCM MkIDdGl Incongruent right correct Normal 423.1269
113 200 LeftLarger RTTaskBExp1 Prime_6N Target_9N JjBAhHI bHfkGLI Congruent left correct Normal 429.3906
113 201 LeftLarger RTTaskBExp1 Prime_9A Target_9A GkKfLji bAFfBaD Congruent left correct Normal 413.3103
113 202 LeftLarger RTTaskBExp1 Prime_4N Target_9N lbadkgH HaihFeA Incongruent left correct Normal 582.3583
113 203 LeftLarger RTTaskBExp1 Prime_1A Target_6N iAdKeFH fabjKCi Incongruent left correct Normal 535.0538
113 204 LeftLarger RTTaskBExp1 Prime_6N Target_1N kbFfMKL MHJLClm Incongruent right correct Normal 396.7
113 205 LeftLarger RTTaskBExp1 Prime_6N Target_1A jBKaGHb fJEgCKc Incongruent right correct Normal 441.4541
113 206 LeftLarger RTTaskBExp1 Prime_4N Target_4N LcDfFGe LBIajJE Congruent right correct Normal 351.0267
113 207 LeftLarger RTTaskBExp1 Prime_6A Target_1A JACkhMc hDFaGHf Incongruent right correct Normal 450.0438
113 208 LeftLarger RTTaskBExp1 Prime_9A Target_1A JFkEHhc DClaBkf Incongruent right correct Normal 407.084
113 209 LeftLarger RTTaskBExp1 Prime_4A Target_4N lkcfGdi FiHaAel Congruent right correct Normal 427.2175
113 210 LeftLarger RTTaskBExp1 Prime_1A Target_9A LBFkKdJ HaceAdi Incongruent left correct Normal 386.6601
113 211 LeftLarger RTTaskBExp1 Prime_6N Target_6N ijmegKD mlAaIik Congruent left correct Normal 532.5668
113 212 LeftLarger RTTaskBExp1 Prime_6N Target_4N cJbEkAa ELbfBcF Incongruent right correct Normal 386.2475
113 213 LeftLarger RTTaskBExp1 Prime_1A Target_6A EDhLMil lfHKEec Incongruent left correct Normal 561.1695
113 214 LeftLarger RTTaskBExp1 Prime_6A Target_9A aeBhmDK gEHjKAc Congruent left correct Normal 409.0584
113 215 LeftLarger RTTaskBExp1 Prime_1N Target_1N CfeDLGk HLIKbmd Congruent right correct Normal 399.721
113 216 LeftLarger RTTaskBExp1 Prime_1A Target_1A DcAmfgM kjihfdC Congruent right correct Normal 452.0406
113 217 LeftLarger RTTaskBExp1 Prime_6N Target_6A LjFIACa DHCedbj Congruent left correct Normal 441.3074
113 218 LeftLarger RTTaskBExp1 Prime_9A Target_6A ILhJiaH gmICcif Congruent left correct Normal 388.7192
113 219 LeftLarger RTTaskBExp1 Prime_4N Target_9A cbCBmDa FAhHlgL Incongruent left correct Normal 396.2795
113 220 LeftLarger RTTaskBExp1 Prime_4A Target_1A CDgbHLf jHkBDIc Congruent right correct Normal 392.9009
113 221 LeftLarger RTTaskBExp1 Prime_6A Target_9N jFfeakm CjJfHLa Congruent left correct Normal 473.2097
113 222 LeftLarger RTTaskBExp1 Prime_1N Target_1A BFkClaf JDCfjdc Congruent right correct Normal 371.6345
113 223 LeftLarger RTTaskBExp1 Prime_1A Target_1N iLjleCE HAdjDJb Congruent right correct Normal 432.55
113 224 LeftLarger RTTaskBExp1 Prime_9N Target_9N GAMFIJK jLMCEFd Congruent left correct Normal 547.492
113 225 LeftLarger RTTaskBExp1 Prime_1N Target_6A MkeaiEI fAiBCIc Incongruent right error Normal 506.4987
113 226 LeftLarger RTTaskBExp1 Prime_4N Target_4A aAJEBjI imlMJeB Congruent right correct Normal 431.6811
113 227 LeftLarger RTTaskBExp1 Prime_6A Target_6A kegabKi lJgcKDH Congruent left correct Normal 456.3404
113 228 LeftLarger RTTaskBExp1 Prime_9A Target_1N dkKeJCB GCMiIha Incongruent right correct Normal 451.7639
113 229 LeftLarger RTTaskBExp1 Prime_1A Target_4A MDmkIhH hdJelbk Congruent right correct Normal 440.1758
113 230 LeftLarger RTTaskBExp1 Prime_1A Target_9N BMgKefi eldAhbc Incongruent left correct Normal 479.6659
113 231 LeftLarger RTTaskBExp1 Prime_1N Target_6A GAfIiDh CjFagei Incongruent left correct Normal 528.0095
113 232 LeftLarger RTTaskBExp2 Prime_9A Target_4A ameEjbh KlkCAMF Incongruent right correct Normal 521.3367
113 233 LeftLarger RTTaskBExp2 Prime_1A Target_1A dkBeLCm BgciLEh Congruent right correct Normal 385.8959
113 234 LeftLarger RTTaskBExp2 Prime_1N Target_4A lDkfbMd dCIMBGl Congruent right correct Normal 383.9433
113 235 LeftLarger RTTaskBExp2 Prime_9N Target_1A lBIigmD MGDkCbm Incongruent right correct Normal 331.9687
113 236 LeftLarger RTTaskBExp2 Prime_4A Target_9A gEmBAfI IJceKLA Incongruent left correct Normal 422.2676
113 237 LeftLarger RTTaskBExp2 Prime_6N Target_1A LGhdDIH HkKGFfC Incongruent right correct Normal 402.553
113 238 LeftLarger RTTaskBExp2 Prime_4N Target_4N acghFLH Klmdfjb Congruent right correct Normal 528.9903
113 239 LeftLarger RTTaskBExp2 Prime_4A Target_4N BjAIkCK KEHFMIb Congruent right correct Normal 450.9803
113 240 LeftLarger RTTaskBExp2 Prime_6A Target_6A GLcElDM BAHkIcj Congruent left correct Normal 560.7919
113 241 LeftLarger RTTaskBExp2 Prime_6A Target_1A GlkIJEc gGadclF Incongruent right correct Normal 425.812
113 242 LeftLarger RTTaskBExp2 Prime_1A Target_9N AkaIbBd EKblLAd Incongruent left correct Normal 526.6093
113 243 LeftLarger RTTaskBExp2 Prime_9A Target_9A DdkhEaf bHdjCmF Congruent left correct Normal 423.7362
113 244 LeftLarger RTTaskBExp2 Prime_6A Target_9A hFfaClb behCEck Congruent left correct Normal 364.4591
113 245 LeftLarger RTTaskBExp2 Prime_1A Target_4N DLJdEef gmIDfFl Congruent right correct Normal 409.8597
113 246 LeftLarger RTTaskBExp2 Prime_4A Target_6A GLFEKbg HchdBIg Incongruent left correct Normal 428.9201
113 247 LeftLarger RTTaskBExp2 Prime_1N Target_1A aklmciA jmJAIkD Congruent right correct Normal 399.1979
113 248 LeftLarger RTTaskBExp2 Prime_9N Target_4A FkDgAdj kgDjJAK Incongruent right correct Normal 431.3611
113 249 LeftLarger RTTaskBExp2 Prime_9A Target_9N BCbDEhA jBebfcL Congruent left correct Normal 503.2522
113 250 LeftLarger RTTaskBExp2 Prime_6A Target_4N JgadKFM KaIkhFf Incongruent right correct Normal 476.9269
113 251 LeftLarger RTTaskBExp2 Prime_1A Target_6A aBhHefj FkjimDB Incongruent left correct Normal 459.409
113 252 LeftLarger RTTaskBExp2 Prime_9A Target_1A FKGbJCH KEeCLJI Incongruent right correct Normal 398.3865
113 253 LeftLarger RTTaskBExp2 Prime_4A Target_1A ifeCIEL KhjlAeG Congruent right correct Normal 425.4266
113 254 LeftLarger RTTaskBExp2 Prime_1A Target_6N MdgmJDl AklMCBa Incongruent left correct Normal 882.0731
113 255 LeftLarger RTTaskBExp2 Prime_1A Target_1N Bgaehik fJIGgCa Congruent right correct Normal 456.6328
113 256 LeftLarger RTTaskBExp2 Prime_1N Target_9N FCEbejK DAmelBj Incongruent left correct Normal 498.554
113 257 LeftLarger RTTaskBExp2 Prime_9A Target_6A GEkhKcf LgFJaKE Congruent left correct Normal 614.9629
113 258 LeftLarger RTTaskBExp2 Prime_4N Target_6A FmHlEbc efkcBjM Incongruent left correct Normal 457.1317
113 259 LeftLarger RTTaskBExp2 Prime_4N Target_1N dEgfhBb FKecjlG Congruent right correct Normal 506.287
113 260 LeftLarger RTTaskBExp2 Prime_9N Target_6N LgeDhIj ikDbmCH Congruent left correct Normal 567.9523
113 261 LeftLarger RTTaskBExp2 Prime_6N Target_4A JCFgcEA BKDJghl Incongruent right correct Normal 452.505
113 262 LeftLarger RTTaskBExp2 Prime_1N Target_9A leJCDMf IKdBFCi Incongruent left correct Normal 473.0463
113 263 LeftLarger RTTaskBExp2 Prime_4A Target_9N FkHcKLf gCAcDEl Incongruent left correct Normal 432.973
113 264 LeftLarger RTTaskBExp2 Prime_9A Target_1N agJmEbe mckHlKf Incongruent right correct Normal 486.128
113 265 LeftLarger RTTaskBExp2 Prime_6A Target_9N aDIKilk BAhfdMJ Congruent left correct Normal 526.4061
113 266 LeftLarger RTTaskBExp2 Prime_1N Target_6A jkCiBfd fKEaIkd Incongruent left correct Normal 428.9528
113 267 LeftLarger RTTaskBExp2 Prime_4A Target_6N HBbGjil adbhfGe Incongruent left correct Normal 466.9022
113 268 LeftLarger RTTaskBExp2 Prime_9N Target_4N BDlfCJA ifBKICh Incongruent right correct Normal 457.5468
113 269 LeftLarger RTTaskBExp2 Prime_9N Target_9A DdAMiKf DFAhiKM Congruent left correct Normal 444.4392
113 270 LeftLarger RTTaskBExp2 Prime_9A Target_6N meAlMbD cFKibBm Congruent left correct Normal 613.5837
113 271 LeftLarger RTTaskBExp2 Prime_6N Target_6A DkdcFIj bCdmjaA Congruent left correct Normal 417.9043
113 272 LeftLarger RTTaskBExp2 Prime_9A Target_4N IjMKgAH JciheGk Incongruent right correct Normal 491.561
113 273 LeftLarger RTTaskBExp2 Prime_4N Target_4A Kmhkcle IbghEAB Congruent right correct Normal 414.9068
113 274 LeftLarger RTTaskBExp2 Prime_1N Target_6N gcMFBka KFGLBbf Incongruent left correct Normal 487.9132
113 275 LeftLarger RTTaskBExp2 Prime_9N Target_9N ceJBlaH fiAjBEg Congruent left correct Normal 512.442
113 276 LeftLarger RTTaskBExp2 Prime_4N Target_6N LjHKIhm aDbdcAk Incongruent left correct Normal 491.4565
113 277 LeftLarger RTTaskBExp2 Prime_1N Target_4N AkechEi hMHLkEF Congruent right correct Normal 481.3862
113 278 LeftLarger RTTaskBExp2 Prime_6N Target_4N HCGIkaj gfHmICF Incongruent right correct Normal 447.4291
113 279 LeftLarger RTTaskBExp2 Prime_4N Target_9N CKmcEDF IJFihLE Incongruent left correct Normal 522.1909
113 280 LeftLarger RTTaskBExp2 Prime_6A Target_4A MfgijBH kdeFEKI Incongruent right correct Normal 450.6259
113 281 LeftLarger RTTaskBExp2 Prime_1N Target_1N aJLjkgA kCjIhGd Congruent right correct Normal 527.8025
113 282 LeftLarger RTTaskBExp2 Prime_4A Target_1N ejDJgaC gKGElCe Congruent right correct Normal 430.5664
113 283 LeftLarger RTTaskBExp2 Prime_4N Target_9A lCdBFig DbfegCm Incongruent left correct Normal 422.8902
113 284 LeftLarger RTTaskBExp2 Prime_6N Target_1N ImCJgcM CjkIFAf Incongruent right correct Normal 490.3106
113 285 LeftLarger RTTaskBExp2 Prime_6A Target_1N BGlcHhJ gIKaBMk Incongruent right correct Normal 445.4737
113 286 LeftLarger RTTaskBExp2 Prime_4N Target_1A HJKDMga gcGiEfK Congruent right correct Normal 473.6175
113 287 LeftLarger RTTaskBExp2 Prime_6A Target_6N GMBhIEc JhdjIAK Congruent left correct Normal 537.54
113 288 LeftLarger RTTaskBExp2 Prime_1A Target_9A HhlMGIa bdcEfCD Incongruent left correct Normal 447.5655
113 289 LeftLarger RTTaskBExp2 Prime_9N Target_6A MJKLDcB ieagHEl Congruent right error Normal 385.3927
113 290 LeftLarger RTTaskBExp2 Prime_6N Target_9N iEFhBAI kFdDJBA Congruent left correct Normal 516.348
113 291 LeftLarger RTTaskBExp2 Prime_9N Target_1N DhEleIG MebIiLJ Incongruent right correct Normal 448.0638
113 292 LeftLarger RTTaskBExp2 Prime_9N Target_6A laemBiG KhIeLkc Congruent left correct Normal 575.1035
113 293 LeftLarger RTTaskBExp2 Prime_6N Target_9A EdIicKh DGLfBdl Congruent left correct Normal 443.0433
113 294 LeftLarger RTTaskBExp2 Prime_4A Target_4A GagDHBd chEfDij Congruent right correct Normal 477.4528
113 295 LeftLarger RTTaskBExp2 Prime_6N Target_6N KAIDGLB fAKGCjb Congruent left correct Normal 447.9977
113 296 LeftLarger RTTaskBExp2 Prime_1A Target_4A bhDKdBC iGHEjaF Congruent right correct Normal 480.8571
114 1 LeftLarger RTTaskAPrac Prime_9A Target_9A HFCfBgc KFgklei Congruent left correct Late 7900.017
114 2 LeftLarger RTTaskAPrac Prime_1A Target_6A bIhgiDm bglAJIk Incongruent right error Normal 813.9048
114 3 LeftLarger RTTaskAPrac Prime_6A Target_4A BfghKDM FfCmGEj Incongruent right correct Late 1191.456
114 4 LeftLarger RTTaskAPrac Prime_1A Target_6A KehgDkj gCJlLmG Incongruent left correct Late 1081.807
114 5 LeftLarger RTTaskAPrac Prime_1N Target_1A DKiLeMG GmJMhdK Congruent right correct Normal 750.2406
114 6 LeftLarger RTTaskAPrac Prime_9N Target_9N hbdCmic mhFHLje Congruent left correct Normal 898.4174
114 7 LeftLarger RTTaskAPrac Prime_4A Target_9N EglmHKD hgJkKec Incongruent left correct Normal 600.9806
114 8 LeftLarger RTTaskAPrac Prime_6A Target_9A aGckLjD LIJFKAi Congruent left correct Normal 539.2437
114 9 LeftLarger RTTaskAPrac Prime_1A Target_6A aiAgjkK gAejCGb Incongruent left correct Normal 548.18
114 10 LeftLarger RTTaskAPrac Prime_6A Target_1N bfJMGlD CcMAdGj Incongruent right correct Normal 536.4691
114 11 LeftLarger RTTaskAPrac Prime_9A Target_6N lbhBeHG icGhfDj Congruent left correct Normal 692.5166
114 12 LeftLarger RTTaskAPrac Prime_9N Target_9A gICDhAM hJafFAd Congruent left correct Normal 537.802
114 13 LeftLarger RTTaskAPrac Prime_4A Target_6N IcEegBi ELhgdDM Incongruent left correct Normal 826.8452
114 14 LeftLarger RTTaskAPrac Prime_9A Target_9A JGMdigE kiFJLDf Congruent left correct Normal 692.448
114 15 LeftLarger RTTaskAPrac Prime_9N Target_4A LJkibHc BAKjiLb Incongruent right correct Normal 627.2859
114 16 LeftLarger RTTaskAPrac Prime_6A Target_9N fHCmgKd dAFlkch Congruent left correct Normal 536.1076
114 17 LeftLarger RTTaskAPrac Prime_6A Target_4A gBDAFMf iKmlhkg Incongruent right correct Normal 486.2337
114 18 LeftLarger RTTaskAPrac Prime_4N Target_6N ieAlmdb alMdkcH Incongruent left correct Normal 640.0425
114 19 LeftLarger RTTaskAPrac Prime_1N Target_4N aKkBejJ AkeMjai Congruent right correct Normal 641.2987
114 20 LeftLarger RTTaskAPrac Prime_6N Target_6N kgehLmM ahFLEHA Congruent left correct Normal 509.4634
114 21 LeftLarger RTTaskAExp1 Prime_9N Target_9A MFBiCLb mgcIbfh Congruent left correct Normal 421.8032
114 22 LeftLarger RTTaskAExp1 Prime_9A Target_1N CdEKgBL LHCAbEJ Incongruent right correct Normal 450.7513
114 23 LeftLarger RTTaskAExp1 Prime_6N Target_4N fMLGaje dKmhkDg Incongruent right correct Normal 513.0959
114 24 LeftLarger RTTaskAExp1 Prime_4A Target_6A mGEjcHf jgaIKLB Incongruent right error Normal 417.0607
114 25 LeftLarger RTTaskAExp1 Prime_1N Target_4N aEdlmIF abGeBcA Congruent right correct Normal 483.1108
114 26 LeftLarger RTTaskAExp1 Prime_1N Target_1N ICLcfbm kgGEmdA Congruent right correct Normal 470.8507
114 27 LeftLarger RTTaskAExp1 Prime_4N Target_4N dLlBKMH HECmbiD Congruent right correct Normal 531.2444
114 28 LeftLarger RTTaskAExp1 Prime_4A Target_6A HjhIJDA gKFDHkf Incongruent left correct Normal 465.248
114 29 LeftLarger RTTaskAExp1 Prime_9A Target_9A bMfhCAG cBfeGIk Congruent left correct Normal 502.1543
114 30 LeftLarger RTTaskAExp1 Prime_1A Target_6N IDHgCMK eEcMifB Incongruent left correct Normal 655.5139
114 31 LeftLarger RTTaskAExp1 Prime_9N Target_1N BMEHhck MBJmKgi Incongruent right correct Normal 428.9847
114 32 LeftLarger RTTaskAExp1 Prime_9N Target_4A BelJifG ADeIgbc Incongruent right correct Normal 667.1857
114 33 LeftLarger RTTaskAExp1 Prime_1N Target_1A BKdHCmF flcJekH Congruent right correct Normal 468.1934
114 34 LeftLarger RTTaskAExp1 Prime_1A Target_6A kDjgIEf mjacigB Incongruent left correct Normal 559.3552
114 35 LeftLarger RTTaskAExp1 Prime_4A Target_9A CBHfDmL hABFkiK Incongruent left correct Normal 514.497
114 36 LeftLarger RTTaskAExp1 Prime_6A Target_1A HjMAcLf deDglKH Incongruent right correct Normal 450.2045
114 37 LeftLarger RTTaskAExp1 Prime_6N Target_4A gGhCiAb EKdHmDB Incongruent right correct Normal 445.8459
114 38 LeftLarger RTTaskAExp1 Prime_4A Target_4A MelbkIF EbGhBjm Congruent right correct Normal 412.1481
114 39 LeftLarger RTTaskAExp1 Prime_6A Target_9A lgGFhIE cJIbCfK Congruent left correct Normal 502.008
114 40 LeftLarger RTTaskAExp1 Prime_9A Target_9N leCbLaF bFBlmCe Congruent left correct Normal 543.1142
114 41 LeftLarger RTTaskAExp1 Prime_9N Target_9N hDBejgi MFbaDCf Congruent left correct Normal 540.8709
114 42 LeftLarger RTTaskAExp1 Prime_9A Target_1A IFmgbCJ fhCFBHL Incongruent right correct Normal 447.1787
114 43 LeftLarger RTTaskAExp1 Prime_4N Target_6A BlfbeMG jFkGMmC Incongruent left correct Normal 716.6831
114 44 LeftLarger RTTaskAExp1 Prime_4A Target_6N fJCFegD cCkegij Incongruent left correct Normal 626.8727
114 45 LeftLarger RTTaskAExp1 Prime_1A Target_9A hFGjdCl bIeJCLH Incongruent left correct Normal 508.5457
114 46 LeftLarger RTTaskAExp1 Prime_4A Target_1A akLgljA mEfHibM Congruent right correct Normal 434.4793
114 47 LeftLarger RTTaskAExp1 Prime_9A Target_4N CIGKJFd MhEBJiD Incongruent right correct Normal 605.9949
114 48 LeftLarger RTTaskAExp1 Prime_6N Target_6A cKMLJdm EbckDlA Congruent left correct Normal 506.9204
114 49 LeftLarger RTTaskAExp1 Prime_9N Target_6A akfAgFE dAglIKe Congruent left correct Normal 536.8214
114 50 LeftLarger RTTaskAExp1 Prime_4N Target_1A jdIiGke HjbFClM Congruent right correct Normal 489.3783
114 51 LeftLarger RTTaskAExp1 Prime_9A Target_6A MFKcmjA kIDldaE Congruent left correct Normal 524.5388
114 52 LeftLarger RTTaskAExp1 Prime_6A Target_1N iflLKFE gBKldfi Incongruent right correct Normal 647.4627
114 53 LeftLarger RTTaskAExp1 Prime_1A Target_4A dAhikFj aFJgEGb Congruent right correct Normal 547.8725
114 54 LeftLarger RTTaskAExp1 Prime_1N Target_9A eGHmifB EbBmjdF Incongruent left correct Normal 550.8012
114 55 LeftLarger RTTaskAExp1 Prime_4A Target_4N BMGgeEK fJKMBka Congruent right correct Normal 523.1085
114 56 LeftLarger RTTaskAExp1 Prime_4A Target_9N aFGlkLd MjbiLKC Incongruent left correct Normal 479.6882
114 57 LeftLarger RTTaskAExp1 Prime_4N Target_6N DkcmCGb bDLGaef Incongruent left correct Normal 596.2322
