sub trial_no group_type block_type prime target mask1 mask2 congruency key_press key_error time_error RT
302 1 LeftLarger RTTaskAPrac Prime_9A Target_1A ADLjFCJ bBkJdaf Incongruent right correct Late 7848.096
302 2 LeftLarger RTTaskAPrac Prime_1A Target_4N kFAHdEh ImaFcLM Congruent right correct Late 1725.897
302 3 LeftLarger RTTaskAPrac Prime_1N Target_1A BLklKai caHMbGJ Congruent left error Normal 584.6776
302 4 LeftLarger RTTaskAPrac Prime_6A Target_1A DBaGIfi JgHbaCe Incongruent right correct Late 1376.683
302 5 LeftLarger RTTaskAPrac Prime_9N Target_4A KMeaiBE LbhEjke Incongruent left error Normal 717.3251
302 6 LeftLarger RTTaskAPrac Prime_9A Target_6A AkLFDmJ emhGEfL Congruent left correct Normal 445.1565
302 7 LeftLarger RTTaskAPrac Prime_9N Target_6A kFBhgKA JmdCAje Congruent left correct Normal 521.185
302 8 LeftLarger RTTaskAPrac Prime_1A Target_4N iMhmCKb bKCGcBm Congruent right correct Normal 585.5896
302 9 LeftLarger RTTaskAPrac Prime_6A Target_1A EAKlJaG kfeLKcC Incongruent right correct Normal 825.2461
302 10 LeftLarger RTTaskAPrac Prime_4A Target_4A CbdmaID ekGbKhD Congruent right correct Normal 563.4816
302 11 LeftLarger RTTaskAPrac Prime_9A Target_9N CKbdLJM JMAdCbm Congruent left correct Normal 600.588
302 12 LeftLarger RTTaskAPrac Prime_4N Target_9A dcmJIjk MhAmCHa Incongruent left correct Normal 612.5789
302 13 LeftLarger RTTaskAPrac Prime_6A Target_9A MkGCEjJ alJcbEA Congruent left correct Normal 517.6128
302 14 LeftLarger RTTaskAPrac Prime_1N Target_1A bMIJdAg HCBaKhi Congruent right correct Normal 484.7265
302 15 LeftLarger RTTaskAPrac Prime_4A Target_1N haBcEFe HaIJcGh Congruent right correct Normal 465.0283
302 16 LeftLarger RTTaskAPrac Prime_1A Target_6A HdjEDMc CLHajkJ Incongruent left correct Normal 863.5617
302 17 LeftLarger RTTaskAPrac Prime_4N Target_4A KmIAhcb keEFCMG Congruent right correct Normal 486.6219
302 18 LeftLarger RTTaskAPrac Prime_6N Target_1A MJDbahL kEHlbDB Incongruent right correct Normal 681.0209
302 19 LeftLarger RTTaskAPrac Prime_9A Target_1A lgDIkmE kEdfMGm Incongruent right correct Normal 486.9522
302 20 LeftLarger RTTaskAPrac Prime_4N Target_1N gjFDcLK mIlMDbH Congruent right correct Normal 483.759
302 21 LeftLarger RTTaskAPrac Prime_9N Target_4A fdFmbgB MfAlmCd Incongruent left error Normal 813.8884
302 22 LeftLarger RTTaskAPrac Prime_9N Target_4A mlKijcD IiGHFKM Incongruent right correct Normal 466.3334
302 23 LeftLarger RTTaskAExp1 Prime_9N Target_1N aeMKiLl FmCHgfk Incongruent right correct Normal 681.1291
302 24 LeftLarger RTTaskAExp1 Prime_6A Target_6N fJIlkFm LgHMfbF Congruent left correct Normal 691.6548
302 25 LeftLarger RTTaskAExp1 Prime_4A Target_6A CmibFkl eFEBmad Incongruent left correct Normal 494.7669
302 26 LeftLarger RTTaskAExp1 Prime_1N Target_4A ImfhBil biJMEcB Congruent left error Normal 597.6316
302 27 LeftLarger RTTaskAExp1 Prime_4N Target_1A GkmjdKe FbfGCDl Congruent right correct Normal 527.1886
302 28 LeftLarger RTTaskAExp1 Prime_6A Target_1A kBlIAmh hclIdHg Incongruent right correct Normal 442.112
302 29 LeftLarger RTTaskAExp1 Prime_6N Target_9N deMbiIB hmIJCkM Congruent left correct Normal 589.2873
302 30 LeftLarger RTTaskAExp1 Prime_6A Target_9A iFaHMfK clGidEF Congruent left correct Normal 507.0764
302 31 LeftLarger RTTaskAExp1 Prime_4N Target_9A GJbKALa bfehFAH Incongruent left correct Normal 583.4816
302 32 LeftLarger RTTaskAExp1 Prime_4A Target_4A FmebMEa iEDhgFf Congruent right correct Normal 453.6747
302 33 LeftLarger RTTaskAExp1 Prime_6N Target_9A dFMegKm dMCfJbj Congruent left correct Normal 571.5879
302 34 LeftLarger RTTaskAExp1 Prime_9A Target_1N heAMILF FmeDgkC Incongruent right correct Normal 586.8754
302 35 LeftLarger RTTaskAExp1 Prime_6N Target_6N gkGeCmA MhIkDld Congruent left correct Normal 729.9225
302 36 LeftLarger RTTaskAExp1 Prime_9A Target_9A lEDIGei jAJfdiM Congruent left correct Normal 635.2117
302 37 LeftLarger RTTaskAExp1 Prime_9N Target_1A mCADlbi DABCLed Incongruent right correct Normal 497.6429
302 38 LeftLarger RTTaskAExp1 Prime_4N Target_6A KfHCmea Hdfijae Incongruent left correct Normal 861.7884
302 39 LeftLarger RTTaskAExp1 Prime_4N Target_4A iCGElAd eEiDBJb Congruent right correct Normal 655.8397
302 40 LeftLarger RTTaskAExp1 Prime_9A Target_9N flaheHb lhaLgeb Congruent left correct Normal 533.5876
302 41 LeftLarger RTTaskAExp1 Prime_6N Target_6A HbgjAKk DCILfkm Congruent left correct Normal 587.4244
302 42 LeftLarger RTTaskAExp1 Prime_1N Target_4N mHBdJji dbMEmef Congruent right correct Normal 532.9813
302 43 LeftLarger RTTaskAExp1 Prime_1A Target_4N fKELjhg KCbBFgd Congruent right correct Normal 529.7853
302 44 LeftLarger RTTaskAExp1 Prime_1N Target_4A egcIACi fCmaFde Congruent right correct Normal 467.5506
302 45 LeftLarger RTTaskAExp1 Prime_9N Target_4A gAHLBCK jgBHlfA Incongruent right correct Normal 565.5955
302 46 LeftLarger RTTaskAExp1 Prime_9N Target_4N eGAcMDB BkFGMDc Incongruent right correct Normal 478.0263
302 47 LeftLarger RTTaskAExp1 Prime_1A Target_1N IgmAihd AmcIDaG Congruent right correct Normal 645.0711
302 48 LeftLarger RTTaskAExp1 Prime_9N Target_9A GMFflJD mGgHaAj Congruent left correct Normal 462.9326
302 49 LeftLarger RTTaskAExp1 Prime_1A Target_9N BILgjfl GKDklAE Incongruent left correct Normal 534.5269
302 50 LeftLarger RTTaskAExp1 Prime_1A Target_9A GIAcCMH JMAIhDf Incongruent left correct Normal 426.5651
302 51 LeftLarger RTTaskAExp1 Prime_9A Target_6A kJeChEM djDgbGI Congruent left correct Normal 630.6682
302 52 LeftLarger RTTaskAExp1 Prime_6A Target_1N lbDHdEC DMGcmka Incongruent right correct Normal 528.63
302 53 LeftLarger RTTaskAExp1 Prime_1N Target_6A bJcegBd FdBkbCJ Incongruent left correct Normal 601.182
302 54 LeftLarger RTTaskAExp1 Prime_1A Target_6N abMhAmB EdlGcej Incongruent left correct Normal 748.2049
302 55 LeftLarger RTTaskAExp1 Prime_9N Target_6N iCmGjMH CAlHcLm Congruent left correct Normal 521.111
302 56 LeftLarger RTTaskAExp1 Prime_4A Target_9A eHhCJfk fJAKMLk Incongruent left correct Normal 545.558
302 57 LeftLarger RTTaskAExp1 Prime_6N Target_1A lBmbefA ABjcbFe Incongruent right correct Normal 488.4756
302 58 LeftLarger RTTaskAExp1 Prime_9A Target_4N mGDBfAE EIDJBdH Incongruent right correct Normal 836.0288
302 59 LeftLarger RTTaskAExp1 Prime_4A Target_4N HDBhLAK jGHceME Congruent right correct Normal 527.4375
302 60 LeftLarger RTTaskAExp1 Prime_1N Target_9N gLEabcA KlJfGeh Incongruent left correct Normal 526.8699
302 61 LeftLarger RTTaskAExp1 Prime_1N Target_1N fmCkFAi mHcChbL Congruent right correct Normal 662.9115
302 62 LeftLarger RTTaskAExp1 Prime_4N Target_1N HMfmiDC eHcmkLa Congruent right correct Normal 448.4188
302 63 LeftLarger RTTaskAExp1 Prime_6A Target_6A EmkAFDh cLFamAC Congruent left correct Normal 584.2564
302 64 LeftLarger RTTaskAExp1 Prime_1N Target_9A hEdkaem AKjMiel Incongruent left correct Normal 570.1598
302 65 LeftLarger RTTaskAExp1 Prime_4A Target_9N BmCHieF LblDBaE Incongruent left correct Normal 533.4435
302 66 LeftLarger RTTaskAExp1 Prime_6N Target_1N LcDgkEB gcFkebd Incongruent right correct Normal 552.7568
302 67 LeftLarger RTTaskAExp1 Prime_1A Target_6A AJhECil hFajdle Incongruent left correct Normal 594.1358
302 68 LeftLarger RTTaskAExp1 Prime_1A Target_1A jliGfmC CElKjMG Congruent right correct Normal 548.0758
302 69 LeftLarger RTTaskAExp1 Prime_9A Target_6N DbiLcEG adebCAk Congruent left correct Normal 657.4807
302 70 LeftLarger RTTaskAExp1 Prime_9A Target_4A hEFMCig BkmLGag Incongruent right correct Normal 636.7885
302 71 LeftLarger RTTaskAExp1 Prime_4A Target_1A HdjGFlg gjKaEhF Congruent right correct Normal 536.5819
302 72 LeftLarger RTTaskAExp1 Prime_6A Target_9N hLkfmji ICEkGmA Congruent left correct Normal 601.0994
302 73 LeftLarger RTTaskAExp1 Prime_1N Target_6N bFLlIgA DdIlFLa Incongruent left correct Normal 637.0249
302 74 LeftLarger RTTaskAExp1 Prime_6A Target_4A cdLJklA jLcHFkh Incongruent right correct Normal 644.5674
302 75 LeftLarger RTTaskAExp1 Prime_4N Target_9N DciJjla hmgEfHb Incongruent left correct Normal 661.3777
302 76 LeftLarger RTTaskAExp1 Prime_4N Target_6N HGELfBe fgGJaem Incongruent left correct Normal 743.4075
302 77 LeftLarger RTTaskAExp1 Prime_9N Target_9N mBikFcK bMLECJa Congruent left correct Normal 557.1051
302 78 LeftLarger RTTaskAExp1 Prime_6N Target_4A FhbMAJc GiMBhDe Incongruent right correct Normal 563.6309
302 79 LeftLarger RTTaskAExp1 Prime_4A Target_1N cFlfHDj bDkjMle Congruent right correct Normal 495.799
302 80 LeftLarger RTTaskAExp1 Prime_1N Target_1A CmBFbdK BFJdHLb Congruent right correct Normal 491.4312
302 81 LeftLarger RTTaskAExp1 Prime_4N Target_4N DbBjIKi lHDbMmg Congruent left error Normal 594.8349
302 82 LeftLarger RTTaskAExp1 Prime_4A Target_6N hJaBFfD ACIihLm Incongruent left correct Normal 685.4543
302 83 LeftLarger RTTaskAExp1 Prime_9A Target_1A biadDlf ELdHKAD Incongruent right correct Normal 467.9979
302 84 LeftLarger RTTaskAExp1 Prime_6A Target_4N gAKfmJB EKifjca Incongruent right correct Normal 751.6589
302 85 LeftLarger RTTaskAExp1 Prime_6N Target_4N AJeaGLg dCeahMA Incongruent right correct Normal 501.9551
302 86 LeftLarger RTTaskAExp1 Prime_4N Target_4N CAldbeL IBmdLHE Congruent right correct Normal 757.6875
302 87 LeftLarger RTTaskAExp1 Prime_9N Target_6A mfKdIJb bLGfjhA Congruent left correct Normal 531.2783
302 88 LeftLarger RTTaskAExp1 Prime_1A Target_4A aifJeKB JFDcHKl Congruent right correct Normal 570.3227
302 89 LeftLarger RTTaskAExp2 Prime_1A Target_6N eAhaEIb KhfajAJ Incongruent left correct Normal 703.254
302 90 LeftLarger RTTaskAExp2 Prime_1A Target_4A egamFck iIklgdD Congruent right correct Normal 539.0253
302 91 LeftLarger RTTaskAExp2 Prime_9A Target_9N gGCElDj AfmlGJe Congruent left correct Normal 485.7711
302 92 LeftLarger RTTaskAExp2 Prime_6N Target_1A CDabAjc AfHkiGc Incongruent right correct Normal 510.7669
302 93 LeftLarger RTTaskAExp2 Prime_9N Target_1N AfClkJK lhJLjGa Incongruent right correct Normal 476.409
302 94 LeftLarger RTTaskAExp2 Prime_4N Target_4N lCKbAgD dHFAjEI Congruent right correct Normal 557.9606
302 95 LeftLarger RTTaskAExp2 Prime_1N Target_6A ecKIaHL KBDcaHk Incongruent left correct Normal 413.3751
302 96 LeftLarger RTTaskAExp2 Prime_1A Target_9A ACKELBm gliJFcf Incongruent left correct Normal 495.3111
302 97 LeftLarger RTTaskAExp2 Prime_9A Target_4A gIGAJhd FaClKkj Incongruent right correct Normal 466.8275
302 98 LeftLarger RTTaskAExp2 Prime_6N Target_1N BmCbMgc hAMljiC Incongruent right correct Normal 497.3149
302 99 LeftLarger RTTaskAExp2 Prime_6N Target_9N FBChEbG aiIEjJB Congruent left correct Normal 527.0304
302 100 LeftLarger RTTaskAExp2 Prime_4A Target_1N jCeLFDk jefbkBA Congruent right correct Normal 544.1958
302 101 LeftLarger RTTaskAExp2 Prime_1N Target_4N kLDdClh GDkLBgb Congruent left error Normal 555.2417
302 102 LeftLarger RTTaskAExp2 Prime_6A Target_1A AdCHkjl fDlcIgG Incongruent right correct Normal 514.5666
302 103 LeftLarger RTTaskAExp2 Prime_1N Target_1A EjcDLGB HhlKFEm Congruent right correct Normal 465.3542
302 104 LeftLarger RTTaskAExp2 Prime_1N Target_4A AKaECgm lMCBjJm Congruent right correct Normal 749.8752
302 105 LeftLarger RTTaskAExp2 Prime_1A Target_4N ebkcmlL chJABEi Congruent right correct Normal 571.1679
302 106 LeftLarger RTTaskAExp2 Prime_9A Target_4N bKDdkCB LGBFeMk Incongruent right correct Normal 487.6931
302 107 LeftLarger RTTaskAExp2 Prime_1N Target_6N LlgIikm gaFCiAJ Incongruent left correct Normal 689.3845
302 108 LeftLarger RTTaskAExp2 Prime_4N Target_1A FGHDhLj JiKFHga Congruent right correct Normal 504.5552
302 109 LeftLarger RTTaskAExp2 Prime_4A Target_9N mfIGekl AHLbdfm Incongruent left correct Normal 673.9901
302 110 LeftLarger RTTaskAExp2 Prime_1A Target_1A lLDbMhE lDBIaCj Congruent right correct Normal 440.0411
302 111 LeftLarger RTTaskAExp2 Prime_6A Target_6N BjDgamJ kHFdABg Congruent left correct Normal 880.5096
302 112 LeftLarger RTTaskAExp2 Prime_6N Target_6A cGlmfeB FMGjdBJ Congruent right error Late 16386.79
302 113 LeftLarger RTTaskAExp2 Prime_9A Target_1A GBHlkcJ cJagILb Incongruent right correct Late 1547.942
302 114 LeftLarger RTTaskAExp2 Prime_6N Target_6N fHIcljg JmHBlaC Congruent left correct Normal 697.4959
302 115 LeftLarger RTTaskAExp2 Prime_9N Target_6A LaGfJlh MdJHhGE Congruent left correct Normal 541.8986
302 116 LeftLarger RTTaskAExp2 Prime_1A Target_9N GeicmlL DagIEkA Incongruent left correct Normal 594.7439
302 117 LeftLarger RTTaskAExp2 Prime_6A Target_4N cBKCJEA hJCeDdF Incongruent right correct Normal 723.6651
302 118 LeftLarger RTTaskAExp2 Prime_1N Target_1N fjcaDHL AaJdmHF Congruent right correct Normal 562.9473
302 119 LeftLarger RTTaskAExp2 Prime_6A Target_9A IbjghkA mLIHKFl Congruent left correct Normal 502.5806
302 120 LeftLarger RTTaskAExp2 Prime_4A Target_6N mGhKiBb BHcDmEh Incongruent left correct Normal 588.7959
302 121 LeftLarger RTTaskAExp2 Prime_9N Target_4A mgeFBGj EHgJbBh Incongruent right correct Normal 504.3371
302 122 LeftLarger RTTaskAExp2 Prime_9N Target_6N fCEKFMH BadiMjb Congruent left correct Normal 572.388
302 123 LeftLarger RTTaskAExp2 Prime_9A Target_6N IalFKfA dAKhiJH Congruent left correct Normal 496.7928
302 124 LeftLarger RTTaskAExp2 Prime_9N Target_9A lfmdhAB FjJeHma Congruent left correct Normal 489.9676
302 125 LeftLarger RTTaskAExp2 Prime_4A Target_6A AIgEGJl cHBehIm Incongruent left correct Normal 428.8762
302 126 LeftLarger RTTaskAExp2 Prime_6N Target_6A dkLlhBc kjEALMl Congruent left correct Normal 444.8009
302 127 LeftLarger RTTaskAExp2 Prime_9N Target_1A bGKLHED JGEdFAi Incongruent right correct Normal 535.4725
302 128 LeftLarger RTTaskAExp2 Prime_1A Target_6A cKgiCED CaIKhGf Incongruent left correct Normal 439.3991
302 129 LeftLarger RTTaskAExp2 Prime_1N Target_4N mfhbkBi hfIaFCH Congruent right correct Normal 589.0559
302 130 LeftLarger RTTaskAExp2 Prime_4N Target_4A MDkKAFJ dDMLAcF Congruent right correct Normal 605.5583
302 131 LeftLarger RTTaskAExp2 Prime_4A Target_4N afAligC gCJimkc Congruent right correct Normal 671.7593
302 132 LeftLarger RTTaskAExp2 Prime_1N Target_9A DCKAJkf mBKHJdL Incongruent left correct Normal 496.7841
302 133 LeftLarger RTTaskAExp2 Prime_4N Target_1N CkKAabF gFMEHKf Congruent right correct Normal 472.2325
302 134 LeftLarger RTTaskAExp2 Prime_6N Target_4N imgKejH lIMacHE Incongruent right correct Normal 872.2338
302 135 LeftLarger RTTaskAExp2 Prime_6A Target_1N AeaCdBM BhJiGef Incongruent right correct Normal 529.9491
302 136 LeftLarger RTTaskAExp2 Prime_1N Target_9N jEmlFdG LeGMlcd Incongruent left correct Normal 505.9876
302 137 LeftLarger RTTaskAExp2 Prime_9A Target_1A KGalHkL ckAeKFi Incongruent right correct Normal 485.392
302 138 LeftLarger RTTaskAExp2 Prime_9A Target_1N IljicAD ADBelCi Incongruent right correct Normal 553.4342
302 139 LeftLarger RTTaskAExp2 Prime_9N Target_4N clFJGCE gIjKkad Incongruent right correct Normal 734.6119
302 140 LeftLarger RTTaskAExp2 Prime_6A Target_6A DALhGaM bakCcGH Congruent left correct Normal 578.0266
302 141 LeftLarger RTTaskAExp2 Prime_1A Target_1N iLDmhFf HicBeGF Congruent right correct Normal 518.9504
302 142 LeftLarger RTTaskAExp2 Prime_4A Target_4A iacfhLe CdfaLhc Congruent right correct Normal 648.2264
302 143 LeftLarger RTTaskAExp2 Prime_4A Target_1A chGgHkJ dmkiKHI Congruent right correct Normal 460.2817
302 144 LeftLarger RTTaskAExp2 Prime_6A Target_9N ghkKLDa FgKhfAG Congruent left correct Normal 511.9486
302 145 LeftLarger RTTaskAExp2 Prime_9A Target_6A cFhlKJM bBGdEAK Congruent left correct Late 1614.155
302 146 LeftLarger RTTaskAExp2 Prime_9N Target_9N LgCIAmD ehAkEHF Congruent left correct Normal 517.9469
302 147 LeftLarger RTTaskAExp2 Prime_6N Target_4A eGHEaKg fLhkcaJ Incongruent right correct Normal 509.3634
302 148 LeftLarger RTTaskAExp2 Prime_4N Target_6N mLKgBGb BbCgEaj Incongruent left correct Normal 520.3959
302 149 LeftLarger RTTaskAExp2 Prime_6A Target_4A eFgdBKM bhamFgi Incongruent right correct Normal 380.893
302 150 LeftLarger RTTaskAExp2 Prime_4N Target_9A JCAihDI CaklmiE Incongruent left correct Normal 518.7343
302 151 LeftLarger RTTaskAExp2 Prime_9A Target_6A mGJlFEL KkDiCFI Congruent left correct Normal 474.2459
302 152 LeftLarger RTTaskAExp2 Prime_4N Target_9N hgBAdbc hDMfbIL Incongruent left correct Normal 510.5403
302 153 LeftLarger RTTaskAExp2 Prime_6N Target_6A dADIgKc AIBDbLM Congruent left correct Normal 440.8474
302 154 LeftLarger RTTaskAExp2 Prime_4N Target_6A GhfEDjd MmDEefK Incongruent left correct Late 12100.78
302 155 LeftLarger RTTaskAExp2 Prime_4A Target_9A MamlKhG GEaAlhH Incongruent left correct Normal 529.144
302 156 LeftLarger RTTaskAExp2 Prime_6N Target_9A DcAiIfa lHjGIEC Congruent left correct Normal 463.4721
302 157 LeftLarger RTTaskAExp2 Prime_9A Target_9A cFLHCMk BMLelfI Congruent left correct Normal 540.2374
302 158 LeftLarger RTTaskAExp2 Prime_4N Target_6A ELbglMG ecjmCAb Incongruent left correct Normal 574.1461
302 159 LeftSmaller RTTaskBPrac Prime_1A Target_1N iEaehLH GmdbIJD Congruent right error Normal 580.5401
302 160 LeftSmaller RTTaskBPrac Prime_9N Target_1N CFDjGhB AcDMIBF Incongruent left correct Normal 587.3595
302 161 LeftSmaller RTTaskBPrac Prime_9A Target_1N lBjhLKF gbcAaMK Incongruent left correct Normal 416.0854
302 162 LeftSmaller RTTaskBPrac Prime_4A Target_9A JDgGHmM hkjDdmb Incongruent left error Normal 382.9532
302 163 LeftSmaller RTTaskBPrac Prime_6A Target_4N IKJahek AgmjlMd Incongruent left correct Normal 855.4978
302 164 LeftSmaller RTTaskBPrac Prime_6A Target_9N AilgBIE BcldaKk Congruent right correct Normal 468.1642
302 165 LeftSmaller RTTaskBPrac Prime_1A Target_1N kMeLBJG AmjkgeG Congruent left correct Normal 524.1052
302 166 LeftSmaller RTTaskBPrac Prime_1N Target_1A hiMAfGb lcFAdhf Congruent left correct Normal 475.2561
302 167 LeftSmaller RTTaskBPrac Prime_1A Target_6A mJGIKbc efdFlHi Incongruent right correct Normal 502.6551
302 168 LeftSmaller RTTaskBPrac Prime_9A Target_4N eDgmhHj GLmDkMH Incongruent left correct Normal 749.2161
302 169 LeftSmaller RTTaskBPrac Prime_4A Target_9N akFdGHh djIegaJ Incongruent right correct Normal 533.4048
302 170 LeftSmaller RTTaskBPrac Prime_6A Target_1N eKcbDAB dcbiaBj Incongruent left correct Normal 521.2967
302 171 LeftSmaller RTTaskBPrac Prime_4A Target_9A JfgLIKH JCMjdgF Incongruent right correct Normal 445.8479
302 172 LeftSmaller RTTaskBPrac Prime_4N Target_9N AEkFIgh lHaiLBF Incongruent right correct Normal 503.8809
302 173 LeftSmaller RTTaskBPrac Prime_4N Target_4N iBdMbAg FhjIiaJ Congruent left correct Normal 587.9157
302 174 LeftSmaller RTTaskBPrac Prime_4N Target_4A ChFAgbD LIcDKdC Congruent left correct Normal 507.227
302 175 LeftSmaller RTTaskBPrac Prime_4N Target_6N CEJHAgc AfBDkFE Incongruent right correct Normal 450.4007
302 176 LeftSmaller RTTaskBPrac Prime_6N Target_1N LGdEDce fbliLHj Incongruent left correct Normal 420.1858
302 177 LeftSmaller RTTaskBExp1 Prime_4A Target_9N efGckJK mLKDfIb Incongruent right correct Normal 747.3743
302 178 LeftSmaller RTTaskBExp1 Prime_6A Target_6N LkHhcjb iBMEHmC Congruent right correct Normal 459.4009
302 179 LeftSmaller RTTaskBExp1 Prime_1N Target_9A HmhDiLJ ClEAGcK Incongruent right correct Normal 398.3428
302 180 LeftSmaller RTTaskBExp1 Prime_9A Target_9A jKMfFGk blGALIE Congruent right correct Normal 425.6425
302 181 LeftSmaller RTTaskBExp1 Prime_1A Target_1N kdeJKiL FjecdCf Congruent left correct Normal 409.7495
302 182 LeftSmaller RTTaskBExp1 Prime_9N Target_1A ekbHDAM iJBCLke Incongruent left correct Normal 423.0875
302 183 LeftSmaller RTTaskBExp1 Prime_6A Target_4N LmFaclE IiLBacb Incongruent left correct Normal 539.7272
302 184 LeftSmaller RTTaskBExp1 Prime_1A Target_9A JbhgaEm AHMJcBe Incongruent right correct Normal 398.2881
302 185 LeftSmaller RTTaskBExp1 Prime_9A Target_4N EkFADmb HCbcimI Incongruent left correct Normal 411.011
302 186 LeftSmaller RTTaskBExp1 Prime_9N Target_4N fmicJdA IFhLBMj Incongruent left correct Normal 429.3067
302 187 LeftSmaller RTTaskBExp1 Prime_4N Target_9A mFAGBHd DkBEbFG Incongruent right correct Normal 399.8913
302 188 LeftSmaller RTTaskBExp1 Prime_4A Target_4A Bhcbelf mEcAIkC Congruent left correct Normal 431.9459
302 189 LeftSmaller RTTaskBExp1 Prime_9A Target_1A cCalMBf fKkGDFH Incongruent left correct Normal 544.7399
302 190 LeftSmaller RTTaskBExp1 Prime_4N Target_4N fgbMhDL hjfLmEk Congruent left correct Normal 606.2745
302 191 LeftSmaller RTTaskBExp1 Prime_4A Target_4N fljCGbe kfEJldI Congruent left correct Normal 412.1787
302 192 LeftSmaller RTTaskBExp1 Prime_4A Target_6A EBhAdeI LhMFmHD Incongruent right correct Normal 438.7533
302 193 LeftSmaller RTTaskBExp1 Prime_1N Target_1N afHAkBD ljecDfK Congruent left correct Normal 487.4898
302 194 LeftSmaller RTTaskBExp1 Prime_6N Target_1N kjLKcdg IiahelJ Incongruent left correct Normal 509.8081
302 195 LeftSmaller RTTaskBExp1 Prime_4N Target_6N ijmaIeC BGabiMH Incongruent right correct Normal 658.5919
302 196 LeftSmaller RTTaskBExp1 Prime_1A Target_1A FCMHlIb hKHIMCj Congruent left correct Normal 438.519
302 197 LeftSmaller RTTaskBExp1 Prime_1N Target_6N mJIcFeH jhmkIBd Incongruent right correct Normal 543.0218
302 198 LeftSmaller RTTaskBExp1 Prime_4A Target_1A GICgibc JKefFjD Congruent left correct Normal 451.6005
302 199 LeftSmaller RTTaskBExp1 Prime_6A Target_1A ljAbJMD fCKIdec Incongruent left correct Normal 378.1421
302 200 LeftSmaller RTTaskBExp1 Prime_6A Target_9A fjaJLdc CcjmaDf Congruent right correct Normal 422.8082
302 201 LeftSmaller RTTaskBExp1 Prime_6A Target_6A mahgACD FIJcCKd Congruent right correct Normal 593.7776
302 202 LeftSmaller RTTaskBExp1 Prime_1N Target_1A HiagBhM KCiDeLB Congruent left correct Normal 417.9888
302 203 LeftSmaller RTTaskBExp1 Prime_1A Target_4N GCBHaLm EjIedhb Congruent left correct Normal 597.5662
302 204 LeftSmaller RTTaskBExp1 Prime_6N Target_9A gkmGJCb DKIgjMm Congruent right correct Normal 397.5794
302 205 LeftSmaller RTTaskBExp1 Prime_4N Target_6A deBKkiI gKlBAim Incongruent right correct Normal 762.9876
302 206 LeftSmaller RTTaskBExp1 Prime_9N Target_4A MgJmGiB aFcHLJB Incongruent left correct Normal 456.5814
302 207 LeftSmaller RTTaskBExp1 Prime_6N Target_6N BcjHMGI dmCeiJl Congruent right correct Normal 470.0802
302 208 LeftSmaller RTTaskBExp1 Prime_9A Target_1N DdFHfcm biFKCfB Incongruent left correct Normal 537.6425
302 209 LeftSmaller RTTaskBExp1 Prime_9A Target_6N CGHEcAd lLCaADH Congruent right correct Normal 406.1272
302 210 LeftSmaller RTTaskBExp1 Prime_6N Target_4N BMAHfFg dkDEGAJ Incongruent left correct Normal 489.8326
302 211 LeftSmaller RTTaskBExp1 Prime_1A Target_9N gbaejIK AkHBCfi Incongruent right correct Normal 435.3637
302 212 LeftSmaller RTTaskBExp1 Prime_1A Target_6A glDdkCi AdCfiHG Incongruent left error Normal 527.6484
302 213 LeftSmaller RTTaskBExp1 Prime_9N Target_1N FhHEBma cCFBfhm Incongruent left correct Normal 444.7258
302 214 LeftSmaller RTTaskBExp1 Prime_9N Target_6N mhMdeJi FakJALE Congruent right correct Normal 414.5413
302 215 LeftSmaller RTTaskBExp1 Prime_9N Target_6A hIBaGkc DMcghjH Congruent right correct Normal 422.4481
302 216 LeftSmaller RTTaskBExp1 Prime_4A Target_9A MIJajAk hMKbkCF Incongruent right correct Normal 433.467
302 217 LeftSmaller RTTaskBExp1 Prime_9N Target_9A cEHDikJ IMlfAEH Congruent right correct Normal 414.8899
302 218 LeftSmaller RTTaskBExp1 Prime_1N Target_4A GCkDfbj hjcDaIK Congruent left correct Normal 474.7832
302 219 LeftSmaller RTTaskBExp1 Prime_6A Target_9N gejamCi EMKhlmI Congruent right correct Normal 434.4624
302 220 LeftSmaller RTTaskBExp1 Prime_1N Target_6A ghkiEmb DMicaIf Incongruent right correct Normal 547.9197
302 221 LeftSmaller RTTaskBExp1 Prime_6N Target_6A fMkDEGj AmGMhDg Congruent right correct Normal 420.3045
302 222 LeftSmaller RTTaskBExp1 Prime_9N Target_9N ALEkahG AemMClD Congruent right correct Normal 419.979
302 223 LeftSmaller RTTaskBExp1 Prime_4A Target_1N kJgjmIM Ageckih Congruent left correct Normal 474.6056
302 224 LeftSmaller RTTaskBExp1 Prime_4N Target_4A DgAjLKG fgKEMFH Congruent left correct Normal 472.4783
302 225 LeftSmaller RTTaskBExp1 Prime_6N Target_4A HkBeACE LaFIgHh Incongruent left correct Normal 426.3291
302 226 LeftSmaller RTTaskBExp1 Prime_6N Target_1A HhFJeiL BJDKFAc Incongruent left correct Normal 551.7429
302 227 LeftSmaller RTTaskBExp1 Prime_1N Target_9N lbMHAmf BAJeFdi Incongruent right correct Normal 402.9257
302 228 LeftSmaller RTTaskBExp1 Prime_1N Target_4N MgKfAkI ECjDihb Congruent left correct Normal 523.9616
302 229 LeftSmaller RTTaskBExp1 Prime_4N Target_1A JCkHiFb EIBDAHh Congruent left correct Normal 442.5934
302 230 LeftSmaller RTTaskBExp1 Prime_9A Target_6A LIhkfeE JLdCecE Congruent right correct Normal 411.4024
302 231 LeftSmaller RTTaskBExp1 Prime_6A Target_4A MALIkfm cjeILgm Incongruent left correct Normal 477.5757
302 232 LeftSmaller RTTaskBExp1 Prime_4N Target_9N iBIeAfg kDJiHGl Incongruent right correct Normal 523.4979
302 233 LeftSmaller RTTaskBExp1 Prime_4N Target_1N majfBhi dbDfFkL Congruent left correct Normal 494.5239
302 234 LeftSmaller RTTaskBExp1 Prime_1A Target_6N mLfhaMK LeCDaBh Incongruent right correct Normal 613.0688
302 235 LeftSmaller RTTaskBExp1 Prime_1A Target_6A EdGaibg akHdDlG Incongruent right correct Normal 519.4378
302 236 LeftSmaller RTTaskBExp1 Prime_9A Target_4A aFHgmAe jbChlKf Incongruent left correct Normal 425.2821
302 237 LeftSmaller RTTaskBExp1 Prime_9A Target_9N adbGhIK jeGCBgm Congruent right correct Normal 449.0713
302 238 LeftSmaller RTTaskBExp1 Prime_1A Target_4A HDfgJLA glcDkGe Congruent left correct Normal 404.6043
302 239 LeftSmaller RTTaskBExp1 Prime_6N Target_9N IHFhcLj IAmCajG Congruent right correct Normal 397.9027
302 240 LeftSmaller RTTaskBExp1 Prime_6A Target_1N klhJibC CFLaMBG Incongruent left correct Normal 450.8228
302 241 LeftSmaller RTTaskBExp1 Prime_4A Target_6N gfDHbME mckDlEj Incongruent right correct Normal 471.5805
302 242 LeftSmaller RTTaskBExp2 Prime_9A Target_4N keAcHgd JcIfFbm Incongruent left correct Normal 789.0813
302 243 LeftSmaller RTTaskBExp2 Prime_9N Target_6A jfBKhDl JeCAGia Congruent right correct Normal 431.3647
302 244 LeftSmaller RTTaskBExp2 Prime_9N Target_1N KADIciL LldAfek Incongruent left correct Normal 474.5538
302 245 LeftSmaller RTTaskBExp2 Prime_1A Target_1A hBckaHm hFklGjK Congruent left correct Normal 454.7413
302 246 LeftSmaller RTTaskBExp2 Prime_4N Target_9A MHBhkDm BiMJlhe Incongruent right correct Normal 397.666
302 247 LeftSmaller RTTaskBExp2 Prime_1N Target_1N DAIaLMK eDgBAId Congruent left correct Normal 477.4677
302 248 LeftSmaller RTTaskBExp2 Prime_4N Target_6A dlFkEAm IhFKHfA Incongruent right correct Normal 426.0019
302 249 LeftSmaller RTTaskBExp2 Prime_9N Target_4N kiEgeAI LFkidaK Incongruent right error Normal 406.5234
302 250 LeftSmaller RTTaskBExp2 Prime_1A Target_9N JmigaEM IdijFEm Incongruent right correct Normal 501.5149
302 251 LeftSmaller RTTaskBExp2 Prime_9N Target_4N cDhiCab eIiCmjL Incongruent left correct Normal 492.8686
302 252 LeftSmaller RTTaskBExp2 Prime_6N Target_4A jdDcHIL KBlLeED Incongruent left correct Normal 464.1694
302 253 LeftSmaller RTTaskBExp2 Prime_4N Target_9N IJgBiaE lJmaMDe Incongruent right correct Normal 424.7113
302 254 LeftSmaller RTTaskBExp2 Prime_6N Target_9A kBIbAji ekFDLEa Congruent right correct Normal 427.7904
302 255 LeftSmaller RTTaskBExp2 Prime_4N Target_1N AKjLamH dAlbgfj Congruent left correct Normal 409.7358
302 256 LeftSmaller RTTaskBExp2 Prime_6A Target_4N MGhbfjJ mfCBJLM Incongruent left correct Normal 571.8138
302 257 LeftSmaller RTTaskBExp2 Prime_6N Target_1A HhmbLKi HMKEGdg Incongruent right error Late 3187.316
302 258 LeftSmaller RTTaskBExp2 Prime_4A Target_4N lfecDaA mAjaGBf Congruent left correct Normal 549.328
302 259 LeftSmaller RTTaskBExp2 Prime_4A Target_4A GhMDkFd IdHgGCL Congruent left correct Normal 431.7678
302 260 LeftSmaller RTTaskBExp2 Prime_6N Target_9N LMbmeDl hamBdLC Congruent right correct Normal 411.0506
302 261 LeftSmaller RTTaskBExp2 Prime_1N Target_6A aDchMFb jalbCFg Incongruent right correct Normal 527.0889
302 262 LeftSmaller RTTaskBExp2 Prime_6A Target_6N DjMeAlb LjiKbAE Congruent right correct Normal 494.8109
302 263 LeftSmaller RTTaskBExp2 Prime_9A Target_6A AJHihIa kBclIaG Congruent right correct Normal 400.1467
302 264 LeftSmaller RTTaskBExp2 Prime_6A Target_6A kEhMDJB GKFLagi Congruent right correct Normal 383.9774
302 265 LeftSmaller RTTaskBExp2 Prime_1A Target_6A DLCMEAF DjCKcIH Incongruent right correct Normal 465.6283
302 266 LeftSmaller RTTaskBExp2 Prime_4N Target_1A CIkeLil baIHDhM Congruent left correct Normal 487.0417
302 267 LeftSmaller RTTaskBExp2 Prime_6N Target_4N bHDJhfI FgCKeBL Incongruent left correct Normal 501.3357
302 268 LeftSmaller RTTaskBExp2 Prime_9N Target_4A aMgcICm gHBKLhJ Incongruent left correct Normal 394.3827
302 269 LeftSmaller RTTaskBExp2 Prime_1A Target_9A gDfchAI CahbGAl Incongruent right correct Normal 401.4321
302 270 LeftSmaller RTTaskBExp2 Prime_1N Target_6N fijFHkL kiMaHhb Incongruent left error Normal 594.3191
302 271 LeftSmaller RTTaskBExp2 Prime_4A Target_6N IjlAaFk kjbefiJ Incongruent right correct Normal 569.0012
302 272 LeftSmaller RTTaskBExp2 Prime_6A Target_9N aBHlhAL mGlKaIc Congruent right correct Normal 518.1794
302 273 LeftSmaller RTTaskBExp2 Prime_9A Target_1N cDlEfdK egmCDLF Incongruent left correct Normal 461.9897
302 274 LeftSmaller RTTaskBExp2 Prime_6N Target_1A kJGcfAE eCEjfdc Incongruent left correct Normal 478.9825
302 275 LeftSmaller RTTaskBExp2 Prime_1N Target_6N KLlDmIA caghKDm Incongruent right correct Normal 409.6274
302 276 LeftSmaller RTTaskBExp2 Prime_6A Target_1A KGDcmEJ cKLbmJj Incongruent left correct Normal 428.8631
302 277 LeftSmaller RTTaskBExp2 Prime_9A Target_9N bgcEiBK fmFhEdc Congruent right correct Normal 431.895
302 278 LeftSmaller RTTaskBExp2 Prime_6A Target_9A LhikDga dJGbEDm Congruent right correct Normal 394.9324
302 279 LeftSmaller RTTaskBExp2 Prime_1N Target_4N DMFKjJE IaAfBCG Congruent left correct Normal 515.0803
302 280 LeftSmaller RTTaskBExp2 Prime_1A Target_4A AdkjfCa ekfIijG Congruent left correct Normal 537.261
302 281 LeftSmaller RTTaskBExp2 Prime_6N Target_6N LDiFbKj KfiHEdC Congruent right correct Normal 403.6901
302 282 LeftSmaller RTTaskBExp2 Prime_6A Target_4A DBeljmI kmFbiBa Incongruent left correct Normal 539.6147
302 283 LeftSmaller RTTaskBExp2 Prime_9A Target_4A KdFLBiI FdmlbcA Incongruent left correct Normal 599.9407
302 284 LeftSmaller RTTaskBExp2 Prime_1N Target_4A BjcikdI iMmcJle Congruent left correct Normal 424.1711
302 285 LeftSmaller RTTaskBExp2 Prime_9N Target_6N LBMlemI CiBdIJK Congruent right correct Normal 461.078
302 286 LeftSmaller RTTaskBExp2 Prime_9N Target_1A CfgeGab hAJGadH Incongruent left correct Normal 547.4962
302 287 LeftSmaller RTTaskBExp2 Prime_4N Target_6N mGiFhjf KFeGElA Incongruent right correct Normal 509.2846
302 288 LeftSmaller RTTaskBExp2 Prime_4A Target_6A IcLBgdm kgdbAHi Incongruent right correct Normal 432.4513
302 289 LeftSmaller RTTaskBExp2 Prime_4N Target_4N GBhmCIg hfDLHlE Congruent left correct Normal 586.5969
302 290 LeftSmaller RTTaskBExp2 Prime_9A Target_1A jdfHeMm HdJcmDa Incongruent left correct Normal 434.0222
302 291 LeftSmaller RTTaskBExp2 Prime_1N Target_9N MBidmkI ibCIJgm Incongruent right correct Normal 472.5843
302 292 LeftSmaller RTTaskBExp2 Prime_4A Target_9N DgHhLcJ JIDGmkC Incongruent right correct Normal 471.6067
302 293 LeftSmaller RTTaskBExp2 Prime_4N Target_4A fGHbdgc gadLKGC Congruent left correct Normal 493.5359
302 294 LeftSmaller RTTaskBExp2 Prime_4A Target_9A IKBkEDl kmaBeME Incongruent right correct Normal 442.0694
302 295 LeftSmaller RTTaskBExp2 Prime_9A Target_9A aFifMkI cAkgdBl Congruent right correct Normal 482.6004
302 296 LeftSmaller RTTaskBExp2 Prime_9N Target_9N mecJBdH JIjGAhd Congruent right correct Normal 360.5397
302 297 LeftSmaller RTTaskBExp2 Prime_6A Target_1N hemGJHd cGejmMd Incongruent left correct Normal 494.9295
302 298 LeftSmaller RTTaskBExp2 Prime_1N Target_1A mdaHKiG FdLGehB Congruent left correct Normal 456.0588
302 299 LeftSmaller RTTaskBExp2 Prime_6N Target_6A hjElCBc LIejfkC Congruent right correct Normal 454.7697
302 300 LeftSmaller RTTaskBExp2 Prime_1A Target_6N fMlAjgL mHdhFCg Incongruent right correct Normal 487.4239
302 301 LeftSmaller RTTaskBExp2 Prime_1A Target_4N cJHlBMG daGBLcJ Congruent left correct Normal 432.097
302 302 LeftSmaller RTTaskBExp2 Prime_6N Target_1N mElCdae KlLeJiH Incongruent left correct Normal 429.766
302 303 LeftSmaller RTTaskBExp2 Prime_4A Target_1N HmfGdBM DcCJiGf Congruent left correct Normal 516.4714
302 304 LeftSmaller RTTaskBExp2 Prime_4A Target_1A JgGCdEF kamMGLB Congruent left correct Normal 447.4769
302 305 LeftSmaller RTTaskBExp2 Prime_9A Target_6N MBjkHCL fHCemId Congruent right correct Normal 506.8033
302 306 LeftSmaller RTTaskBExp2 Prime_9N Target_9A aKJMFcI clBChaM Congruent right correct Normal 412.9224
302 307 LeftSmaller RTTaskBExp2 Prime_1N Target_9A BgJimlA ABJblLD Incongruent right correct Normal 467.5188
302 308 LeftSmaller RTTaskBExp2 Prime_1A Target_1N kEfgcGm AgaMEDh Congruent left correct Normal 410.7495
303 1 LeftLarger RTTaskAPrac Prime_1A Target_6N DaEfkdI gmkbdBD Incongruent left correct Late 1409.616
303 2 LeftLarger RTTaskAPrac Prime_6A Target_9A fBjDbJc ahCBLAI Congruent right error Normal 611.1686
303 3 LeftLarger RTTaskAPrac Prime_9N Target_6N MdcEGDH lbBGmgK Congruent left correct Normal 620.1207
303 4 LeftLarger RTTaskAPrac Prime_1N Target_1A LGDgikJ FfdDgMa Congruent right correct Normal 648.047
303 5 LeftLarger RTTaskAPrac Prime_4A Target_6N HlICMLB DIdfLkA Incongruent left correct Normal 551.7122
303 6 LeftLarger RTTaskAPrac Prime_6A Target_1A iDjJlah FgjfbAh Incongruent right correct Normal 438.1829
303 7 LeftLarger RTTaskAPrac Prime_1A Target_9A MBlbAJI cjCbJHD Incongruent left correct Normal 500.1704
303 8 LeftLarger RTTaskAPrac Prime_9N Target_1N CKjEAaI ldBcKJa Incongruent right correct Normal 480.558
303 9 LeftLarger RTTaskAPrac Prime_1A Target_6N hIcDjFH micIKCE Incongruent left correct Normal 510.3563
303 10 LeftLarger RTTaskAPrac Prime_4A Target_4N JdmFgEH eMKHBaE Congruent left error Normal 511.3028
303 11 LeftLarger RTTaskAPrac Prime_4A Target_1A aKFbGlh dEcMCaL Congruent right correct Normal 618.0571
303 12 LeftLarger RTTaskAPrac Prime_1A Target_4N ldhgEfG bHfkBhK Congruent right correct Normal 576.7376
303 13 LeftLarger RTTaskAPrac Prime_4A Target_4N dGgHiIb JfADLCk Congruent right correct Normal 515.9725
303 14 LeftLarger RTTaskAPrac Prime_6A Target_9A gaflJLG KFeIfGj Congruent left correct Normal 509.5928
303 15 LeftLarger RTTaskAPrac Prime_9A Target_9N iIMJgCe GKlmeCi Congruent left correct Normal 476.7399
303 16 LeftLarger RTTaskAPrac Prime_4N Target_1N EdKaHDl kjKaFBl Congruent right correct Normal 494.1262
303 17 LeftLarger RTTaskAPrac Prime_9N Target_4N leEmhfA jCHgibK Incongruent right correct Normal 684.0909
303 18 LeftLarger RTTaskAPrac Prime_6A Target_4N bdhAKmg adGFhgc Incongruent right correct Normal 441.486
303 19 LeftLarger RTTaskAPrac Prime_9N Target_4A JhCBMgb GlDekKJ Incongruent right correct Normal 455.2986
303 20 LeftLarger RTTaskAExp1 Prime_1A Target_4A CgfHDBI FHAfBJd Congruent right correct Normal 673.7138
303 21 LeftLarger RTTaskAExp1 Prime_1N Target_6N eimfIhb iAckdlL Incongruent left correct Normal 571.2316
303 22 LeftLarger RTTaskAExp1 Prime_4N Target_4A hLfKFmj dFamDhH Congruent right correct Normal 478.0492
303 23 LeftLarger RTTaskAExp1 Prime_1N Target_9A gGbfKEc BHIEkeK Incongruent left correct Normal 453.521
303 24 LeftLarger RTTaskAExp1 Prime_6A Target_4N bKfMhej HchgmaD Incongruent right correct Normal 452.26
303 25 LeftLarger RTTaskAExp1 Prime_9A Target_4A CLhAIBb FbgiKkH Incongruent right correct Normal 401.2982
303 26 LeftLarger RTTaskAExp1 Prime_9A Target_9A eBcGLFH gHmaEGC Congruent left correct Normal 423.0542
303 27 LeftLarger RTTaskAExp1 Prime_9N Target_4N FAJMjmh KmDjLdB Incongruent right correct Normal 429.3792
303 28 LeftLarger RTTaskAExp1 Prime_1N Target_4N EILMbak AbGjCha Congruent right correct Normal 407.8021
303 29 LeftLarger RTTaskAExp1 Prime_9N Target_9N BkhcCdA cClLjBd Congruent left correct Normal 570.2122
303 30 LeftLarger RTTaskAExp1 Prime_4N Target_1A aABEmLg mCJAcjL Congruent right correct Normal 460.1304
303 31 LeftLarger RTTaskAExp1 Prime_9N Target_6A CILAMDK eCdMKGi Congruent left correct Normal 595.7858
303 32 LeftLarger RTTaskAExp1 Prime_6A Target_6A lJkaLEi DHFgMhG Congruent left correct Normal 439.3587
303 33 LeftLarger RTTaskAExp1 Prime_1N Target_4A iFEeakD CdkhIAl Congruent right correct Normal 434.8827
303 34 LeftLarger RTTaskAExp1 Prime_6A Target_9A lIkdiaH DLIeEHA Congruent left correct Normal 411.7987
303 35 LeftLarger RTTaskAExp1 Prime_9N Target_9A DcmBKhH IDCKJHf Congruent left correct Normal 363.6546
303 36 LeftLarger RTTaskAExp1 Prime_4N Target_9A lEjBaHf emfLKMi Incongruent left correct Normal 349.813
303 37 LeftLarger RTTaskAExp1 Prime_4A Target_4A DmJAglB cHkiECb Congruent right correct Normal 422.8497
303 38 LeftLarger RTTaskAExp1 Prime_6N Target_9N CfBDjKk JecaMKh Congruent left correct Normal 450.708
303 39 LeftLarger RTTaskAExp1 Prime_4A Target_9N GBFCklj hCJjIBm Incongruent left correct Normal 364.0858
303 40 LeftLarger RTTaskAExp1 Prime_9A Target_9N EaHKfkJ FiABIEK Congruent left correct Normal 364.6422
303 41 LeftLarger RTTaskAExp1 Prime_4A Target_9A cJKDlIA GAchDgB Incongruent left correct Normal 456.6983
303 42 LeftLarger RTTaskAExp1 Prime_6N Target_9A AlGDJMf MJcGdke Congruent left correct Normal 355.1106
303 43 LeftLarger RTTaskAExp1 Prime_4N Target_9N gDimCaJ BDFjhaC Incongruent left correct Normal 451.9035
303 44 LeftLarger RTTaskAExp1 Prime_4N Target_6A LbdlImC jKLaBkm Incongruent right error Normal 495.3061
303 45 LeftLarger RTTaskAExp1 Prime_1N Target_1A EfHgdFj KjdIMgf Congruent right correct Normal 542.2835
303 46 LeftLarger RTTaskAExp1 Prime_9N Target_4A bKeFHfA lChDKHa Incongruent right correct Normal 896.1401
303 47 LeftLarger RTTaskAExp1 Prime_6N Target_4A CLJdaKB alIKfMm Incongruent right correct Normal 448.5448
303 48 LeftLarger RTTaskAExp1 Prime_9A Target_4N aBGmAhc aeKklmL Incongruent right correct Normal 581.822
303 49 LeftLarger RTTaskAExp1 Prime_1A Target_1A cHFkBlJ iaAKgkG Congruent right correct Normal 492.7893
303 50 LeftLarger RTTaskAExp1 Prime_4A Target_1A EHfblAa mKJeClB Congruent right correct Normal 454.0201
303 51 LeftLarger RTTaskAExp1 Prime_1N Target_9N jfJcImC kbgmAFh Incongruent left correct Normal 507.3716
303 52 LeftLarger RTTaskAExp1 Prime_6N Target_1N GikcfdF kfEbdKc Incongruent right correct Normal 608.1629
303 53 LeftLarger RTTaskAExp1 Prime_4A Target_1N GjIkKEl bChHeId Congruent right correct Normal 569.1944
303 54 LeftLarger RTTaskAExp1 Prime_1A Target_6N FjBDeCg lGKFEMD Incongruent left correct Normal 653.2364
303 55 LeftLarger RTTaskAExp1 Prime_6A Target_1A jeIiKcF lakebAF Incongruent right correct Normal 476.5342
303 56 LeftLarger RTTaskAExp1 Prime_1N Target_1N LAmKEDj FeKaLbC Congruent right correct Normal 479.2836
303 57 LeftLarger RTTaskAExp1 Prime_4N Target_4N aCfLcmA IkKhDcG Congruent right correct Normal 665.7455
303 58 LeftLarger RTTaskAExp1 Prime_1A Target_1N FMfaALk bkaFcmC Congruent right correct Normal 482.2967
303 59 LeftLarger RTTaskAExp1 Prime_9A Target_6N fJLjIkC cCbBJFg Congruent left correct Normal 561.3223
303 60 LeftLarger RTTaskAExp1 Prime_1A Target_4N MBDdaHh ghcHKFd Congruent right correct Normal 704.7677
303 61 LeftLarger RTTaskAExp1 Prime_6A Target_1N KmFEkgD EdDFIBm Incongruent right correct Normal 549.5624
303 62 LeftLarger RTTaskAExp1 Prime_6N Target_1A MDJALKI GimgljF Incongruent right correct Normal 480.114
303 63 LeftLarger RTTaskAExp1 Prime_4N Target_1N igeGBdA cDfhakj Congruent right correct Normal 493.4448
303 64 LeftLarger RTTaskAExp1 Prime_9N Target_1A eGLFEKC eiBglAL Incongruent right correct Normal 367.3076
303 65 LeftLarger RTTaskAExp1 Prime_1A Target_9N EjgMmAC JmjMCEg Incongruent left correct Normal 436.6251
303 66 LeftLarger RTTaskAExp1 Prime_4N Target_6A lCiAmLk mIdDcag Incongruent left correct Normal 523.3718
303 67 LeftLarger RTTaskAExp1 Prime_1A Target_6A bKjfCea AJKFEdk Incongruent left correct Normal 472.7879
303 68 LeftLarger RTTaskAExp1 Prime_4N Target_6N LbgGiJm aCKelGb Incongruent left correct Normal 463.8121
303 69 LeftLarger RTTaskAExp1 Prime_6A Target_9N LCMAcJa mGKegbF Congruent left correct Normal 505.114
303 70 LeftLarger RTTaskAExp1 Prime_4A Target_6N cmjEhIK EHIADkc Incongruent left correct Normal 544.028
303 71 LeftLarger RTTaskAExp1 Prime_6N Target_4N CmLIkEK CaIKkcJ Incongruent right correct Normal 495.8394
303 72 LeftLarger RTTaskAExp1 Prime_9A Target_1A KfblMJe EjBKbfM Incongruent right correct Normal 419.9253
303 73 LeftLarger RTTaskAExp1 Prime_9A Target_1N DMKbLgc hjLBlAC Incongruent right correct Normal 467.9837
303 74 LeftLarger RTTaskAExp1 Prime_6N Target_6A iGACHIL GkLdfEi Congruent left correct Normal 450.6742
303 75 LeftLarger RTTaskAExp1 Prime_9N Target_6N CKcDeGF jFECLIi Congruent left correct Normal 460.5782
303 76 LeftLarger RTTaskAExp1 Prime_9N Target_1N ejghCFm mkfiLGh Incongruent right correct Normal 585.132
303 77 LeftLarger RTTaskAExp1 Prime_6N Target_6N ChJceig dGmkhED Congruent left correct Normal 533.4291
303 78 LeftLarger RTTaskAExp1 Prime_6A Target_6N ACiLhIb aJDihKk Congruent left correct Normal 586.8611
303 79 LeftLarger RTTaskAExp1 Prime_4A Target_6A afFMeiD cCAGiIl Incongruent left correct Normal 470.5126
303 80 LeftLarger RTTaskAExp1 Prime_4A Target_4N HjJgCdE hjbdJiK Congruent right correct Normal 657.6758
303 81 LeftLarger RTTaskAExp1 Prime_1N Target_6A AFfdgLh JEimaLl Incongruent left correct Normal 498.8532
303 82 LeftLarger RTTaskAExp1 Prime_9A Target_6A FbMAKaD hFMlBej Congruent left correct Normal 478.9048
303 83 LeftLarger RTTaskAExp1 Prime_1A Target_9A fgeCMci eckgdfJ Incongruent left correct Normal 518.8693
303 84 LeftLarger RTTaskAExp1 Prime_6A Target_4A FAJLMGl FLjkeEC Incongruent right correct Normal 521.3632
303 85 LeftLarger RTTaskAExp2 Prime_9N Target_9A EMaBemg IKHhABd Congruent left correct Normal 453.7943
303 86 LeftLarger RTTaskAExp2 Prime_9A Target_9N HdDEfMg JALiBmj Congruent left correct Normal 440.8538
303 87 LeftLarger RTTaskAExp2 Prime_9N Target_1A bKkAdmC gcGfdBb Incongruent right correct Normal 424.1282
303 88 LeftLarger RTTaskAExp2 Prime_4N Target_1A khBJjKE hafAkiF Congruent right correct Normal 370.0408
303 89 LeftLarger RTTaskAExp2 Prime_4N Target_1N bBEAMcm aHDcgbI Congruent right correct Normal 472.0792
303 90 LeftLarger RTTaskAExp2 Prime_6N Target_4N khBAeHm aEBijlM Incongruent right correct Normal 808.6121
303 91 LeftLarger RTTaskAExp2 Prime_6A Target_1N FEDdKjM FIGmeab Incongruent right correct Normal 491.3915
303 92 LeftLarger RTTaskAExp2 Prime_6N Target_9N LaMhDeK bgchCIi Congruent left correct Normal 411.8426
303 93 LeftLarger RTTaskAExp2 Prime_6A Target_9A HlBjKgM HJjfhib Congruent left correct Normal 454.1181
303 94 LeftLarger RTTaskAExp2 Prime_1N Target_4N KkJLCFa BDlLFiG Congruent right correct Normal 385.1496
303 95 LeftLarger RTTaskAExp2 Prime_4A Target_4N IEGahLe bAickgd Congruent right correct Normal 411.0472
303 96 LeftLarger RTTaskAExp2 Prime_6A Target_1A IGbcjfa lLDIfGg Incongruent right correct Normal 494.0267
303 97 LeftLarger RTTaskAExp2 Prime_1N Target_1N jCEmgci kHIGDBj Congruent right correct Normal 374.2045
303 98 LeftLarger RTTaskAExp2 Prime_1N Target_9A JIKgABF ecAhMFf Incongruent left correct Normal 402.0675
303 99 LeftLarger RTTaskAExp2 Prime_1A Target_9N BIiGFLK glabedH Incongruent left correct Normal 392.3521
303 100 LeftLarger RTTaskAExp2 Prime_6A Target_6N GhIfMgA eJIkCiH Congruent left correct Normal 721.5159
303 101 LeftLarger RTTaskAExp2 Prime_4N Target_9N dADmELK lkcbEfg Incongruent left correct Normal 526.6828
303 102 LeftLarger RTTaskAExp2 Prime_9N Target_4N jmdMhHk BKCGELl Incongruent right correct Normal 544.0447
303 103 LeftLarger RTTaskAExp2 Prime_9A Target_6A maHjhfi jIeAlCJ Congruent left correct Normal 603.7375
303 104 LeftLarger RTTaskAExp2 Prime_6A Target_4A AeBbHMa EiMFjBG Incongruent right correct Normal 497.8132
303 105 LeftLarger RTTaskAExp2 Prime_9A Target_1A jeHiDJI AHMJCFa Incongruent left error Normal 445.7305
303 106 LeftLarger RTTaskAExp2 Prime_6N Target_1A jJhaiBF ICDFbjd Incongruent right correct Normal 446.5424
303 107 LeftLarger RTTaskAExp2 Prime_9N Target_6A DgIKHbj LAgJkef Congruent left correct Normal 500.8395
303 108 LeftLarger RTTaskAExp2 Prime_1N Target_9N cdMHaDL fgEDkLH Incongruent left correct Normal 539.3566
303 109 LeftLarger RTTaskAExp2 Prime_9N Target_9N cDACebf IGifhlD Congruent left correct Normal 420.6704
303 110 LeftLarger RTTaskAExp2 Prime_6N Target_9A djHJhik LIDKAHE Congruent left correct Normal 520.6732
303 111 LeftLarger RTTaskAExp2 Prime_1A Target_9A BijHeMC lbCMfeG Incongruent left correct Normal 605.4776
303 112 LeftLarger RTTaskAExp2 Prime_9N Target_1N KlHAMik fLmJEHc Incongruent right correct Normal 597.8431
303 113 LeftLarger RTTaskAExp2 Prime_1A Target_4N gDCKkEF dAChDjB Congruent right correct Normal 682.7517
303 114 LeftLarger RTTaskAExp2 Prime_1A Target_4A ihdkFCE MlHLacE Congruent right correct Normal 449.2839
303 115 LeftLarger RTTaskAExp2 Prime_1A Target_6N ajblHGA gmLkFIh Incongruent left correct Normal 495.4688
303 116 LeftLarger RTTaskAExp2 Prime_9A Target_9A MFEhDdI IjGHfiF Congruent left correct Normal 409.3382
303 117 LeftLarger RTTaskAExp2 Prime_4N Target_4N mBgeIcK HDBLamJ Congruent right correct Normal 481.8069
303 118 LeftLarger RTTaskAExp2 Prime_4A Target_1N DclBief GhkCAlF Congruent right correct Normal 677.8634
303 119 LeftLarger RTTaskAExp2 Prime_6N Target_6N LkHAEhd iaJldfj Congruent left correct Normal 483.5833
303 120 LeftLarger RTTaskAExp2 Prime_9N Target_4A mMAKFbH LGbjDIK Incongruent right correct Normal 577.8456
303 121 LeftLarger RTTaskAExp2 Prime_6A Target_6A ghlIcFm AcbFfhd Congruent left correct Normal 545.9209
303 122 LeftLarger RTTaskAExp2 Prime_4A Target_4A JFMKjBh CKLikDF Congruent right correct Normal 648.0754
303 123 LeftLarger RTTaskAExp2 Prime_6N Target_4A MiGdjlm aMBhjkl Incongruent right correct Normal 369.6334
303 124 LeftLarger RTTaskAExp2 Prime_1A Target_1N kHDgBcM JAIEhgb Congruent right correct Normal 426.2711
303 125 LeftLarger RTTaskAExp2 Prime_1N Target_6A EIeMgmC lCLbIEa Incongruent left correct Normal 460.2831
303 126 LeftLarger RTTaskAExp2 Prime_4A Target_9A LliDedE hkJiBKb Incongruent left correct Normal 713.6192
303 127 LeftLarger RTTaskAExp2 Prime_4N Target_9A GAfaFik cBhIefj Incongruent left correct Normal 361.6597
303 128 LeftLarger RTTaskAExp2 Prime_9A Target_6N gfAFBbj hMgEAdK Congruent left correct Normal 718.7881
303 129 LeftLarger RTTaskAExp2 Prime_9A Target_4A jCAFkdl gDkhbil Incongruent right correct Normal 495.2372
303 130 LeftLarger RTTaskAExp2 Prime_6N Target_1N AGDHJbh CgGEKLD Incongruent right correct Normal 436.5303
303 131 LeftLarger RTTaskAExp2 Prime_1A Target_6A dMKCFea KLImcjg Incongruent left correct Normal 620.2916
303 132 LeftLarger RTTaskAExp2 Prime_9N Target_6N LkfGjca egEfIlJ Congruent left correct Normal 549.5055
303 133 LeftLarger RTTaskAExp2 Prime_9A Target_1N bgGhCBH BfjElhe Incongruent right correct Normal 467.6261
303 134 LeftLarger RTTaskAExp2 Prime_6A Target_4N jCdiHLk LKBEeFh Incongruent right correct Normal 487.4354
303 135 LeftLarger RTTaskAExp2 Prime_4N Target_6A GlMhaHJ lBgcmda Incongruent left correct Normal 452.9961
303 136 LeftLarger RTTaskAExp2 Prime_1N Target_6N fGHbdKB FdIbGAj Incongruent left correct Normal 561.0646
303 137 LeftLarger RTTaskAExp2 Prime_1N Target_4A MGHkBbm gaGcBCL Congruent right correct Normal 652.5516
303 138 LeftLarger RTTaskAExp2 Prime_6N Target_6A hmlebcI kbfMhHi Congruent left correct Normal 437.5825
303 139 LeftLarger RTTaskAExp2 Prime_4A Target_9N jcHMEJa hjkMfcb Incongruent left correct Normal 445.149
303 140 LeftLarger RTTaskAExp2 Prime_4A Target_1A JakLcBd egGcBKD Congruent right correct Normal 416.7999
303 141 LeftLarger RTTaskAExp2 Prime_4N Target_4A DIedcaK aDJbegF Congruent right correct Normal 389.3506
303 142 LeftLarger RTTaskAExp2 Prime_1A Target_1A mCcIbFl IHAiMlK Congruent right correct Normal 577.6609
303 143 LeftLarger RTTaskAExp2 Prime_1N Target_1A DKEjLmM JFcBjdK Congruent right correct Normal 367.4297
303 144 LeftLarger RTTaskAExp2 Prime_4A Target_6N MJEFdLb AGEBIFb Incongruent left correct Normal 467.1062
303 145 LeftLarger RTTaskAExp2 Prime_9A Target_4N bjkEfBa abiEABD Incongruent right correct Normal 579.5118
303 146 LeftLarger RTTaskAExp2 Prime_9A Target_1A iKCagmH HFaGLEJ Incongruent right correct Normal 499.9178
303 147 LeftLarger RTTaskAExp2 Prime_6A Target_9N KgjALIC FjKClGk Congruent left correct Normal 488.5903
303 148 LeftLarger RTTaskAExp2 Prime_4N Target_6N IlkKHLC CGMdgLF Incongruent left correct Normal 519.5941
303 149 LeftLarger RTTaskAExp2 Prime_4A Target_6A dmMcKHk jJeBbgA Incongruent left correct Normal 518.2767
303 150 LeftSmaller RTTaskBPrac Prime_9N Target_6A KLmlFgi FGgiBCd Congruent right correct Normal 504.5263
303 151 LeftSmaller RTTaskBPrac Prime_4N Target_6A lbemhFJ jBCfMGl Incongruent right correct Normal 352.8203
303 152 LeftSmaller RTTaskBPrac Prime_4N Target_4N hcidlCj IFCBiKJ Congruent left correct Normal 376.8688
303 153 LeftSmaller RTTaskBPrac Prime_9A Target_6A FDhadLB AGmKHhM Congruent right correct Normal 406.5728
303 154 LeftSmaller RTTaskBPrac Prime_9N Target_4N IBAdJfD HGFijaC Incongruent left correct Normal 474.2048
303 155 LeftSmaller RTTaskBPrac Prime_6N Target_9A cdhaJCF iKkmaMj Congruent right correct Normal 413.95
303 156 LeftSmaller RTTaskBPrac Prime_6A Target_6A MFBmjel hDKjJfI Congruent right correct Normal 532.2717
303 157 LeftSmaller RTTaskBPrac Prime_4N Target_9A gEDAhFH kghMfbA Incongruent right correct Normal 417.2499
303 158 LeftSmaller RTTaskBPrac Prime_6N Target_9N dkGalEJ ejgCEdi Congruent right correct Normal 519.6698
303 159 LeftSmaller RTTaskBPrac Prime_4N Target_1A EFGCamg imEfkHL Congruent left correct Normal 374.2593
303 160 LeftSmaller RTTaskBPrac Prime_6N Target_1A IJceCjh cgLGHml Incongruent left correct Normal 307.4258
303 161 LeftSmaller RTTaskBPrac Prime_1N Target_1N hmILBjG LDdghGI Congruent left correct Normal 409.9672
303 162 LeftSmaller RTTaskBPrac Prime_4N Target_9N cgMLaEe IMgdhlE Incongruent right correct Normal 422.7824
303 163 LeftSmaller RTTaskBPrac Prime_9N Target_9N DaImHBf KBdMJHF Congruent right correct Normal 348.9173
303 164 LeftSmaller RTTaskBPrac Prime_4A Target_1N CHjIdfJ ImckaBd Congruent left correct Normal 502.7205
303 165 LeftSmaller RTTaskBPrac Prime_1A Target_1A EeGFgfA ChfcIkg Congruent left correct Normal 352.0902
303 166 LeftSmaller RTTaskBExp1 Prime_6A Target_9A gjBKbmM EFgIJki Congruent right correct Normal 417.2071
303 167 LeftSmaller RTTaskBExp1 Prime_9N Target_4A aceAKFB jhDiEGb Incongruent left correct Normal 719.5343
303 168 LeftSmaller RTTaskBExp1 Prime_4A Target_4N lcDIajk BHjgAlm Congruent left correct Normal 396.5391
303 169 LeftSmaller RTTaskBExp1 Prime_6A Target_4N dBDhCJH dJBKcAM Incongruent left correct Normal 414.2124
303 170 LeftSmaller RTTaskBExp1 Prime_4N Target_1N FaKMbDJ aEIDbmH Congruent left correct Normal 466.1301
303 171 LeftSmaller RTTaskBExp1 Prime_1A Target_6A hebCMkA flIFgDb Incongruent right correct Normal 440.0456
303 172 LeftSmaller RTTaskBExp1 Prime_1A Target_1N FLaAiGE LKibGgJ Congruent left correct Normal 498.5685
303 173 LeftSmaller RTTaskBExp1 Prime_6N Target_6N MLBIabf eiBFcKa Congruent right correct Normal 522.6179
303 174 LeftSmaller RTTaskBExp1 Prime_6A Target_1N jIcedmB MheAEFb Incongruent left correct Normal 461.3961
303 175 LeftSmaller RTTaskBExp1 Prime_4A Target_1A cEalkgI AjIgcbB Congruent left correct Normal 359.7745
303 176 LeftSmaller RTTaskBExp1 Prime_4N Target_9N cHAIFJE HdEADbf Incongruent right correct Normal 457.2433
303 177 LeftSmaller RTTaskBExp1 Prime_1N Target_6N cibAljD HIaebJj Incongruent right correct Normal 538.8078
303 178 LeftSmaller RTTaskBExp1 Prime_4N Target_4N khMEIiJ JfahceD Congruent left correct Normal 420.3349
303 179 LeftSmaller RTTaskBExp1 Prime_9N Target_9A dGCFgbi DBmFILc Congruent right correct Normal 372.2164
303 180 LeftSmaller RTTaskBExp1 Prime_9A Target_4A iHeIAcF EIdeAJF Incongruent left correct Normal 358.6618
303 181 LeftSmaller RTTaskBExp1 Prime_9N Target_1N mkjfGLH fcjkbgm Incongruent left correct Normal 433.6907
303 182 LeftSmaller RTTaskBExp1 Prime_9A Target_6A IDJCKlH IACmFJL Congruent right correct Normal 365.9701
303 183 LeftSmaller RTTaskBExp1 Prime_1A Target_9A BIMEaLG IGAgmjM Incongruent right correct Normal 382.8831
303 184 LeftSmaller RTTaskBExp1 Prime_6N Target_9N lBaMjmL aeimJhb Congruent right correct Normal 399.665
303 185 LeftSmaller RTTaskBExp1 Prime_1A Target_9N CAlemEB HgejKkl Incongruent right correct Normal 441.5912
303 186 LeftSmaller RTTaskBExp1 Prime_4A Target_1N daKEbGf ejaDCAI Congruent left correct Normal 337.5053
303 187 LeftSmaller RTTaskBExp1 Prime_4A Target_9A IBCFGbg dEILgDi Incongruent right correct Normal 431.3784
303 188 LeftSmaller RTTaskBExp1 Prime_9A Target_1N EedkhJf JBfjdlD Incongruent left correct Normal 515.9544
303 189 LeftSmaller RTTaskBExp1 Prime_4A Target_9N DFmAcgf ekfMagH Incongruent right correct Normal 486.3807
303 190 LeftSmaller RTTaskBExp1 Prime_4A Target_6N hcIaLCb FBfiLeG Incongruent left error Normal 517.9536
303 191 LeftSmaller RTTaskBExp1 Prime_1A Target_1A DkMmcJa AdbaKic Congruent left correct Normal 442.8393
303 192 LeftSmaller RTTaskBExp1 Prime_1N Target_1A EdGekiD bcfjJDI Congruent left correct Normal 409.0136
303 193 LeftSmaller RTTaskBExp1 Prime_1N Target_9N BADfjch iJlCGEA Incongruent right correct Normal 706.4918
303 194 LeftSmaller RTTaskBExp1 Prime_4N Target_9A AlHhdCM acHiAMg Incongruent right correct Normal 437.7128
303 195 LeftSmaller RTTaskBExp1 Prime_6A Target_6N EDKlFLa ckIbegh Congruent left error Normal 527.5708
303 196 LeftSmaller RTTaskBExp1 Prime_6A Target_4A dmHEKfI hdDABMb Incongruent left correct Normal 525.5767
303 197 LeftSmaller RTTaskBExp1 Prime_6A Target_1A ACKLdHj jeHfFci Incongruent left correct Normal 530.3446
303 198 LeftSmaller RTTaskBExp1 Prime_1A Target_4N MibmhjD hHBAFic Congruent left correct Normal 605.752
303 199 LeftSmaller RTTaskBExp1 Prime_4A Target_6N iCGMBla AdFjMJD Incongruent right correct Normal 468.069
303 200 LeftSmaller RTTaskBExp1 Prime_9A Target_6N GaClfBM AFKjDCJ Congruent right correct Normal 496.3529
303 201 LeftSmaller RTTaskBExp1 Prime_6N Target_4N MHAeLdj ckdibBa Incongruent left correct Normal 464.9761
303 202 LeftSmaller RTTaskBExp1 Prime_9N Target_9N GefKIbj LbegaEI Congruent right correct Normal 562.8153
303 203 LeftSmaller RTTaskBExp1 Prime_6N Target_1A LkaGijm amHIGKJ Incongruent left correct Normal 478.4994
303 204 LeftSmaller RTTaskBExp1 Prime_6N Target_1N mieJLfK MgFJLdb Incongruent left correct Normal 499.0251
303 205 LeftSmaller RTTaskBExp1 Prime_4A Target_4A GadbjAH hgmaKeb Congruent left correct Normal 677.78
303 206 LeftSmaller RTTaskBExp1 Prime_9N Target_6N CIilMmJ KHmigdE Congruent right correct Normal 565.995
303 207 LeftSmaller RTTaskBExp1 Prime_9A Target_9N HejlFgi afiIhdH Congruent right correct Normal 488.5294
303 208 LeftSmaller RTTaskBExp1 Prime_6A Target_6N aFlKACb LdGkEbe Congruent right correct Normal 602.6979
303 209 LeftSmaller RTTaskBExp1 Prime_9A Target_1A GDbhIBk geaKhfk Incongruent left correct Normal 420.877
303 210 LeftSmaller RTTaskBExp1 Prime_6N Target_9A EKgMJBl KaLDJMl Congruent right correct Normal 461.9142
303 211 LeftSmaller RTTaskBExp1 Prime_1A Target_6N kcfdiHE iEAdjJh Incongruent right correct Normal 669.9357
303 212 LeftSmaller RTTaskBExp1 Prime_4N Target_6A iJbAdkm fBmHkjJ Incongruent right correct Normal 410.1073
303 213 LeftSmaller RTTaskBExp1 Prime_1N Target_6A dfmgiEc IckJDjG Incongruent right correct Normal 369.572
303 214 LeftSmaller RTTaskBExp1 Prime_4N Target_1A IGkgDHm EKdifcH Congruent left correct Normal 392.4381
303 215 LeftSmaller RTTaskBExp1 Prime_4N Target_4A DIgCjMe hHcmeBA Congruent left correct Normal 512.9744
303 216 LeftSmaller RTTaskBExp1 Prime_4A Target_6A lHKMAIi JaILEfe Incongruent right correct Normal 412.6379
303 217 LeftSmaller RTTaskBExp1 Prime_1N Target_4A MiGCkBm HemEaLf Congruent left correct Normal 420.5678
303 218 LeftSmaller RTTaskBExp1 Prime_1A Target_4A icgJAeM fcLagCk Congruent left correct Normal 418.47
303 219 LeftSmaller RTTaskBExp1 Prime_6A Target_9N AIfbmhk aAKJidC Congruent right correct Normal 502.6257
303 220 LeftSmaller RTTaskBExp1 Prime_9A Target_9A AJHeGEj JlKEAbC Congruent right correct Normal 405.923
303 221 LeftSmaller RTTaskBExp1 Prime_1N Target_4N iMbCgac HKdlDJB Congruent left correct Normal 489.2969
303 222 LeftSmaller RTTaskBExp1 Prime_9N Target_4N gFcMhKH DmbIkgj Incongruent left correct Normal 510.4619
303 223 LeftSmaller RTTaskBExp1 Prime_6A Target_6A cmCJbBa eCliDGm Congruent right correct Normal 446.7988
303 224 LeftSmaller RTTaskBExp1 Prime_4N Target_6N HLdEJGK cmMjaFB Incongruent right correct Normal 519.7996
303 225 LeftSmaller RTTaskBExp1 Prime_1N Target_9A ajdbMKF eAglGbc Incongruent right correct Normal 402.516
303 226 LeftSmaller RTTaskBExp1 Prime_9A Target_4N fkiceAF AmkEjcH Incongruent left correct Normal 490.1609
303 227 LeftSmaller RTTaskBExp1 Prime_9N Target_1A aHfILKM Iiambdh Incongruent left correct Normal 461.4532
303 228 LeftSmaller RTTaskBExp1 Prime_6N Target_4A GEfbJjA MHFfcEI Incongruent left correct Normal 376.0057
303 229 LeftSmaller RTTaskBExp1 Prime_9N Target_6A ehkgEcd fhBielm Congruent right correct Normal 452.9189
303 230 LeftSmaller RTTaskBExp1 Prime_1N Target_1N hakiEfg JfKGdhH Congruent left correct Normal 521.7702
303 231 LeftSmaller RTTaskBExp1 Prime_6N Target_6A ieacMgI FdBemgf Congruent right correct Normal 433.6227
303 232 LeftSmaller RTTaskBExp2 Prime_1N Target_4N bDceLKB ejFHcMf Congruent left correct Normal 505.1748
303 233 LeftSmaller RTTaskBExp2 Prime_4A Target_4A BHChMbE ekmGBLA Congruent left correct Normal 414.7409
303 234 LeftSmaller RTTaskBExp2 Prime_4N Target_6A KhbMAfd mcJgBid Incongruent right correct Normal 419.1073
303 235 LeftSmaller RTTaskBExp2 Prime_9N Target_9N ieJdaKf aIHjkBE Congruent right correct Normal 414.287
303 236 LeftSmaller RTTaskBExp2 Prime_4N Target_1N eglbGac HBgfhjE Congruent left correct Normal 460.8567
303 237 LeftSmaller RTTaskBExp2 Prime_9N Target_1A jLabmiF gEKibme Incongruent left correct Normal 402.6903
303 238 LeftSmaller RTTaskBExp2 Prime_4A Target_1N MHDGkgA iIdAhBb Congruent left correct Normal 334.7807
303 239 LeftSmaller RTTaskBExp2 Prime_4N Target_9N kjaIBJl DaEJfdi Incongruent right correct Normal 400.5256
303 240 LeftSmaller RTTaskBExp2 Prime_1A Target_4N GhbBclM LGblmhg Congruent left correct Normal 404.0207
303 241 LeftSmaller RTTaskBExp2 Prime_9N Target_4A gAMfDhF hliaMKg Incongruent left correct Normal 389.345
303 242 LeftSmaller RTTaskBExp2 Prime_9A Target_6A cFEiDaf lFjfkLC Congruent right correct Normal 405.9564
303 243 LeftSmaller RTTaskBExp2 Prime_6A Target_1A khgLmia CKeAjJM Incongruent left correct Normal 394.1026
303 244 LeftSmaller RTTaskBExp2 Prime_1N Target_4A eGLIlHa hbLKDIg Congruent right error Normal 453.049
303 245 LeftSmaller RTTaskBExp2 Prime_9N Target_6N bIfEgCa ijdJMKb Congruent right correct Normal 500.0846
303 246 LeftSmaller RTTaskBExp2 Prime_4N Target_4A CBmhgFa lJHFajA Congruent left correct Normal 542.8667
303 247 LeftSmaller RTTaskBExp2 Prime_4N Target_4N DIfKCjm cbBjMmK Congruent left correct Normal 526.5355
303 248 LeftSmaller RTTaskBExp2 Prime_6A Target_4N amAeDJh mliaehD Incongruent left correct Normal 433.8376
303 249 LeftSmaller RTTaskBExp2 Prime_1N Target_1N hkBlbGH hbmEikf Congruent left correct Normal 499.6951
303 250 LeftSmaller RTTaskBExp2 Prime_1N Target_6N GhLdlcF dFDhKBc Incongruent right correct Normal 540.4122
303 251 LeftSmaller RTTaskBExp2 Prime_1N Target_6A fKeDIjG JfCEjcL Incongruent right correct Normal 365.1929
303 252 LeftSmaller RTTaskBExp2 Prime_9A Target_9A jmFbKhB HlcjbDh Congruent right correct Normal 657.122
303 253 LeftSmaller RTTaskBExp2 Prime_6A Target_1N EfIMLde AiLJjMf Incongruent left correct Normal 465.1615
303 254 LeftSmaller RTTaskBExp2 Prime_6A Target_6N CBbKAmG ijBlJgm Congruent right correct Normal 515.6609
303 255 LeftSmaller RTTaskBExp2 Prime_4A Target_6A IbikfEe jBFGKbg Incongruent right correct Normal 792.8657
303 256 LeftSmaller RTTaskBExp2 Prime_6N Target_9N gIcBlDh JcdkEbL Congruent right correct Normal 511.4211
303 257 LeftSmaller RTTaskBExp2 Prime_1A Target_1N EmfKiMg jEKHfah Congruent left correct Normal 477.46
303 258 LeftSmaller RTTaskBExp2 Prime_9N Target_1N CLefbai LIJgEkm Incongruent left correct Normal 510.3576
303 259 LeftSmaller RTTaskBExp2 Prime_9N Target_9A EaLlIJB lBgfeDk Congruent right correct Normal 552.9217
303 260 LeftSmaller RTTaskBExp2 Prime_6A Target_4A ALjibBH emCIGKA Incongruent left correct Normal 459.8357
303 261 LeftSmaller RTTaskBExp2 Prime_9A Target_9N JidcAGI AfgCkGm Congruent right correct Normal 446.2569
303 262 LeftSmaller RTTaskBExp2 Prime_9N Target_6A IiGeHCl FEicLMg Congruent right correct Normal 504.2744
303 263 LeftSmaller RTTaskBExp2 Prime_6N Target_4N fiJGClb Eefmchk Incongruent left correct Normal 450.9482
303 264 LeftSmaller RTTaskBExp2 Prime_6N Target_4A hIgDCeE DijAcba Incongruent left correct Normal 384.6207
303 265 LeftSmaller RTTaskBExp2 Prime_6A Target_6A KjLcbgD IcmgbME Congruent right correct Normal 419.0361
303 266 LeftSmaller RTTaskBExp2 Prime_1A Target_1A CJlAckf FEMKGiH Congruent left correct Normal 381.978
303 267 LeftSmaller RTTaskBExp2 Prime_9A Target_4N igLamfl iaCbEcA Incongruent left correct Normal 469.2433
303 268 LeftSmaller RTTaskBExp2 Prime_4A Target_9N FlefEBG kaKijFl Incongruent right correct Normal 449.1002
303 269 LeftSmaller RTTaskBExp2 Prime_9A Target_4A eMcImbg FlkjHgD Incongruent left correct Normal 471.6912
303 270 LeftSmaller RTTaskBExp2 Prime_9A Target_6N hCdBeEI dKmBDFe Congruent right correct Normal 556.8534
303 271 LeftSmaller RTTaskBExp2 Prime_1A Target_9A ClmDJGA bEFHBDj Incongruent right correct Normal 440.2712
303 272 LeftSmaller RTTaskBExp2 Prime_1N Target_1A KcgkLCh HJmBEbf Congruent left correct Normal 395.929
303 273 LeftSmaller RTTaskBExp2 Prime_1N Target_9N ajMJmHF gkKLlED Incongruent right correct Normal 463.1052
303 274 LeftSmaller RTTaskBExp2 Prime_1A Target_6A JKfCMAj jdEGCAf Incongruent right correct Normal 449.6128
303 275 LeftSmaller RTTaskBExp2 Prime_6N Target_9A fAGLkac imbeIhB Congruent right correct Normal 372.9459
303 276 LeftSmaller RTTaskBExp2 Prime_6N Target_1N LhbCKMG JhgkBAM Incongruent left correct Normal 488.37
303 277 LeftSmaller RTTaskBExp2 Prime_6A Target_9N melAcFb MgiaGmC Congruent right correct Normal 628.1374
303 278 LeftSmaller RTTaskBExp2 Prime_6N Target_6A JHcLKdl KifjJdC Congruent right correct Normal 429.6446
303 279 LeftSmaller RTTaskBExp2 Prime_9A Target_1N blgMhFC ALIgBej Incongruent left correct Normal 471.801
303 280 LeftSmaller RTTaskBExp2 Prime_4A Target_6N HmeJMbG aDEFCJB Incongruent right correct Normal 594.6283
303 281 LeftSmaller RTTaskBExp2 Prime_1A Target_9N ElcheBa dleCBhF Incongruent right correct Normal 472.6778
303 282 LeftSmaller RTTaskBExp2 Prime_6N Target_1A jJFGCif hHJKDeL Incongruent left correct Normal 483.1073
303 283 LeftSmaller RTTaskBExp2 Prime_4A Target_4N jkHDABE HcGElKI Congruent left correct Normal 489.0065
303 284 LeftSmaller RTTaskBExp2 Prime_1N Target_9A kflHaCD FHIgcmJ Incongruent right correct Normal 372.7887
303 285 LeftSmaller RTTaskBExp2 Prime_4N Target_6N ilgEfke BmMGfIL Incongruent right correct Normal 564.4815
303 286 LeftSmaller RTTaskBExp2 Prime_6A Target_9A ibKHBcj GLMHfia Congruent right correct Normal 394.5239
303 287 LeftSmaller RTTaskBExp2 Prime_9N Target_4N dBEDMFc hilemHE Incongruent left correct Normal 453.919
303 288 LeftSmaller RTTaskBExp2 Prime_1A Target_4A hFHglke mbcDFLf Congruent left correct Normal 387.5917
303 289 LeftSmaller RTTaskBExp2 Prime_1N Target_4A KECHalc LBfCMlg Congruent left correct Normal 330.2446
303 290 LeftSmaller RTTaskBExp2 Prime_4N Target_1A HAieJIL FiahcfM Congruent left correct Normal 380.7714
303 291 LeftSmaller RTTaskBExp2 Prime_9A Target_1A fmbEgcG EgJfmBG Incongruent left correct Normal 329.6084
303 292 LeftSmaller RTTaskBExp2 Prime_6N Target_6N HBjmaMc EkIMDLm Congruent right correct Normal 403.6221
303 293 LeftSmaller RTTaskBExp2 Prime_4A Target_1A LfAJklE LeFfClD Congruent left correct Normal 354.9213
303 294 LeftSmaller RTTaskBExp2 Prime_1A Target_6N afeJDmG iIbDAgG Incongruent right correct Normal 388.4435
303 295 LeftSmaller RTTaskBExp2 Prime_4A Target_9A McdaHDB fiaFIkE Incongruent right correct Normal 438.2256
303 296 LeftSmaller RTTaskBExp2 Prime_4N Target_9A maEJeAI JdAEGiC Incongruent right correct Normal 369.875
304 1 LeftLarger RTTaskAPrac Prime_6N Target_4N aiIjEeB gGBfjIM Incongruent right correct Normal 740.691
304 2 LeftLarger RTTaskAPrac Prime_9A Target_1N mBFJIMk fLlCiKJ Incongruent right correct Normal 574.0268
304 3 LeftLarger RTTaskAPrac Prime_1N Target_4A gJFjkHb aADebFk Congruent right correct Normal 847.8435
304 4 LeftLarger RTTaskAPrac Prime_1N Target_1N IlGHLDa DJKeLAg Congruent right correct Normal 513.8725
304 5 LeftLarger RTTaskAPrac Prime_1A Target_9N kBCieLJ eGbmjHh Incongruent left correct Normal 508.3037
304 6 LeftLarger RTTaskAPrac Prime_9N Target_1N MFBdmkc aLCfFil Incongruent right correct Normal 467.3315
304 7 LeftLarger RTTaskAPrac Prime_9N Target_4A fIDcjLl bjhCcBG Incongruent right correct Normal 914.4892
304 8 LeftLarger RTTaskAPrac Prime_9A Target_6A cbAiFag KHhBaIe Congruent left correct Normal 457.1229
304 9 LeftLarger RTTaskAPrac Prime_4A Target_1A jmKgMGa DifHmhF Congruent right correct Normal 458.7359
304 10 LeftLarger RTTaskAPrac Prime_4N Target_9A BaGhgMK mKAHagj Incongruent left correct Normal 343.8825
304 11 LeftLarger RTTaskAPrac Prime_9N Target_9A kJKEGBg cCiImHL Congruent left correct Normal 341.0456
304 12 LeftLarger RTTaskAPrac Prime_6N Target_1A FdkmAcC IFeKmbf Incongruent right correct Normal 419.23
304 13 LeftLarger RTTaskAPrac Prime_9A Target_9N djBDlgF kMlbHhK Congruent left correct Normal 474.3606
304 14 LeftLarger RTTaskAPrac Prime_4A Target_6N GCKkAlh LilAFeb Incongruent right error Normal 476.8934
304 15 LeftLarger RTTaskAPrac Prime_4A Target_9A EdMmiLk bcHElfe Incongruent left correct Normal 433.9697
304 16 LeftLarger RTTaskAPrac Prime_1N Target_6N deDAhGC eaIFBcl Incongruent right error Normal 622.4671
304 17 LeftLarger RTTaskAPrac Prime_4A Target_6N AGjmfBc GBLMjKI Incongruent left correct Normal 425.2081
304 18 LeftLarger RTTaskAPrac Prime_1N Target_6N KIbHMCD glcEbGB Incongruent left correct Normal 384.5136
304 19 LeftLarger RTTaskAExp1 Prime_6A Target_6A iJhLMbF kcmbHAg Congruent left correct Normal 465.4333
304 20 LeftLarger RTTaskAExp1 Prime_1A Target_9A bLmIGdK dFHgjDa Incongruent left correct Normal 359.8387
304 21 LeftLarger RTTaskAExp1 Prime_1N Target_4N bmIdKMe agbFfAl Congruent right correct Normal 494.4333
304 22 LeftLarger RTTaskAExp1 Prime_1N Target_9N aCMIHmD eBHbIDd Incongruent left correct Normal 432.1716
304 23 LeftLarger RTTaskAExp1 Prime_4N Target_4N GHejiJK BHLKdeh Congruent right correct Normal 496.795
304 24 LeftLarger RTTaskAExp1 Prime_4A Target_6N CjHDdEh cBLeKEA Incongruent left correct Normal 441.6449
304 25 LeftLarger RTTaskAExp1 Prime_6N Target_4A KkFJedG LImFblD Incongruent right correct Normal 514.5511
304 26 LeftLarger RTTaskAExp1 Prime_9N Target_4N gaHfhKA AdmcElM Incongruent right correct Normal 527.443
304 27 LeftLarger RTTaskAExp1 Prime_9A Target_9A dkjgKDb eigCDMh Congruent left correct Normal 338.3744
304 28 LeftLarger RTTaskAExp1 Prime_9N Target_9A blhFLCc jkFKDlc Congruent left correct Normal 492.1717
304 29 LeftLarger RTTaskAExp1 Prime_9A Target_1A BKLhdiH EkIfMCe Incongruent right correct Normal 400.335
304 30 LeftLarger RTTaskAExp1 Prime_4N Target_6N efjMiaF KCEeFcG Incongruent left correct Normal 478.63
304 31 LeftLarger RTTaskAExp1 Prime_9A Target_1N CiagJFb jIdFeDJ Incongruent right correct Normal 345.0111
304 32 LeftLarger RTTaskAExp1 Prime_9N Target_6A CgceKfj CHDBckm Congruent left correct Normal 380.2568
304 33 LeftLarger RTTaskAExp1 Prime_9N Target_9N HICchGA LEaeImA Congruent left correct Normal 439.5527
304 34 LeftLarger RTTaskAExp1 Prime_9N Target_4A icfbaAF cjEFhfg Incongruent right correct Normal 343.7617
304 35 LeftLarger RTTaskAExp1 Prime_1A Target_4A acmGDKI hGBFDcL Congruent right correct Normal 404.6713
304 36 LeftLarger RTTaskAExp1 Prime_4N Target_4A aMlEGBL eECLFbf Congruent right correct Normal 409.5462
304 37 LeftLarger RTTaskAExp1 Prime_4A Target_6A EiKcHfb DaGLCKA Incongruent left correct Normal 552.996
304 38 LeftLarger RTTaskAExp1 Prime_6A Target_4N JHAGFMj EBmeCjf Incongruent right correct Normal 596.6992
304 39 LeftLarger RTTaskAExp1 Prime_1N Target_1A ABgmeIL lEJdCmg Congruent right correct Normal 420.8605
304 40 LeftLarger RTTaskAExp1 Prime_6N Target_9A KmiEfDA FcEmiJL Congruent left correct Normal 384.163
304 41 LeftLarger RTTaskAExp1 Prime_6N Target_6N dhbKlCH lKaDmAc Congruent left correct Normal 576.8894
304 42 LeftLarger RTTaskAExp1 Prime_6N Target_1N BJaikLh ikJbgDE Incongruent right correct Normal 434.0852
304 43 LeftLarger RTTaskAExp1 Prime_1N Target_1N DMJhiCj cLKHlaM Congruent right correct Normal 613.7628
304 44 LeftLarger RTTaskAExp1 Prime_9A Target_6N gbDHFlj FaelKhi Congruent left correct Normal 564.6873
304 45 LeftLarger RTTaskAExp1 Prime_6N Target_9N CfeiHcG LBJKkDC Congruent left correct Normal 454.463
304 46 LeftLarger RTTaskAExp1 Prime_9N Target_6N fBbDMAj MKIfhJG Congruent left correct Normal 601.7603
304 47 LeftLarger RTTaskAExp1 Prime_1N Target_6N cMhibCa eHaGMkf Incongruent left correct Normal 366.5913
304 48 LeftLarger RTTaskAExp1 Prime_6A Target_1N mifaHIk LIamFhb Incongruent right correct Normal 454.9569
304 49 LeftLarger RTTaskAExp1 Prime_1A Target_6A fJFBIjC JgHfGmA Incongruent left correct Normal 358.6439
304 50 LeftLarger RTTaskAExp1 Prime_9A Target_6A JIHkbcB EbMmeIA Congruent left correct Normal 379.4456
304 51 LeftLarger RTTaskAExp1 Prime_4A Target_9A JADeMim amDjlHI Incongruent left correct Normal 427.4441
304 52 LeftLarger RTTaskAExp1 Prime_4N Target_1A mBJghbf ekBhgmL Congruent right correct Normal 441.2685
304 53 LeftLarger RTTaskAExp1 Prime_1N Target_4A ljmIkdD lDhaEKH Congruent right correct Normal 550.9391
304 54 LeftLarger RTTaskAExp1 Prime_1A Target_1A HhCkLgE eLmFEba Congruent right correct Normal 388.4763
304 55 LeftLarger RTTaskAExp1 Prime_4N Target_1N kfCMhDA IgeFiCl Congruent right correct Normal 494.4346
304 56 LeftLarger RTTaskAExp1 Prime_4A Target_4N KagkDJE laIeAkD Congruent right correct Normal 611.0467
304 57 LeftLarger RTTaskAExp1 Prime_6A Target_1A biMCLfB dHgaijl Incongruent right correct Normal 400.2322
304 58 LeftLarger RTTaskAExp1 Prime_9N Target_1N HDhgAEM bIfCeMm Incongruent right correct Normal 388.2474
304 59 LeftLarger RTTaskAExp1 Prime_4N Target_6A mlkKMCg HmCLFfa Incongruent left correct Normal 428.4169
304 60 LeftLarger RTTaskAExp1 Prime_4A Target_1N MDJcGLk GjkdlCK Congruent right correct Normal 441.4736
304 61 LeftLarger RTTaskAExp1 Prime_6N Target_6A dMLJcIk dcaEFlH Congruent left correct Normal 397.8899
304 62 LeftLarger RTTaskAExp1 Prime_4A Target_4A cDHIGmf IJMLigE Congruent right correct Normal 436.6589
304 63 LeftLarger RTTaskAExp1 Prime_9N Target_1A aGdkbEj GjmkiCK Incongruent right correct Normal 378.4997
304 64 LeftLarger RTTaskAExp1 Prime_6A Target_6N jAMHamd iJdkHFf Congruent left correct Normal 446.987
304 65 LeftLarger RTTaskAExp1 Prime_6A Target_9A LBlGfjg DLcjJHl Congruent left correct Normal 501.0265
304 66 LeftLarger RTTaskAExp1 Prime_6N Target_1A BLdCmAk JgjGikb Incongruent right correct Normal 397.3298
304 67 LeftLarger RTTaskAExp1 Prime_1A Target_4N mdibMEA HDFdaIb Congruent left error Normal 323.093
304 68 LeftLarger RTTaskAExp1 Prime_9A Target_4N FEdMmfc HIDLfhE Incongruent right correct Normal 761.3007
304 69 LeftLarger RTTaskAExp1 Prime_6N Target_4N eAmiGgF celJKgG Incongruent right correct Normal 530.9699
304 70 LeftLarger RTTaskAExp1 Prime_1N Target_9A mfaKeLF GIAFjmL Incongruent left correct Normal 411.3903
304 71 LeftLarger RTTaskAExp1 Prime_1A Target_9N ILeiGhB LiceBgJ Incongruent right error Late 10263.77
304 72 LeftLarger RTTaskAExp1 Prime_6A Target_4A iGkjfBe MhAmcLl Incongruent right correct Normal 495.178
304 73 LeftLarger RTTaskAExp1 Prime_1A Target_1N HDBLeGd KCjMIcA Congruent right correct Normal 480.4418
304 74 LeftLarger RTTaskAExp1 Prime_9A Target_4A MdfAHEb eGfJlKk Incongruent right correct Normal 436.8729
304 75 LeftLarger RTTaskAExp1 Prime_4N Target_9A aJBibeL debglFh Incongruent left correct Normal 431.8982
304 76 LeftLarger RTTaskAExp1 Prime_4A Target_1A CieIdJM FcmkBLD Congruent right correct Normal 422.8017
304 77 LeftLarger RTTaskAExp1 Prime_1A Target_4N IdbgJHf lLghCei Congruent right correct Normal 497.6994
304 78 LeftLarger RTTaskAExp1 Prime_1N Target_6A eljicmk MBlAGkf Incongruent left correct Normal 563.2908
304 79 LeftLarger RTTaskAExp1 Prime_6A Target_9N GlLhIMB kmbagBJ Congruent left correct Normal 487.1916
304 80 LeftLarger RTTaskAExp1 Prime_4A Target_9N CEMDchK GLckldM Incongruent left correct Normal 477.7373
304 81 LeftLarger RTTaskAExp1 Prime_1A Target_9N mIjgBKF dHEFBec Incongruent left correct Normal 399.027
304 82 LeftLarger RTTaskAExp1 Prime_4N Target_9N jAEeLak GlIjLme Incongruent left correct Normal 432.3046
304 83 LeftLarger RTTaskAExp1 Prime_1A Target_6N jJAChME mGMChkJ Incongruent left correct Normal 491.4811
304 84 LeftLarger RTTaskAExp1 Prime_9A Target_9N iLJgfMB KcIgiHd Congruent left correct Normal 405.4038
304 85 LeftLarger RTTaskAExp2 Prime_4A Target_6A bHjJBCe mfkJjBC Incongruent left correct Normal 442.9982
304 86 LeftLarger RTTaskAExp2 Prime_1N Target_4N IHfdBbk MbaecEL Congruent right correct Late 1311.479
304 87 LeftLarger RTTaskAExp2 Prime_4N Target_4N FbACdck bIagfem Congruent right correct Normal 453.7045
304 88 LeftLarger RTTaskAExp2 Prime_9N Target_4A aFBEbIK AdBeCFg Incongruent right correct Normal 536.5117
304 89 LeftLarger RTTaskAExp2 Prime_1A Target_9A HfAijCJ iJDlLaG Incongruent left correct Late 2769.164
304 90 LeftLarger RTTaskAExp2 Prime_9A Target_9N CeKbMFA gFicdJG Congruent left correct Normal 462.0384
304 91 LeftLarger RTTaskAExp2 Prime_1A Target_4A BKiIAfG EbBfJmd Congruent right correct Normal 446.3341
304 92 LeftLarger RTTaskAExp2 Prime_9N Target_1N bdEMKHC GHldeMA Incongruent right correct Normal 445.7937
304 93 LeftLarger RTTaskAExp2 Prime_1A Target_9A JIgfhcj FeLIKih Incongruent left correct Normal 333.8067
304 94 LeftLarger RTTaskAExp2 Prime_9A Target_1N KhaDAJC eCKbdLA Incongruent right correct Normal 410.3146
304 95 LeftLarger RTTaskAExp2 Prime_9N Target_9A dgiFGKJ LBACDim Congruent left correct Normal 348.1255
304 96 LeftLarger RTTaskAExp2 Prime_6N Target_6A ehaILkG BlEIfCh Congruent left correct Normal 459.4442
304 97 LeftLarger RTTaskAExp2 Prime_9N Target_6A HKIBlah lCJEhAb Congruent left correct Normal 398.0771
304 98 LeftLarger RTTaskAExp2 Prime_4N Target_9A gAJfmLE kCGabEh Incongruent left correct Normal 459.7716
304 99 LeftLarger RTTaskAExp2 Prime_9A Target_6A aKJcBmE GLAMbmi Congruent left correct Normal 399.5778
304 100 LeftLarger RTTaskAExp2 Prime_9A Target_9A DMmlHiI ELkdChJ Congruent left correct Normal 411.3178
304 101 LeftLarger RTTaskAExp2 Prime_6N Target_1A kjmliKc KadgBEb Incongruent right correct Normal 390.8582
304 102 LeftLarger RTTaskAExp2 Prime_9A Target_1A ILEaJKm KCaegci Incongruent right correct Normal 428.899
304 103 LeftLarger RTTaskAExp2 Prime_1N Target_9N CJKmABE lFCkebJ Incongruent left correct Normal 437.8122
304 104 LeftLarger RTTaskAExp2 Prime_6A Target_9A idLfKBk LfEihaF Congruent left correct Normal 514.6124
304 105 LeftLarger RTTaskAExp2 Prime_4N Target_9N ILJHgjG eKHdDAG Incongruent right error Normal 407.4011
304 106 LeftLarger RTTaskAExp2 Prime_9A Target_4A flDKLJF FladJMk Incongruent right correct Normal 502.2507
304 107 LeftLarger RTTaskAExp2 Prime_6A Target_1A cLadjKb JGDdaCi Incongruent right correct Normal 469.3235
304 108 LeftLarger RTTaskAExp2 Prime_6A Target_6N jLJblFc DFbGklc Congruent left correct Normal 386.2604
304 109 LeftLarger RTTaskAExp2 Prime_6A Target_1N kbfBEAi cGABadK Incongruent right correct Normal 468.0886
304 110 LeftLarger RTTaskAExp2 Prime_9A Target_6N IiKCEge FHbBaEA Congruent left correct Normal 490.5277
304 111 LeftLarger RTTaskAExp2 Prime_4A Target_1N jcgLHAE LGhJaMA Congruent right correct Normal 460.5349
304 112 LeftLarger RTTaskAExp2 Prime_1A Target_1N mdHCFiL amEcIHh Congruent right correct Normal 477.193
304 113 LeftLarger RTTaskAExp2 Prime_9N Target_1A cMeCGiK jfCJKec Incongruent right correct Normal 503.2297
304 114 LeftLarger RTTaskAExp2 Prime_4N Target_1A lcjDBIi MGkedAf Congruent right correct Normal 401.8915
304 115 LeftLarger RTTaskAExp2 Prime_6A Target_6A GLifmCd CiIeFBg Congruent left correct Normal 328.5677
304 116 LeftLarger RTTaskAExp2 Prime_6N Target_9A mKGgeEH JbemfkL Congruent left correct Normal 343.4873
304 117 LeftLarger RTTaskAExp2 Prime_1N Target_1A kHfKIgl eHFLGdh Congruent right correct Normal 381.2759
304 118 LeftLarger RTTaskAExp2 Prime_4A Target_1A HmDbMlh JIcAChb Congruent right correct Normal 408.3639
304 119 LeftLarger RTTaskAExp2 Prime_4N Target_4A BeAHLEk BfmMKCe Congruent right correct Normal 857.7007
304 120 LeftLarger RTTaskAExp2 Prime_6N Target_6N KBCdkEe BKgMHJc Congruent left correct Normal 617.8816
304 121 LeftLarger RTTaskAExp2 Prime_1N Target_6N CKaGIkm FbjJDfE Incongruent left correct Normal 419.5773
304 122 LeftLarger RTTaskAExp2 Prime_4N Target_6N eimjEDJ IgHjbmA Incongruent left correct Normal 503.0916
304 123 LeftLarger RTTaskAExp2 Prime_4N Target_6A LDaJMAf jkMHLiB Incongruent left correct Normal 461.6551
304 124 LeftLarger RTTaskAExp2 Prime_9N Target_4N eKbIdFE ElDmdJG Incongruent right correct Normal 902.5704
304 125 LeftLarger RTTaskAExp2 Prime_4A Target_4A ILglBAE lJHfBCg Congruent right correct Normal 333.3621
304 126 LeftLarger RTTaskAExp2 Prime_4N Target_9N iJhagHF dKcMmiH Incongruent left correct Normal 475.1504
304 127 LeftLarger RTTaskAExp2 Prime_1N Target_1N HJfiBCG edaIGfE Congruent right correct Normal 630.3211
304 128 LeftLarger RTTaskAExp2 Prime_4N Target_1N JAlhMmE jiLdaCH Congruent right correct Normal 473.9051
304 129 LeftLarger RTTaskAExp2 Prime_1A Target_6A eihkAEj GlFhjLC Incongruent left correct Normal 563.4001
304 130 LeftLarger RTTaskAExp2 Prime_1A Target_4N jafGMEJ KEbMeBj Congruent right correct Normal 591.0521
304 131 LeftLarger RTTaskAExp2 Prime_1N Target_4A acJifCA faejJIg Congruent left error Normal 391.8429
304 132 LeftLarger RTTaskAExp2 Prime_4A Target_9N HaIEDJm EJBebhl Incongruent left correct Normal 446.3933
304 133 LeftLarger RTTaskAExp2 Prime_1N Target_4A MdJEkAf hmkgGJM Congruent right correct Normal 478.4496
304 134 LeftLarger RTTaskAExp2 Prime_4A Target_6N jMKDehF HEMjkfL Incongruent left correct Normal 464.4923
304 135 LeftLarger RTTaskAExp2 Prime_6A Target_4N DkLdlhj EIfGdhe Incongruent right correct Normal 332.8987
304 136 LeftLarger RTTaskAExp2 Prime_6A Target_9N hGmlFAe hHMGKil Congruent left correct Normal 436.9533
304 137 LeftLarger RTTaskAExp2 Prime_6A Target_4A LlkfBKb DkgCEKe Incongruent right correct Normal 406.1012
304 138 LeftLarger RTTaskAExp2 Prime_9N Target_6N DmcLFki eCAKEdc Congruent left correct Normal 441.2715
304 139 LeftLarger RTTaskAExp2 Prime_6N Target_9N abgfcmL alDgedF Congruent left correct Normal 364.7773
304 140 LeftLarger RTTaskAExp2 Prime_1N Target_6A cedbCaH aMgclIj Incongruent left correct Normal 355.4669
304 141 LeftLarger RTTaskAExp2 Prime_1A Target_1A FfGbIih lmBFEhk Congruent right correct Normal 386.6396
304 142 LeftLarger RTTaskAExp2 Prime_4A Target_9A lGJLhMb lLMfEGm Incongruent left correct Normal 340.3039
304 143 LeftLarger RTTaskAExp2 Prime_4A Target_4N IkDdKJm DKHbLke Congruent right correct Normal 535.2076
304 144 LeftLarger RTTaskAExp2 Prime_1N Target_9A meEkhHa IMDElbA Incongruent left correct Normal 395.2654
304 145 LeftLarger RTTaskAExp2 Prime_6N Target_4A aeMGBlE DceJfld Incongruent right correct Normal 603.4135
304 146 LeftLarger RTTaskAExp2 Prime_1N Target_4N mcGMBeF mgadMLI Congruent right correct Normal 545.1031
304 147 LeftLarger RTTaskAExp2 Prime_9N Target_9N bDiJHcL KcFhJCf Congruent left correct Normal 542.0724
304 148 LeftLarger RTTaskAExp2 Prime_9A Target_4N ICKHABh BLJfaEk Incongruent right correct Normal 482.293
304 149 LeftLarger RTTaskAExp2 Prime_6N Target_4N FLGcJag BkAiDMK Incongruent right correct Normal 492.6978
304 150 LeftLarger RTTaskAExp2 Prime_1A Target_9N LHfAakG cEeGjBk Incongruent left correct Normal 607.864
304 151 LeftLarger RTTaskAExp2 Prime_6N Target_1N hgeDKFc JMHgKeI Incongruent right correct Normal 561.0581
304 152 LeftLarger RTTaskAExp2 Prime_1A Target_6N DhILHjm gIkAKCB Incongruent left correct Normal 619.609
304 153 LeftSmaller RTTaskBPrac Prime_1A Target_1A eHbjELl KmedGFa Congruent left correct Normal 689.8543
304 154 LeftSmaller RTTaskBPrac Prime_4A Target_9A CADkIGf jgEfLeJ Incongruent right correct Normal 447.296
304 155 LeftSmaller RTTaskBPrac Prime_6A Target_4N feCEDca JcMKali Incongruent left correct Normal 442.8984
304 156 LeftSmaller RTTaskBPrac Prime_6N Target_4N eiKmlIa DgJCAjm Incongruent left correct Normal 550.9102
304 157 LeftSmaller RTTaskBPrac Prime_1A Target_9N iLAgMjD gjAGbMi Incongruent right correct Normal 422.3188
304 158 LeftSmaller RTTaskBPrac Prime_4N Target_4N LHDGmfB gKAdaLE Congruent left correct Normal 377.3536
304 159 LeftSmaller RTTaskBPrac Prime_9N Target_1N MBadLKk cCEJIai Incongruent left correct Normal 526.1027
304 160 LeftSmaller RTTaskBPrac Prime_6N Target_9N ijegmfB dcGgIFf Congruent right correct Normal 379.4302
304 161 LeftSmaller RTTaskBPrac Prime_4N Target_9A KaEHDMG fDhFiBj Incongruent right correct Normal 521.6326
304 162 LeftSmaller RTTaskBPrac Prime_6A Target_4A DEIHdeK bFEIjLA Incongruent left correct Normal 404.0141
304 163 LeftSmaller RTTaskBPrac Prime_6N Target_4A FhDcECg bjBFeGf Incongruent left correct Normal 381.8022
304 164 LeftSmaller RTTaskBPrac Prime_6N Target_6A jGkfmLb cIACKfk Congruent right correct Normal 403.8822
304 165 LeftSmaller RTTaskBPrac Prime_6N Target_6N IiEgKJa gGfAkmH Congruent left error Normal 458.3744
304 166 LeftSmaller RTTaskBPrac Prime_1N Target_9N LiGfKBd KcHiflj Incongruent right correct Normal 445.2962
304 167 LeftSmaller RTTaskBPrac Prime_1N Target_9A bjJifCG fgBjLGJ Incongruent right correct Normal 462.1128
304 168 LeftSmaller RTTaskBPrac Prime_4N Target_1A CaMlidm hDjfcEH Congruent left correct Normal 443.1383
304 169 LeftSmaller RTTaskBPrac Prime_6N Target_6N JAHCEGF DLEjdBC Congruent right correct Normal 636.305
304 170 LeftSmaller RTTaskBExp1 Prime_6N Target_1A LbfEHMB MdKhHjk Incongruent left correct Normal 335.351
304 171 LeftSmaller RTTaskBExp1 Prime_1A Target_9N MHbfiFB IjGfiFB Incongruent right correct Normal 355.5075
304 172 LeftSmaller RTTaskBExp1 Prime_6A Target_6A DefIMbH JIHicEM Congruent right correct Normal 449.6289
304 173 LeftSmaller RTTaskBExp1 Prime_9A Target_1A kgIMBji lbEmkdI Incongruent left correct Normal 317.2254
304 174 LeftSmaller RTTaskBExp1 Prime_4N Target_1A AFlidGL MHFLjdE Congruent left correct Normal 381.9991
304 175 LeftSmaller RTTaskBExp1 Prime_4N Target_9N HmeEJIa dMefFEH Incongruent right correct Normal 412.5619
304 176 LeftSmaller RTTaskBExp1 Prime_4A Target_6N BikHGfL abjGeFI Incongruent right correct Normal 647.5941
304 177 LeftSmaller RTTaskBExp1 Prime_1A Target_6N cBMHKmf HADImJj Incongruent right correct Normal 466.3888
304 178 LeftSmaller RTTaskBExp1 Prime_4A Target_1N jLmAFlI DdJFbHe Congruent left correct Normal 440.6671
304 179 LeftSmaller RTTaskBExp1 Prime_4A Target_9N glbAcFk cdAjEDK Incongruent right correct Normal 417.407
304 180 LeftSmaller RTTaskBExp1 Prime_6A Target_4A ghkaIJB jCLefFg Incongruent left correct Normal 633.387
304 181 LeftSmaller RTTaskBExp1 Prime_6A Target_9N IBEdgil eJCFmad Congruent right correct Normal 453.0201
304 182 LeftSmaller RTTaskBExp1 Prime_9N Target_9N KEMlgih kefAJLh Congruent right correct Normal 435.0271
304 183 LeftSmaller RTTaskBExp1 Prime_1N Target_9A mfJbGDj bhMLIHk Incongruent right correct Normal 420.8688
304 184 LeftSmaller RTTaskBExp1 Prime_1N Target_9N KEimMbG KmJBfGD Incongruent right correct Normal 376.2338
304 185 LeftSmaller RTTaskBExp1 Prime_1A Target_1N alGEJLA cigjFHM Congruent left correct Normal 420.9713
304 186 LeftSmaller RTTaskBExp1 Prime_4A Target_6A GaeclbK bdDmHEA Incongruent right correct Normal 361.7256
304 187 LeftSmaller RTTaskBExp1 Prime_1A Target_4N KCHMIBE ALhIJCK Congruent left correct Normal 569.4011
304 188 LeftSmaller RTTaskBExp1 Prime_4N Target_4N keDgCEm KhJjmBC Congruent left correct Normal 508.9703
304 189 LeftSmaller RTTaskBExp1 Prime_6N Target_1N BfdKmFh flmKHMA Incongruent left correct Normal 505.5055
304 190 LeftSmaller RTTaskBExp1 Prime_1N Target_1N lhiLHBA cMGgFIe Congruent left correct Normal 441.0343
304 191 LeftSmaller RTTaskBExp1 Prime_9A Target_6A BGgfAKm MlIEdDg Congruent right correct Normal 385.4005
304 192 LeftSmaller RTTaskBExp1 Prime_9N Target_6N mfaLMHi ClKjIif Congruent right correct Normal 550.9795
304 193 LeftSmaller RTTaskBExp1 Prime_1A Target_9A eEKIcFH CDEAhBa Incongruent right correct Normal 492.3911
304 194 LeftSmaller RTTaskBExp1 Prime_4N Target_6N akMGAJg HDIhmlB Incongruent left error Normal 467.0419
304 195 LeftSmaller RTTaskBExp1 Prime_6A Target_1A JEHcbdF DJckmBH Incongruent left correct Normal 385.6357
304 196 LeftSmaller RTTaskBExp1 Prime_1N Target_1A hmAKfbF LBlMJhi Congruent left correct Normal 382.5193
304 197 LeftSmaller RTTaskBExp1 Prime_4N Target_4A BmCieHc haJgLIb Congruent right error Normal 339.5793
304 198 LeftSmaller RTTaskBExp1 Prime_6A Target_4N KhJeDfg HIDCLFf Incongruent left correct Normal 503.49
304 199 LeftSmaller RTTaskBExp1 Prime_6N Target_6N FcfiJME FHklbGm Congruent right correct Normal 445.8694
304 200 LeftSmaller RTTaskBExp1 Prime_6N Target_9N HIhCkJj MLfjiFa Congruent right correct Normal 507.0312
304 201 LeftSmaller RTTaskBExp1 Prime_4A Target_9A aDFbeJE gDjheCm Incongruent right correct Normal 453.2513
304 202 LeftSmaller RTTaskBExp1 Prime_1N Target_4A iMAcdka cAhmglI Congruent left correct Normal 387.7981
304 203 LeftSmaller RTTaskBExp1 Prime_4A Target_4A kFCaAhM IBlKMjd Congruent left correct Normal 383.7173
304 204 LeftSmaller RTTaskBExp1 Prime_1N Target_4N BJaEDcC EgGdcim Congruent left correct Normal 430.3828
304 205 LeftSmaller RTTaskBExp1 Prime_4N Target_4A aliADIC dLighlB Congruent left correct Normal 336.3066
304 206 LeftSmaller RTTaskBExp1 Prime_6N Target_6A EFJAjBc MFfiAHK Congruent right correct Normal 367.8225
304 207 LeftSmaller RTTaskBExp1 Prime_9N Target_4N mDMiaGj ajlfECe Incongruent left correct Normal 399.2099
304 208 LeftSmaller RTTaskBExp1 Prime_9A Target_9N fJeHILK HcBgJId Congruent right correct Normal 513.3507
304 209 LeftSmaller RTTaskBExp1 Prime_1N Target_6N KlIAbLk hIKaklm Incongruent right correct Normal 582.0535
304 210 LeftSmaller RTTaskBExp1 Prime_4N Target_6A EalJmHA DMkelFc Incongruent right correct Normal 535.8676
304 211 LeftSmaller RTTaskBExp1 Prime_6N Target_9A lBFAhHD DhEJgKm Congruent right correct Normal 498.7799
304 212 LeftSmaller RTTaskBExp1 Prime_9N Target_1A HLlIBJe EHhgCDa Incongruent left correct Normal 376.6797
304 213 LeftSmaller RTTaskBExp1 Prime_9N Target_9A FgmhfEA mfEcedk Congruent right correct Normal 358.3105
304 214 LeftSmaller RTTaskBExp1 Prime_9A Target_1N KfAGgbH dlBhDke Incongruent left correct Normal 478.0115
304 215 LeftSmaller RTTaskBExp1 Prime_4A Target_1A gJfdMaH hiaAGfb Congruent left correct Normal 425.0603
304 216 LeftSmaller RTTaskBExp1 Prime_6A Target_1N eLhBiMb lFfIJdk Incongruent left correct Normal 417.9239
304 217 LeftSmaller RTTaskBExp1 Prime_4A Target_4N gHiDlhd gEDmhKM Congruent left correct Normal 640.139
304 218 LeftSmaller RTTaskBExp1 Prime_4N Target_1N EbgFldG mBFjEcK Congruent left correct Normal 430.8013
304 219 LeftSmaller RTTaskBExp1 Prime_1N Target_6A fbiAMLk lFkDecC Incongruent right correct Normal 364.6073
304 220 LeftSmaller RTTaskBExp1 Prime_1A Target_1A EkgjcCl mceMiLB Congruent left correct Normal 406.0749
304 221 LeftSmaller RTTaskBExp1 Prime_9A Target_9A jJBHagb mclHFai Congruent right correct Normal 420.0486
304 222 LeftSmaller RTTaskBExp1 Prime_9A Target_6N efkKLAG iKHmIGL Congruent right correct Normal 597.0867
304 223 LeftSmaller RTTaskBExp1 Prime_6N Target_4A FdhBaGe JdFaLAE Incongruent left correct Normal 395.5233
304 224 LeftSmaller RTTaskBExp1 Prime_6A Target_6N KeJiCFa fjAldec Congruent right correct Normal 498.9163
304 225 LeftSmaller RTTaskBExp1 Prime_9N Target_4A DmcHJhf iHjMDFA Incongruent left correct Normal 368.9506
304 226 LeftSmaller RTTaskBExp1 Prime_9N Target_1N EekcCal MIeGEHg Incongruent left correct Normal 453.5912
304 227 LeftSmaller RTTaskBExp1 Prime_4N Target_6N mGecMJl BFLdfDl Incongruent right correct Normal 499.7589
304 228 LeftSmaller RTTaskBExp1 Prime_4N Target_9A MBGgIdc fHdBlGi Incongruent right correct Normal 492.4433
304 229 LeftSmaller RTTaskBExp1 Prime_9N Target_6A AlDifeb KckCLJh Congruent left error Normal 430.3727
304 230 LeftSmaller RTTaskBExp1 Prime_9N Target_6A BHeIGEF KaAIifF Congruent right correct Normal 451.4301
304 231 LeftSmaller RTTaskBExp1 Prime_6N Target_4N CEjBMgG hfLCJDc Incongruent left correct Normal 483.5861
304 232 LeftSmaller RTTaskBExp1 Prime_6A Target_9A cEfdHLB JcdmfLb Congruent right correct Normal 367.9979
304 233 LeftSmaller RTTaskBExp1 Prime_9A Target_4A MkEBcJj hcGMail Incongruent left correct Normal 468.9135
304 234 LeftSmaller RTTaskBExp1 Prime_1A Target_4A ihMLmKJ IKhCAJk Congruent left correct Normal 462.5132
304 235 LeftSmaller RTTaskBExp1 Prime_1A Target_6A FDCLjde EecHgbG Incongruent right correct Normal 392.7779
304 236 LeftSmaller RTTaskBExp1 Prime_9A Target_4N aAMKjiH LgCIehJ Incongruent left correct Normal 486.3596
304 237 LeftSmaller RTTaskBExp2 Prime_1N Target_1N jJemAHg LDJAmeh Congruent left correct Normal 455.6408
304 238 LeftSmaller RTTaskBExp2 Prime_1A Target_9N MCdHfJg dMkhHaD Incongruent right correct Normal 516.0661
304 239 LeftSmaller RTTaskBExp2 Prime_6N Target_9N JcjlLaG jBdkAFH Congruent right correct Normal 466.957
304 240 LeftSmaller RTTaskBExp2 Prime_6A Target_6N lfbmijD BDamlbI Congruent right correct Normal 681.7619
304 241 LeftSmaller RTTaskBExp2 Prime_9N Target_4A ceFEaLI dGELhMI Incongruent left correct Normal 364.6962
304 242 LeftSmaller RTTaskBExp2 Prime_6N Target_1N kfDdEmB ifGaAeK Incongruent left correct Normal 478.5981
304 243 LeftSmaller RTTaskBExp2 Prime_9N Target_4N DbfEehJ eGCHLAm Incongruent right error Normal 366.2134
304 244 LeftSmaller RTTaskBExp2 Prime_6A Target_4A IlJcFbj dfcJmKM Incongruent left correct Normal 377.2721
304 245 LeftSmaller RTTaskBExp2 Prime_4N Target_1A ImclAHJ iGcgBJH Congruent left correct Normal 356.7082
304 246 LeftSmaller RTTaskBExp2 Prime_1A Target_6A jLkMdDE lfIkche Incongruent right correct Normal 369.6018
304 247 LeftSmaller RTTaskBExp2 Prime_9A Target_4A lLGeIAB cjILlHE Incongruent left correct Normal 312.9094
304 248 LeftSmaller RTTaskBExp2 Prime_6N Target_6N kIhmMJi CacAjig Congruent right correct Normal 360.5859
304 249 LeftSmaller RTTaskBExp2 Prime_6N Target_6A diDMjCb hlDBmiL Congruent right correct Normal 360.7802
304 250 LeftSmaller RTTaskBExp2 Prime_9A Target_1N bClMaKJ giHFKLM Incongruent left correct Normal 436.0577
304 251 LeftSmaller RTTaskBExp2 Prime_6N Target_9A bhcjaMC jBKeHkl Congruent right correct Normal 355.4408
304 252 LeftSmaller RTTaskBExp2 Prime_1N Target_4N FHKmiLb kJIcKfe Congruent left correct Normal 406.5876
304 253 LeftSmaller RTTaskBExp2 Prime_1N Target_9A egLHijF HBIkaLi Incongruent right correct Normal 391.3106
304 254 LeftSmaller RTTaskBExp2 Prime_1A Target_6N JKleAcL cCakeJB Incongruent right correct Normal 620.5877
304 255 LeftSmaller RTTaskBExp2 Prime_9N Target_6A imMcLfC bmhdFjg Congruent right correct Normal 447.4667
304 256 LeftSmaller RTTaskBExp2 Prime_4A Target_4A fHIeBcM lFCkBjK Congruent left correct Normal 499.0309
304 257 LeftSmaller RTTaskBExp2 Prime_9N Target_6N mDGCkcH idfhHkM Congruent right correct Normal 421.9604
304 258 LeftSmaller RTTaskBExp2 Prime_1A Target_1A cJdbIAe eAJLkGf Congruent left correct Normal 394.8195
304 259 LeftSmaller RTTaskBExp2 Prime_6N Target_4N ifKEadA mGILack Incongruent left correct Normal 705.6589
304 260 LeftSmaller RTTaskBExp2 Prime_1N Target_4A akFBElA JeimkCb Congruent left correct Normal 395.8205
304 261 LeftSmaller RTTaskBExp2 Prime_9N Target_4N dKHMhaj gbfChDK Incongruent left correct Normal 564.9803
304 262 LeftSmaller RTTaskBExp2 Prime_4A Target_9A acdCiLK edMhjFE Incongruent right correct Normal 383.8989
304 263 LeftSmaller RTTaskBExp2 Prime_9N Target_1N JEKCjLA CchDfJB Incongruent left correct Normal 379.6099
304 264 LeftSmaller RTTaskBExp2 Prime_9N Target_9N IFDjlHL CDBMKAf Congruent right correct Normal 535.7066
304 265 LeftSmaller RTTaskBExp2 Prime_6A Target_9N JHbflEC MBEIHGD Congruent right correct Normal 589.9948
304 266 LeftSmaller RTTaskBExp2 Prime_6A Target_9A AaijMDd mFgIcle Congruent right correct Normal 432.1767
304 267 LeftSmaller RTTaskBExp2 Prime_1N Target_6N EMcDdGH hGbcJaC Incongruent right correct Normal 393.6105
304 268 LeftSmaller RTTaskBExp2 Prime_4A Target_6A CIlmhMF BkaHEic Incongruent right correct Normal 419.1429
304 269 LeftSmaller RTTaskBExp2 Prime_6A Target_6A bHKciEa kdmhEcB Congruent right correct Normal 365.6738
304 270 LeftSmaller RTTaskBExp2 Prime_1A Target_4A kMhBgLA HiMkLKb Congruent left correct Normal 559.531
304 271 LeftSmaller RTTaskBExp2 Prime_9N Target_1A HiMgcGl DMjhImb Incongruent left correct Normal 461.1247
304 272 LeftSmaller RTTaskBExp2 Prime_4N Target_4N femIhjJ EJldheA Congruent left correct Normal 506.1768
304 273 LeftSmaller RTTaskBExp2 Prime_4A Target_6N bJdIekf fiCLcbm Incongruent right correct Normal 426.4714
304 274 LeftSmaller RTTaskBExp2 Prime_6A Target_4N jKEkbDg cEgHKbA Incongruent left correct Normal 335.1256
304 275 LeftSmaller RTTaskBExp2 Prime_4N Target_4A GKgJBHI lmEkCeJ Congruent left correct Normal 383.1617
304 276 LeftSmaller RTTaskBExp2 Prime_9N Target_9A LHiMfIl dfamhgk Congruent right correct Normal 374.6606
304 277 LeftSmaller RTTaskBExp2 Prime_1A Target_9A LHbhfJa bcdCfmB Incongruent right correct Normal 484.7989
304 278 LeftSmaller RTTaskBExp2 Prime_1N Target_6A AEJDGHg lBgELDG Incongruent left error Normal 360.9818
304 279 LeftSmaller RTTaskBExp2 Prime_4N Target_9A cdKMLAk DAJGHEf Incongruent right correct Normal 456.8412
304 280 LeftSmaller RTTaskBExp2 Prime_4A Target_1A bCiglfd DKAjIbF Congruent left correct Normal 494.3672
304 281 LeftSmaller RTTaskBExp2 Prime_9A Target_6A hlbABIF KkiDHcE Congruent right correct Normal 562.1723
304 282 LeftSmaller RTTaskBExp2 Prime_6N Target_4A BcALehC lJCbdfE Incongruent left correct Normal 409.6377
304 283 LeftSmaller RTTaskBExp2 Prime_9A Target_6N IKGJmFk hMfmBEk Congruent right correct Normal 669.8614
304 284 LeftSmaller RTTaskBExp2 Prime_1A Target_4N hKjaIlF iKBacdE Congruent left correct Normal 504.671
304 285 LeftSmaller RTTaskBExp2 Prime_6A Target_1N HIjeMfi ajfLgKF Incongruent left correct Normal 509.8567
304 286 LeftSmaller RTTaskBExp2 Prime_1A Target_1N IJKglmh bDdIHkj Congruent left correct Normal 515.4681
304 287 LeftSmaller RTTaskBExp2 Prime_9A Target_1A iJGdElD GfebCch Incongruent left correct Normal 390.2934
304 288 LeftSmaller RTTaskBExp2 Prime_4A Target_1N JjBMLgE MkLDAeH Congruent left correct Normal 463.5668
304 289 LeftSmaller RTTaskBExp2 Prime_9A Target_9A AjMFaGK CmhBJif Congruent right correct Normal 389.6367
304 290 LeftSmaller RTTaskBExp2 Prime_6A Target_1A jmAeHdl mMfHlca Incongruent left correct Normal 323.5352
304 291 LeftSmaller RTTaskBExp2 Prime_1N Target_9N AfMbedL mlMdAgD Incongruent right correct Normal 483.5679
304 292 LeftSmaller RTTaskBExp2 Prime_1N Target_1A gcaJHGB clkiaKG Congruent left correct Normal 488.9842
304 293 LeftSmaller RTTaskBExp2 Prime_4N Target_6A hECfGDI bdDFfkg Incongruent right correct Normal 348.1752
304 294 LeftSmaller RTTaskBExp2 Prime_4A Target_4N IAbjcDB lhBdDjf Congruent left correct Normal 654.9244
304 295 LeftSmaller RTTaskBExp2 Prime_6N Target_1A McfHDGk lFMCeki Incongruent left correct Normal 396.5142
304 296 LeftSmaller RTTaskBExp2 Prime_4A Target_9N EHhdaFC jbFcfgM Incongruent right correct Normal 403.6621
304 297 LeftSmaller RTTaskBExp2 Prime_4N Target_9N bjahCJf dbChlFK Incongruent right correct Normal 549.9519
304 298 LeftSmaller RTTaskBExp2 Prime_1N Target_6A FjgidLE EeGcFBH Incongruent right correct Normal 486.7453
304 299 LeftSmaller RTTaskBExp2 Prime_9A Target_4N EFlAkjm fgFADcH Incongruent left correct Normal 602.4902
304 300 LeftSmaller RTTaskBExp2 Prime_4N Target_1N kaAcCEM GDbegCI Congruent left correct Normal 446.4414
304 301 LeftSmaller RTTaskBExp2 Prime_4N Target_6N gkLhjif kjaGhiJ Incongruent right correct Normal 530.7556
304 302 LeftSmaller RTTaskBExp2 Prime_9A Target_9N EfjhagL kFHfjJh Congruent right correct Normal 484.6327
305 1 LeftLarger RTTaskAPrac Prime_4N Target_6A mGkjCJK cBMiEhd Incongruent right error Late 4126.009
305 2 LeftLarger RTTaskAPrac Prime_1A Target_4A gMckECi jefmgkM Congruent right correct Late 1534.316
305 3 LeftLarger RTTaskAPrac Prime_1A Target_4A jLEDlHa iJadAkI Congruent right correct Normal 590.8595
305 4 LeftLarger RTTaskAPrac Prime_1N Target_6A EdFkglI MaiDKGC Incongruent left correct Normal 702.8102
305 5 LeftLarger RTTaskAPrac Prime_9A Target_9N kabjLFG AKmdchE Congruent left correct Late 1248.297
305 6 LeftLarger RTTaskAPrac Prime_4N Target_9A DhjIacf BiagjfH Incongruent left correct Normal 526.5118
305 7 LeftLarger RTTaskAPrac Prime_9A Target_6N FEgejbM kKmFalJ Congruent left correct Normal 925.6886
305 8 LeftLarger RTTaskAPrac Prime_1A Target_6N fBKgAbc MiLIdaE Incongruent left correct Normal 484.0935
305 9 LeftLarger RTTaskAPrac Prime_1N Target_4N lCfjMDa LgcBCIH Congruent right correct Normal 644.9408
305 10 LeftLarger RTTaskAPrac Prime_4A Target_9N iEmfIDj JbCiFGB Incongruent left correct Normal 510.1775
305 11 LeftLarger RTTaskAPrac Prime_9N Target_4A IbDGdcf JbEMFhf Incongruent right correct Normal 618.773
305 12 LeftLarger RTTaskAPrac Prime_1N Target_4A jDbIkMf AMhLHik Congruent right correct Normal 487.196
305 13 LeftLarger RTTaskAPrac Prime_9N Target_1N dcgJekG aLKCJFG Incongruent right correct Normal 651.4861
305 14 LeftLarger RTTaskAPrac Prime_4N Target_6A CHjmiLe kaHcJGg Incongruent left correct Normal 606.1336
305 15 LeftLarger RTTaskAPrac Prime_9A Target_4A jDlJaML LAjKEBa Incongruent right correct Normal 458.8213
305 16 LeftLarger RTTaskAPrac Prime_1N Target_1A Lkfbjdm GgBjdAc Congruent right correct Normal 674.3148
305 17 LeftLarger RTTaskAPrac Prime_9A Target_9N JFHLdlb lhbELDk Congruent left correct Normal 588.4523
305 18 LeftLarger RTTaskAPrac Prime_6N Target_1A cJEMalB hgEekBi Incongruent right correct Normal 547.187
305 19 LeftLarger RTTaskAPrac Prime_9A Target_6A hbBMcDE gdejBhc Congruent left correct Normal 550.927
305 20 LeftLarger RTTaskAExp1 Prime_9A Target_1N LbaIeBJ kAEHmCa Incongruent right correct Normal 529.9373
305 21 LeftLarger RTTaskAExp1 Prime_1A Target_4A CcBkKib aHKkglj Congruent right correct Normal 417.3834
305 22 LeftLarger RTTaskAExp1 Prime_1A Target_6N fCAliKc DhMmgHG Incongruent left correct Normal 478.4325
305 23 LeftLarger RTTaskAExp1 Prime_9N Target_6N IiHjGfF bHBLaMj Congruent left correct Normal 452.9178
305 24 LeftLarger RTTaskAExp1 Prime_6A Target_6A EMbCHiI kdHCAKi Congruent left correct Normal 466.3979
305 25 LeftLarger RTTaskAExp1 Prime_6N Target_4N Gadibec GedgKca Incongruent right correct Normal 515.8089
305 26 LeftLarger RTTaskAExp1 Prime_4A Target_6N JMLfhHk BbkjcdJ Incongruent left correct Normal 594.0845
305 27 LeftLarger RTTaskAExp1 Prime_1A Target_9N jMgDFkA hlFdMJa Incongruent left correct Normal 496.006
305 28 LeftLarger RTTaskAExp1 Prime_1N Target_6N LAiBDgj eBiCdFE Incongruent left correct Normal 480.9024
305 29 LeftLarger RTTaskAExp1 Prime_1N Target_4N jmdFkha ljkCMmb Congruent right correct Normal 478.7099
305 30 LeftLarger RTTaskAExp1 Prime_4N Target_4N MadIkhL eCfBELD Congruent right correct Normal 403.0996
305 31 LeftLarger RTTaskAExp1 Prime_1A Target_9A LmADIbG HGbDCeh Incongruent left correct Normal 488.035
305 32 LeftLarger RTTaskAExp1 Prime_1A Target_1A KdEIjML KLhMdHm Congruent right correct Normal 490.194
305 33 LeftLarger RTTaskAExp1 Prime_9N Target_1A EfACigK CmiBLIG Incongruent right correct Normal 421.7263
