sub trial_no group_type block_type prime target mask1 mask2 congruency key_press key_error time_error RT
801 1 LeftLarger RTTaskAPrac Prime_6N Target_6A jEkaGgB mjFDfGh Congruent left correct Late 2434.779
801 2 LeftLarger RTTaskAPrac Prime_1N Target_4N KEDMlgH kIgGceE Congruent right correct Normal 821.318
801 3 LeftLarger RTTaskAPrac Prime_6N Target_4N GmLKaAH lLedbgj Incongruent right correct Normal 964.0963
801 4 LeftLarger RTTaskAPrac Prime_1N Target_6A BdKEbcA cGikLMJ Incongruent left correct Normal 679.6639
801 5 LeftLarger RTTaskAPrac Prime_4N Target_1A DjdAmIF MHmKGbI Congruent right correct Normal 694.4432
801 6 LeftLarger RTTaskAPrac Prime_6A Target_4A dLHAflM HgDEdhM Incongruent right correct Normal 541.2302
801 7 LeftLarger RTTaskAPrac Prime_6N Target_9A IAbekgD KHGCeBF Congruent left correct Normal 416.5534
801 8 LeftLarger RTTaskAPrac Prime_1A Target_6A HJgEIAL fjCGdIm Incongruent left correct Normal 554.5465
801 9 LeftLarger RTTaskAPrac Prime_9N Target_6N dHhBMLD EjLeAiH Congruent left correct Normal 510.2369
801 10 LeftLarger RTTaskAPrac Prime_6N Target_6A FCKBIeD JChEmgK Congruent left correct Normal 510.5172
801 11 LeftLarger RTTaskAPrac Prime_1A Target_6N IhHeDEa GkbDaci Incongruent left correct Normal 418.0787
801 12 LeftLarger RTTaskAPrac Prime_9A Target_1A LAjlmHk DkcCiea Incongruent right correct Normal 404.5879
801 13 LeftLarger RTTaskAPrac Prime_6A Target_1N BDCiecg EfKkbBa Incongruent right correct Normal 503.2721
801 14 LeftLarger RTTaskAPrac Prime_4A Target_6A CBmFcIi fKFbMia Incongruent left correct Normal 428.4352
801 15 LeftLarger RTTaskAPrac Prime_4A Target_6N LlFKeMB gJKFciC Incongruent left correct Normal 706.3429
801 16 LeftLarger RTTaskAPrac Prime_4N Target_4N JgHbFlk FHGkfBg Congruent right correct Normal 399.7551
801 17 LeftLarger RTTaskAPrac Prime_1N Target_9N eChlcgD AgEmKeG Incongruent left correct Normal 487.2922
801 18 LeftLarger RTTaskAExp1 Prime_6N Target_9N FclfIKa DCMiEcd Congruent left correct Normal 553.8466
801 19 LeftLarger RTTaskAExp1 Prime_1N Target_4A ecEhlfi mcLKhBE Congruent right correct Normal 640.5713
801 20 LeftLarger RTTaskAExp1 Prime_4N Target_1A BHmfFGl mcIEDGe Congruent right correct Normal 547.9906
801 21 LeftLarger RTTaskAExp1 Prime_4N Target_4N mFcDHAM BEDCMbJ Congruent right correct Normal 439.7444
801 22 LeftLarger RTTaskAExp1 Prime_9N Target_4N hJHkgAF iEAfekD Incongruent right correct Normal 472.1911
801 23 LeftLarger RTTaskAExp1 Prime_6N Target_4A KLIbmiH JdDBgAL Incongruent right correct Normal 431.3598
801 24 LeftLarger RTTaskAExp1 Prime_1A Target_4A ljkJDeB meCaDkL Congruent right correct Normal 409.4331
801 25 LeftLarger RTTaskAExp1 Prime_4A Target_1N EdCMLha ijAaHBl Congruent right correct Normal 379.0379
801 26 LeftLarger RTTaskAExp1 Prime_6N Target_9A fiAMmLH LIdiHjJ Congruent left correct Normal 452.6099
801 27 LeftLarger RTTaskAExp1 Prime_4N Target_9A ldfaHBF cakhHBM Incongruent left correct Normal 478.0355
801 28 LeftLarger RTTaskAExp1 Prime_9A Target_4N fHcDMIL ImMadkD Incongruent right correct Normal 641.9457
801 29 LeftLarger RTTaskAExp1 Prime_9N Target_1A mBKeJHi FEMeBbH Incongruent right correct Normal 427.8531
801 30 LeftLarger RTTaskAExp1 Prime_6A Target_6N keBCLcd AGhcjCa Congruent left correct Normal 459.1068
801 31 LeftLarger RTTaskAExp1 Prime_4N Target_9N fcGajkd fFiDKhC Incongruent left correct Normal 481.3336
801 32 LeftLarger RTTaskAExp1 Prime_6N Target_6N LAjIEJh LmacEKe Congruent left correct Normal 696.7382
801 33 LeftLarger RTTaskAExp1 Prime_1N Target_9N hAILgKC lkfIeEC Incongruent left correct Normal 472.1472
801 34 LeftLarger RTTaskAExp1 Prime_9A Target_1N LAMmDHf JciCLal Incongruent left error Normal 364.8339
801 35 LeftLarger RTTaskAExp1 Prime_6A Target_6A leBkdHb edhijJE Congruent left correct Normal 454.9901
801 36 LeftLarger RTTaskAExp1 Prime_6A Target_1N JIjCHil AEKFCkf Incongruent right correct Normal 573.4406
801 37 LeftLarger RTTaskAExp1 Prime_1A Target_1A kgKLHbe iLKjmHC Congruent right correct Normal 356.8273
801 38 LeftLarger RTTaskAExp1 Prime_1A Target_9N GKJlDHi jIifdGL Incongruent left correct Normal 604.0072
801 39 LeftLarger RTTaskAExp1 Prime_1N Target_4N GCBjAeJ cmeDifF Congruent right correct Normal 730.6183
801 40 LeftLarger RTTaskAExp1 Prime_4N Target_6N IMHmCbD FAGDKfE Incongruent right error Normal 565.6559
801 41 LeftLarger RTTaskAExp1 Prime_6N Target_1A LbjkGlF BAmdMGJ Incongruent right correct Normal 493.4134
801 42 LeftLarger RTTaskAExp1 Prime_1N Target_1A BIbaFjl dKLeDfE Congruent right correct Normal 405.6975
801 43 LeftLarger RTTaskAExp1 Prime_6A Target_4A FghdAeE aKhcLAm Incongruent right correct Normal 577.641
801 44 LeftLarger RTTaskAExp1 Prime_1A Target_9A klHgcLJ jKAeadD Incongruent left correct Normal 419.5285
801 45 LeftLarger RTTaskAExp1 Prime_4A Target_4A DIKclEF mIEAMKC Congruent right correct Normal 512.6829
801 46 LeftLarger RTTaskAExp1 Prime_9A Target_4A lAMEjbJ mFJHcgG Incongruent right correct Normal 467.6349
801 47 LeftLarger RTTaskAExp1 Prime_6N Target_6A kiglmDF hcLgKIF Congruent right error Normal 471.5399
801 48 LeftLarger RTTaskAExp1 Prime_1N Target_6A BcGILbA dJGLelg Incongruent left correct Normal 554.8239
801 49 LeftLarger RTTaskAExp1 Prime_6N Target_6A LBlfdei dIbFJDm Congruent left correct Normal 505.5878
801 50 LeftLarger RTTaskAExp1 Prime_4A Target_9N fDbEelh LeEGbAh Incongruent left correct Normal 527.7317
801 51 LeftLarger RTTaskAExp1 Prime_4A Target_1A BAhJgFa iMBalfb Congruent right correct Normal 506.4526
801 52 LeftLarger RTTaskAExp1 Prime_9A Target_1N dhaHKeb bajAJGg Incongruent right correct Normal 567.6413
801 53 LeftLarger RTTaskAExp1 Prime_9A Target_1A LKhIdga AMJLmdK Incongruent right correct Normal 491.7913
801 54 LeftLarger RTTaskAExp1 Prime_6A Target_9N lmjIgJH GMHahEJ Congruent left correct Normal 506.7951
801 55 LeftLarger RTTaskAExp1 Prime_1A Target_6A dkCmejc LIKiEfb Incongruent left correct Normal 570.7459
801 56 LeftLarger RTTaskAExp1 Prime_1N Target_9A cMJlCgK lEFKAId Incongruent left correct Normal 410.1683
801 57 LeftLarger RTTaskAExp1 Prime_1N Target_1N aJHfLmC KCedcLj Congruent right correct Normal 543.353
801 58 LeftLarger RTTaskAExp1 Prime_6A Target_1A LdFDkHI bCmdLaG Incongruent right correct Normal 472.7577
801 59 LeftLarger RTTaskAExp1 Prime_9N Target_6N lKMDJkF EldAhHa Congruent left correct Normal 450.1401
801 60 LeftLarger RTTaskAExp1 Prime_9N Target_9N KigjFhA JLDMAIg Congruent left correct Normal 487.8513
801 61 LeftLarger RTTaskAExp1 Prime_9A Target_6A jaclfKg kljcGDh Congruent left correct Normal 555.7361
801 62 LeftLarger RTTaskAExp1 Prime_4A Target_6A edlhJaH JfIeBcH Incongruent left correct Normal 405.4657
801 63 LeftLarger RTTaskAExp1 Prime_4A Target_6N AKbGMBl mGbfJFB Incongruent left correct Normal 501.221
801 64 LeftLarger RTTaskAExp1 Prime_1A Target_6N gIldFhB IhmeMgG Incongruent left correct Normal 419.5608
801 65 LeftLarger RTTaskAExp1 Prime_9N Target_6A EHhfLBa FKjmMHf Congruent left correct Normal 419.7385
801 66 LeftLarger RTTaskAExp1 Prime_6A Target_9A aLjJdek lfFDhGB Congruent left correct Normal 484.7733
801 67 LeftLarger RTTaskAExp1 Prime_1A Target_1N jfkCBba agJmdGK Congruent right correct Normal 444.1452
801 68 LeftLarger RTTaskAExp1 Prime_4N Target_1N iKhfDFJ IiLMCjK Congruent right correct Normal 435.8741
801 69 LeftLarger RTTaskAExp1 Prime_9N Target_1N aeAJGdm LcAbEDC Incongruent right correct Normal 401.8287
801 70 LeftLarger RTTaskAExp1 Prime_6A Target_4N ecbiIMD gjAFLil Incongruent right correct Normal 606.639
801 71 LeftLarger RTTaskAExp1 Prime_4A Target_4N AdBaCKF bFJIdgj Congruent left error Normal 919.3828
801 72 LeftLarger RTTaskAExp1 Prime_6N Target_1N DkeHflj dimbeFL Incongruent right correct Normal 454.1087
801 73 LeftLarger RTTaskAExp1 Prime_4A Target_9A GailEmc ejlkmgF Incongruent left correct Normal 514.5579
801 74 LeftLarger RTTaskAExp1 Prime_9A Target_9A ihLkgbc AbGkcEm Congruent left correct Normal 451.0678
801 75 LeftLarger RTTaskAExp1 Prime_9N Target_9A fkBiLmb DkKbFBL Congruent left correct Normal 406.2187
801 76 LeftLarger RTTaskAExp1 Prime_4N Target_6A bhMAcGe dAekcbL Incongruent left correct Normal 548.1103
801 77 LeftLarger RTTaskAExp1 Prime_4N Target_6N EMHjADi KdCaBLE Incongruent left correct Normal 480.8301
801 78 LeftLarger RTTaskAExp1 Prime_4A Target_4N EFbBAKC bHkAjJE Congruent right correct Normal 583.7353
801 79 LeftLarger RTTaskAExp1 Prime_9N Target_4A lIgjEea EmfLAIi Incongruent right correct Normal 598.5355
801 80 LeftLarger RTTaskAExp1 Prime_9A Target_6N MikFHlc FciMEBK Congruent left correct Late 1357.32
801 81 LeftLarger RTTaskAExp1 Prime_1A Target_4N DKGjJme eIGMgba Congruent right correct Normal 662.5175
801 82 LeftLarger RTTaskAExp1 Prime_6N Target_4N akcClij MkHLiCG Incongruent right correct Normal 436.9564
801 83 LeftLarger RTTaskAExp1 Prime_1N Target_6N mejFkGf eKihIJE Incongruent left correct Normal 523.8766
801 84 LeftLarger RTTaskAExp1 Prime_4N Target_4A DLlKgAj aFAiIbG Congruent right correct Normal 474.6875
801 85 LeftLarger RTTaskAExp1 Prime_9A Target_9N AFbckKI FdDcKbf Congruent left correct Normal 423.6882
801 86 LeftLarger RTTaskAExp1 Prime_9A Target_6N cGibMfJ kafFHlI Congruent left correct Normal 739.6795
801 87 LeftLarger RTTaskAExp2 Prime_9A Target_4A hcfikJH HAIMeCc Incongruent right correct Normal 556.9995
801 88 LeftLarger RTTaskAExp2 Prime_6A Target_4A icHIDhe eflhCDK Incongruent right correct Normal 434.482
801 89 LeftLarger RTTaskAExp2 Prime_4A Target_6N DkbIcjd FidCgcb Incongruent right error Normal 548.4959
801 90 LeftLarger RTTaskAExp2 Prime_6N Target_1A dEemgKk kLgeFij Incongruent right correct Normal 459.9938
801 91 LeftLarger RTTaskAExp2 Prime_9A Target_1N DbkIhHf dJEkica Incongruent right correct Normal 496.4533
801 92 LeftLarger RTTaskAExp2 Prime_9A Target_9N DBfmIHd bJBDkga Congruent left correct Normal 589.8289
801 93 LeftLarger RTTaskAExp2 Prime_6A Target_6A DHbFBeA Kdhkbam Congruent left correct Normal 466.509
801 94 LeftLarger RTTaskAExp2 Prime_9A Target_9A iIjkMbF lDkciCh Congruent left correct Normal 455.3241
801 95 LeftLarger RTTaskAExp2 Prime_4A Target_6N kmAbBFH diDKbBA Incongruent left correct Normal 497.223
801 96 LeftLarger RTTaskAExp2 Prime_1N Target_1N dacmgEI dcfHmhe Congruent right correct Normal 555.2641
801 97 LeftLarger RTTaskAExp2 Prime_1N Target_6A JkcfGha ekGLfEh Incongruent left correct Normal 562.8966
801 98 LeftLarger RTTaskAExp2 Prime_1A Target_4N iHGfcAE GBIAmjf Congruent right correct Normal 533.6125
801 99 LeftLarger RTTaskAExp2 Prime_1N Target_9A FiAhCGg amLbEil Incongruent left correct Normal 483.0235
801 100 LeftLarger RTTaskAExp2 Prime_1A Target_4A hjiMIHE mLeMgfA Congruent right correct Normal 449.1864
801 101 LeftLarger RTTaskAExp2 Prime_9A Target_6A JGlLgEB eHklBbE Congruent left correct Normal 512.3466
801 102 LeftLarger RTTaskAExp2 Prime_4A Target_4N hGMFkgc kDGCFHM Congruent right correct Normal 593.7937
801 103 LeftLarger RTTaskAExp2 Prime_4N Target_6N FgIjHCf GdMalFh Incongruent left correct Normal 575.6741
801 104 LeftLarger RTTaskAExp2 Prime_4N Target_6A JdiKabG JGmaDHE Incongruent left correct Normal 469.6996
801 105 LeftLarger RTTaskAExp2 Prime_1A Target_6N eaFJkAd Ijidleh Incongruent left correct Normal 509.3753
801 106 LeftLarger RTTaskAExp2 Prime_1A Target_9A cAKbiak eDLIlcg Incongruent left correct Normal 449.1747
801 107 LeftLarger RTTaskAExp2 Prime_6N Target_1N LebGHgA EeBaGJA Incongruent right correct Normal 503.2349
801 108 LeftLarger RTTaskAExp2 Prime_9N Target_6A IfamMCL aCDdmIg Congruent left correct Normal 523.1339
801 109 LeftLarger RTTaskAExp2 Prime_1N Target_1A DKLgCEj GfCkKFD Congruent right correct Normal 468.2955
801 110 LeftLarger RTTaskAExp2 Prime_4N Target_1N DJeEjml KJIeGah Congruent right correct Normal 476.2064
801 111 LeftLarger RTTaskAExp2 Prime_9N Target_9N jgMCaHE HeDhgBC Congruent left correct Normal 464.5942
801 112 LeftLarger RTTaskAExp2 Prime_9A Target_6N jFBiGkK maGkHLd Congruent left correct Normal 562.0673
801 113 LeftLarger RTTaskAExp2 Prime_1A Target_9N JcMaABl IljAmcd Incongruent left correct Normal 523.9674
801 114 LeftLarger RTTaskAExp2 Prime_9N Target_4A lBacFim MKjHbfi Incongruent right correct Normal 460.5257
801 115 LeftLarger RTTaskAExp2 Prime_9N Target_1N FilbkKH IBgkLFK Incongruent right correct Normal 506.1274
801 116 LeftLarger RTTaskAExp2 Prime_1N Target_4A gkjFJeB imjfdJh Congruent right correct Normal 495.736
801 117 LeftLarger RTTaskAExp2 Prime_4A Target_6A HcKbLim aIBGDMH Incongruent left correct Normal 452.6324
801 118 LeftLarger RTTaskAExp2 Prime_9N Target_1A CLEABDh Lgfdbjh Incongruent right correct Normal 525.3279
801 119 LeftLarger RTTaskAExp2 Prime_1N Target_9N aeAGcbg jlCihGM Incongruent left correct Normal 534.9543
801 120 LeftLarger RTTaskAExp2 Prime_6A Target_6N IacLJBk BLmCiFK Congruent left correct Normal 461.0892
801 121 LeftLarger RTTaskAExp2 Prime_6A Target_1A IkMFDHa cKDbJfH Incongruent right correct Normal 502.7999
801 122 LeftLarger RTTaskAExp2 Prime_6N Target_4N jJbiKlH GhIABbK Incongruent right correct Normal 651.4586
801 123 LeftLarger RTTaskAExp2 Prime_9A Target_1A mJCbKDM BajkdeH Incongruent right correct Normal 483.1392
801 124 LeftLarger RTTaskAExp2 Prime_6N Target_6A GaegEKH JKFiGAD Congruent left correct Normal 660.0555
801 125 LeftLarger RTTaskAExp2 Prime_9A Target_4N JafDLkG mjIdcak Incongruent right correct Normal 510.4887
801 126 LeftLarger RTTaskAExp2 Prime_6N Target_6N lfBkhGC mLFicGj Congruent left correct Normal 447.3812
801 127 LeftLarger RTTaskAExp2 Prime_6N Target_9A MflBagJ ChHlabB Congruent left correct Normal 439.4195
801 128 LeftLarger RTTaskAExp2 Prime_4N Target_9N gCaGDfk dIjEkfb Incongruent left correct Normal 457.6264
801 129 LeftLarger RTTaskAExp2 Prime_6N Target_9N DIcbiBd jaLJBDC Congruent left correct Normal 439.533
801 130 LeftLarger RTTaskAExp2 Prime_4N Target_9A FJlMdjD iMfkFAI Incongruent left correct Normal 472.9409
801 131 LeftLarger RTTaskAExp2 Prime_4A Target_1N CicGkLj CJgheIF Congruent right correct Normal 490.1012
801 132 LeftLarger RTTaskAExp2 Prime_6N Target_4A mdIgiMJ kcAEMjK Incongruent right correct Normal 480.3863
801 133 LeftLarger RTTaskAExp2 Prime_4A Target_9A ICfgmdG LaHGBAD Incongruent left correct Normal 559.8029
801 134 LeftLarger RTTaskAExp2 Prime_6A Target_9A FBgkCbK FHBEkCg Congruent left correct Normal 468.6024
801 135 LeftLarger RTTaskAExp2 Prime_4A Target_1A KmbaEHB aDjbemk Congruent right correct Normal 430.156
801 136 LeftLarger RTTaskAExp2 Prime_9N Target_6N mEkdiLJ MfFcghE Congruent left correct Normal 643.7892
801 137 LeftLarger RTTaskAExp2 Prime_1A Target_1A dDAEIeH AacDKJE Congruent right correct Normal 368.3702
801 138 LeftLarger RTTaskAExp2 Prime_4N Target_1A fDcMlBJ BEKmglI Congruent right correct Normal 355.5206
801 139 LeftLarger RTTaskAExp2 Prime_9N Target_4N MEDgFcB KaFkiLm Incongruent right correct Normal 492.672
801 140 LeftLarger RTTaskAExp2 Prime_6A Target_4N leDKJBi ijEbLhg Incongruent right correct Normal 531.6122
801 141 LeftLarger RTTaskAExp2 Prime_4A Target_9N MJAgCDF AjkGCdi Incongruent left correct Normal 450.1482
801 142 LeftLarger RTTaskAExp2 Prime_1A Target_1N aeCghdJ ebmlhHE Congruent right correct Normal 425.1702
801 143 LeftLarger RTTaskAExp2 Prime_1N Target_4N meJMGlb baFIJiL Congruent right correct Normal 522.0545
801 144 LeftLarger RTTaskAExp2 Prime_4N Target_4A DdmaLiE clIDELG Congruent right correct Normal 428.0789
801 145 LeftLarger RTTaskAExp2 Prime_6A Target_1N AbGjLeH lCfIkhG Incongruent right correct Normal 411.4327
801 146 LeftLarger RTTaskAExp2 Prime_6A Target_9N AKBfJDM GBilMmd Congruent left correct Normal 612.1034
801 147 LeftLarger RTTaskAExp2 Prime_1A Target_6A MbmCEcA aAGEIeC Incongruent left correct Normal 651.2546
801 148 LeftLarger RTTaskAExp2 Prime_4N Target_4N CgefHaD FCEdhmB Congruent right correct Normal 593.4409
801 149 LeftLarger RTTaskAExp2 Prime_9N Target_9A kJhEbid cjeEhHG Congruent left correct Normal 416.3548
801 150 LeftLarger RTTaskAExp2 Prime_4A Target_4A IGflLki DbkcieM Congruent right correct Normal 382.2215
801 151 LeftLarger RTTaskAExp2 Prime_1N Target_6N FeMfIlE eFbGJgI Incongruent left correct Normal 552.2143
801 152 LeftSmaller RTTaskBPrac Prime_4N Target_1N ghjCJlD fgiFEJM Congruent left correct Normal 550.3852
801 153 LeftSmaller RTTaskBPrac Prime_6A Target_4N dgDaiBG KiDJmEC Incongruent left correct Normal 449.3189
801 154 LeftSmaller RTTaskBPrac Prime_1A Target_1A cMCJlKf MBakEHF Congruent left correct Normal 334.6195
801 155 LeftSmaller RTTaskBPrac Prime_6N Target_4A mDgBCej KcLEbGk Incongruent left correct Normal 478.7858
801 156 LeftSmaller RTTaskBPrac Prime_4N Target_6N MjfDFcm MBiHbhK Incongruent right correct Normal 455.0713
801 157 LeftSmaller RTTaskBPrac Prime_9N Target_4A KcMfLIE gJKhBIi Incongruent left correct Normal 610.2411
801 158 LeftSmaller RTTaskBPrac Prime_9A Target_9A BeKEmDa eMmjabA Congruent right correct Normal 415.2902
801 159 LeftSmaller RTTaskBPrac Prime_6A Target_4A abEICgj fcgBAdb Incongruent left correct Normal 442.5628
801 160 LeftSmaller RTTaskBPrac Prime_9N Target_6N AfmjEBH gCeKEHb Congruent right correct Normal 456.1139
801 161 LeftSmaller RTTaskBPrac Prime_6N Target_1N JHABiIa EBdbHDL Incongruent left correct Normal 382.3273
801 162 LeftSmaller RTTaskBPrac Prime_6A Target_1N lajeLBH djceGiK Incongruent left correct Normal 471.0636
801 163 LeftSmaller RTTaskBPrac Prime_4A Target_4N fcaKdkD fdDHECL Congruent left correct Normal 445.3465
801 164 LeftSmaller RTTaskBPrac Prime_4N Target_9N HhiJdKm glkCJGe Incongruent right correct Normal 494.9478
801 165 LeftSmaller RTTaskBPrac Prime_4A Target_6A GcbBDIe iJLKgHF Incongruent right correct Normal 723.006
801 166 LeftSmaller RTTaskBPrac Prime_1N Target_6N GebajDH EIjGeJl Incongruent right correct Normal 613.2116
801 167 LeftSmaller RTTaskBPrac Prime_9N Target_9N MJFgEBD KIJfeMC Congruent right correct Normal 489.7743
801 168 LeftSmaller RTTaskBExp1 Prime_1A Target_6N bEGgcCD fmDKIFb Incongruent right correct Normal 577.805
801 169 LeftSmaller RTTaskBExp1 Prime_1N Target_1A JmDKhEA kgFhJEL Congruent left correct Normal 391.2786
801 170 LeftSmaller RTTaskBExp1 Prime_4N Target_1A HkcGCaL jGhDgka Congruent left correct Normal 366.1669
801 171 LeftSmaller RTTaskBExp1 Prime_4A Target_4A EhiklCb caFfMeH Congruent left correct Normal 421.8694
801 172 LeftSmaller RTTaskBExp1 Prime_4A Target_6A jafeldc LfgKiCM Incongruent right correct Normal 509.4316
801 173 LeftSmaller RTTaskBExp1 Prime_1N Target_1N JbMFHaK CcdHJMI Congruent left correct Normal 438.0767
801 174 LeftSmaller RTTaskBExp1 Prime_4N Target_6N FKCMGmj BaDKkIf Incongruent right correct Normal 524.4808
801 175 LeftSmaller RTTaskBExp1 Prime_9A Target_1N idHICGl GFmdJcD Incongruent right error Normal 569.2773
801 176 LeftSmaller RTTaskBExp1 Prime_6A Target_9N DmJMGdb eLbajJd Congruent right correct Normal 567.4085
801 177 LeftSmaller RTTaskBExp1 Prime_4N Target_4N ekjBGAm geaIjcG Congruent left correct Normal 438.9978
801 178 LeftSmaller RTTaskBExp1 Prime_1A Target_1N hCFbicD ledjDEH Congruent left correct Normal 501.7408
801 179 LeftSmaller RTTaskBExp1 Prime_6A Target_4N gHiCDjb cjidGaH Incongruent left correct Normal 566.7868
801 180 LeftSmaller RTTaskBExp1 Prime_4A Target_1A fmcjhid BhKJicE Congruent left correct Normal 397.6393
801 181 LeftSmaller RTTaskBExp1 Prime_4A Target_9N aLGAJjg AdKHbJC Incongruent right correct Normal 609.2257
801 182 LeftSmaller RTTaskBExp1 Prime_6A Target_6N gCGkLFE maCFADH Congruent right correct Normal 544.5843
801 183 LeftSmaller RTTaskBExp1 Prime_4A Target_9A cICBkDE dLjmMHf Incongruent right correct Normal 516.6065
801 184 LeftSmaller RTTaskBExp1 Prime_1N Target_6A mhIFikj iHlmcbM Incongruent left error Normal 604.0462
801 185 LeftSmaller RTTaskBExp1 Prime_1N Target_9N kDJEIHe idJLlME Incongruent right correct Normal 511.3541
801 186 LeftSmaller RTTaskBExp1 Prime_1N Target_9A FKlABfk cIbKHkM Incongruent right correct Normal 714.0901
801 187 LeftSmaller RTTaskBExp1 Prime_1A Target_9N JcgAMbe heBEjkD Incongruent right correct Normal 585.826
801 188 LeftSmaller RTTaskBExp1 Prime_6N Target_1N mEAGKLh ACMkaLe Incongruent left correct Normal 453.1123
801 189 LeftSmaller RTTaskBExp1 Prime_9N Target_6A DkMEfBd dIcMakg Congruent right correct Normal 806.3908
801 190 LeftSmaller RTTaskBExp1 Prime_9A Target_9N GiJFhIg MCkifmH Congruent right correct Normal 615.3236
801 191 LeftSmaller RTTaskBExp1 Prime_6N Target_9A IKFJkhg kehFAMD Congruent right correct Normal 419.6151
801 192 LeftSmaller RTTaskBExp1 Prime_4N Target_1N bcFMADf iMBhHfj Congruent left correct Normal 409.6123
801 193 LeftSmaller RTTaskBExp1 Prime_4A Target_6N GfehMdb cCFGAmJ Incongruent right correct Normal 594.8264
801 194 LeftSmaller RTTaskBExp1 Prime_4A Target_4N hDimHFC CfJaDKc Congruent left correct Normal 551.2494
801 195 LeftSmaller RTTaskBExp1 Prime_9N Target_9A eEIlfGk AmcFgDH Congruent right correct Normal 584.768
801 196 LeftSmaller RTTaskBExp1 Prime_6N Target_1A cklhKmj HDkKgAb Incongruent left correct Normal 409.5922
801 197 LeftSmaller RTTaskBExp1 Prime_1N Target_4A MglKGCI iLmcKgH Congruent left correct Normal 687.5879
801 198 LeftSmaller RTTaskBExp1 Prime_9A Target_4A MfbLgdI bGeMFDA Incongruent left correct Normal 483.5468
801 199 LeftSmaller RTTaskBExp1 Prime_4N Target_6A gdlMiBa lJkHMBd Incongruent right correct Normal 519.5627
801 200 LeftSmaller RTTaskBExp1 Prime_6N Target_4A MKcFfeH AKLjkJh Incongruent left correct Normal 574.7333
801 201 LeftSmaller RTTaskBExp1 Prime_6N Target_9N AEMhlbc GCaBcei Congruent right correct Normal 582.4046
801 202 LeftSmaller RTTaskBExp1 Prime_1N Target_4N FgADGKE heDcIGH Congruent left correct Normal 578.035
801 203 LeftSmaller RTTaskBExp1 Prime_6N Target_4N DchLmaf BICkbHl Incongruent left correct Normal 540.5098
801 204 LeftSmaller RTTaskBExp1 Prime_6A Target_9A EfeghAk JdLHBEc Congruent right correct Normal 459.7466
801 205 LeftSmaller RTTaskBExp1 Prime_6A Target_1N BJacfeI IfecjlD Incongruent left correct Normal 485.8293
801 206 LeftSmaller RTTaskBExp1 Prime_4A Target_1N mcjedhk iJgKECf Congruent left correct Normal 433.235
801 207 LeftSmaller RTTaskBExp1 Prime_1A Target_4A LmMeHlf cBiaGMJ Congruent left correct Normal 700.851
801 208 LeftSmaller RTTaskBExp1 Prime_1N Target_6N MdKDkGc GjmBlMb Incongruent right correct Normal 514.2166
801 209 LeftSmaller RTTaskBExp1 Prime_1A Target_4N BFglKId JajKAid Congruent left correct Normal 551.6374
801 210 LeftSmaller RTTaskBExp1 Prime_6A Target_6A mFiCJcD flmGCbF Congruent right correct Normal 644.526
801 211 LeftSmaller RTTaskBExp1 Prime_1A Target_6A EDeCmLk iBgIDLa Incongruent right correct Normal 488.5361
801 212 LeftSmaller RTTaskBExp1 Prime_9N Target_6N lDJkaBd jCgcdLG Congruent right correct Normal 491.6958
801 213 LeftSmaller RTTaskBExp1 Prime_9N Target_4A cHdAiKE HmKaIJl Incongruent left correct Normal 438.3076
801 214 LeftSmaller RTTaskBExp1 Prime_9A Target_1A ICJmlAe iKBkcDM Incongruent left correct Normal 419.8311
801 215 LeftSmaller RTTaskBExp1 Prime_9A Target_6N IFaEJmL lBHcifa Congruent right correct Normal 570.9993
801 216 LeftSmaller RTTaskBExp1 Prime_6A Target_1A bCfeIcG EJfgiFe Incongruent left correct Normal 443.0573
801 217 LeftSmaller RTTaskBExp1 Prime_9A Target_4N eCldLhb lGHahKi Incongruent right error Normal 721.9679
801 218 LeftSmaller RTTaskBExp1 Prime_1A Target_1A hJlIcfF bjKdhaA Congruent left correct Normal 394.4147
801 219 LeftSmaller RTTaskBExp1 Prime_4N Target_9N hcdALGj EDbBheJ Incongruent right correct Normal 536.6813
801 220 LeftSmaller RTTaskBExp1 Prime_1A Target_9A ciLldAf KckAFiL Incongruent right correct Normal 487.6201
801 221 LeftSmaller RTTaskBExp1 Prime_9A Target_1N GBLcEge cIedAbE Incongruent left correct Normal 705.7688
801 222 LeftSmaller RTTaskBExp1 Prime_6N Target_6A mIKLGDh lJFfGIE Congruent right correct Normal 592.2028
801 223 LeftSmaller RTTaskBExp1 Prime_4N Target_4A BebcGAH aLhDMBf Congruent left correct Normal 468.3809
801 224 LeftSmaller RTTaskBExp1 Prime_9N Target_9N EHiKGld mFiCeBE Congruent right correct Normal 540.423
801 225 LeftSmaller RTTaskBExp1 Prime_6A Target_4A IlgHLCm HBdLKJD Incongruent left correct Normal 434.5822
801 226 LeftSmaller RTTaskBExp1 Prime_9N Target_4N ljfbkea kmCbMJD Incongruent left correct Normal 521.3538
801 227 LeftSmaller RTTaskBExp1 Prime_9A Target_4N cjKdkHL maDHkiL Incongruent left correct Normal 415.7919
801 228 LeftSmaller RTTaskBExp1 Prime_1N Target_6A AhiBble jaFhkAJ Incongruent right correct Normal 494.4584
801 229 LeftSmaller RTTaskBExp1 Prime_9A Target_9A eFDEHBd caEGelj Congruent right correct Normal 349.9674
801 230 LeftSmaller RTTaskBExp1 Prime_9N Target_1N dimCBGE mIfdEgh Incongruent left correct Normal 442.4127
801 231 LeftSmaller RTTaskBExp1 Prime_6N Target_6N bFaGeEf GaFkjgD Congruent right correct Normal 457.5784
801 232 LeftSmaller RTTaskBExp1 Prime_9N Target_1A GChDHcf gejcGBh Incongruent left correct Normal 404.7385
801 233 LeftSmaller RTTaskBExp1 Prime_9A Target_6A dmMbhFa KjleIhd Congruent right correct Normal 597.472
801 234 LeftSmaller RTTaskBExp1 Prime_4N Target_9A khDBmMb IGKClfM Incongruent right correct Normal 480.4805
801 235 LeftSmaller RTTaskBExp2 Prime_1A Target_9A JFbmBDL fBDHgLc Incongruent right correct Normal 505.5395
801 236 LeftSmaller RTTaskBExp2 Prime_9A Target_6A jdeAFMi lmJAbEc Congruent right correct Normal 512.9372
801 237 LeftSmaller RTTaskBExp2 Prime_1A Target_4A BkIcGjh mIDEHJg Congruent left correct Normal 599.5086
801 238 LeftSmaller RTTaskBExp2 Prime_6A Target_9A aDfKBjb lLcCdBg Congruent right correct Normal 439.9003
801 239 LeftSmaller RTTaskBExp2 Prime_4N Target_4N EiMLCgc eBAbalE Congruent left correct Normal 422.5805
801 240 LeftSmaller RTTaskBExp2 Prime_9N Target_9N HjeikAD ljihGbC Congruent right correct Normal 684.3682
801 241 LeftSmaller RTTaskBExp2 Prime_4N Target_1N DgliFJK AIgmGjl Congruent left correct Normal 409.4011
801 242 LeftSmaller RTTaskBExp2 Prime_6N Target_9A hfeIGbH JKbHeFa Congruent right correct Normal 424.8363
801 243 LeftSmaller RTTaskBExp2 Prime_6A Target_4A hEcMmGL mgbaihG Incongruent left correct Normal 476.229
801 244 LeftSmaller RTTaskBExp2 Prime_6A Target_9N ecEihMF fcLFglE Congruent right correct Normal 484.2793
801 245 LeftSmaller RTTaskBExp2 Prime_1A Target_4N GABCldc lLbgHic Congruent left correct Normal 419.1963
801 246 LeftSmaller RTTaskBExp2 Prime_6A Target_1N BeEHgdC fJAMjgk Incongruent left correct Normal 465.9403
801 247 LeftSmaller RTTaskBExp2 Prime_1N Target_4A KjmbhLe ikeDjgH Congruent left correct Normal 647.0645
801 248 LeftSmaller RTTaskBExp2 Prime_6A Target_1A BgkEDAG GDchjKe Incongruent left correct Normal 441.2617
801 249 LeftSmaller RTTaskBExp2 Prime_1A Target_6N DhEafLb fMaKJeB Incongruent right correct Normal 442.5704
801 250 LeftSmaller RTTaskBExp2 Prime_1N Target_6A HdIlgaM CGmFfja Incongruent right correct Normal 472.5715
801 251 LeftSmaller RTTaskBExp2 Prime_4N Target_9A iMHECfG flmGBDc Incongruent right correct Normal 452.3238
801 252 LeftSmaller RTTaskBExp2 Prime_4A Target_6N glHbahj GHMBiLc Incongruent right correct Normal 502.1059
801 253 LeftSmaller RTTaskBExp2 Prime_9N Target_1N geILliG bklIAfd Incongruent left correct Normal 485.1091
801 254 LeftSmaller RTTaskBExp2 Prime_4A Target_1A kiHldah fEGKBgd Congruent left correct Normal 456.2775
801 255 LeftSmaller RTTaskBExp2 Prime_9N Target_4A JMAEgbj BDAIaik Incongruent left correct Normal 631.2372
801 256 LeftSmaller RTTaskBExp2 Prime_9A Target_1A EHDajCc BFCAdIK Incongruent left correct Normal 460.9074
801 257 LeftSmaller RTTaskBExp2 Prime_4A Target_9N FkAECbH HekGJBF Incongruent right correct Normal 585.5865
801 258 LeftSmaller RTTaskBExp2 Prime_4N Target_9N JLlmDBh cBDMjFG Incongruent right correct Normal 427.136
801 259 LeftSmaller RTTaskBExp2 Prime_4N Target_6A AMKdJli BdiAmFg Incongruent right correct Normal 499.7726
801 260 LeftSmaller RTTaskBExp2 Prime_4N Target_4A kdiDHCj BacMihK Congruent left correct Normal 581.0684
801 261 LeftSmaller RTTaskBExp2 Prime_1N Target_9A HfdBigD KblIhik Incongruent right correct Normal 547.3646
801 262 LeftSmaller RTTaskBExp2 Prime_1A Target_1A dmaCKfB CBmbFda Congruent left correct Normal 401.8802
801 263 LeftSmaller RTTaskBExp2 Prime_6A Target_4N AGicKDB eEILKAg Incongruent left correct Normal 467.5813
801 264 LeftSmaller RTTaskBExp2 Prime_1A Target_9N GgjIelA JLklADe Incongruent right correct Normal 479.885
801 265 LeftSmaller RTTaskBExp2 Prime_9N Target_4N cjKEBAF aGbKdAg Incongruent left correct Normal 510.7826
801 266 LeftSmaller RTTaskBExp2 Prime_1A Target_1N fLijHlI JhmjcDE Congruent left correct Normal 410.1916
801 267 LeftSmaller RTTaskBExp2 Prime_6N Target_4N eKjHMCk gGHbFfM Incongruent left correct Normal 443.7569
801 268 LeftSmaller RTTaskBExp2 Prime_4A Target_1N gDlmjcH AlIJhka Congruent left correct Normal 449.6593
801 269 LeftSmaller RTTaskBExp2 Prime_6N Target_6N lECijBA HmLkaAK Congruent right correct Normal 447.5917
801 270 LeftSmaller RTTaskBExp2 Prime_6N Target_4A hGMICaf gaiJjFG Incongruent left correct Normal 443.7342
801 271 LeftSmaller RTTaskBExp2 Prime_9A Target_6N HFAMKGj JKCEAmg Congruent right correct Normal 548.2125
801 272 LeftSmaller RTTaskBExp2 Prime_4A Target_4A bJfmKAj ECihHAI Congruent left correct Normal 356.6765
801 273 LeftSmaller RTTaskBExp2 Prime_9N Target_1A GKahDAk cmdlCGi Incongruent left correct Normal 462.3517
801 274 LeftSmaller RTTaskBExp2 Prime_4N Target_6N eaILCAG mfBHbjk Incongruent right correct Normal 461.5112
801 275 LeftSmaller RTTaskBExp2 Prime_9N Target_9A CHkJcIl jiEAfdD Congruent right correct Normal 428.5572
801 276 LeftSmaller RTTaskBExp2 Prime_9A Target_4A FgGmlLJ lbImjkf Incongruent left correct Normal 450.7151
801 277 LeftSmaller RTTaskBExp2 Prime_1N Target_1N agdEJml DeEaFBH Congruent left correct Normal 403.0212
801 278 LeftSmaller RTTaskBExp2 Prime_1N Target_9N CDFBKjk IlcdgMh Incongruent right correct Normal 452.0485
801 279 LeftSmaller RTTaskBExp2 Prime_6A Target_6A kjdlJMh dEfacKm Congruent right correct Normal 439.243
801 280 LeftSmaller RTTaskBExp2 Prime_1N Target_4N dcILiMA AJfEkhL Congruent left correct Normal 440.381
801 281 LeftSmaller RTTaskBExp2 Prime_9A Target_4N FbmEdLB Hfajibg Incongruent left correct Normal 546.3147
801 282 LeftSmaller RTTaskBExp2 Prime_6N Target_1A LIJleHf kHFEiCm Incongruent left correct Normal 488.0064
801 283 LeftSmaller RTTaskBExp2 Prime_4A Target_9A laedEhM CFgBiJj Incongruent right correct Normal 511.3626
801 284 LeftSmaller RTTaskBExp2 Prime_1N Target_1A DElKCib BeFlCmM Congruent left correct Normal 396.5386
801 285 LeftSmaller RTTaskBExp2 Prime_9A Target_9A bhDAKHd bAgGEjC Congruent right correct Normal 377.3597
801 286 LeftSmaller RTTaskBExp2 Prime_1N Target_6N EhLdHaF lEmiBjF Incongruent right correct Normal 878.7573
801 287 LeftSmaller RTTaskBExp2 Prime_6N Target_9N kaGhecF DGHJLCc Congruent right correct Normal 496.806
801 288 LeftSmaller RTTaskBExp2 Prime_9A Target_1N LIbjkGC JHkgKbj Incongruent left correct Normal 516.4972
801 289 LeftSmaller RTTaskBExp2 Prime_9A Target_9N liebjEk fEglJHi Congruent right correct Normal 554.1456
801 290 LeftSmaller RTTaskBExp2 Prime_4A Target_4N AgiBHKI egiflcK Congruent left correct Normal 447.6648
801 291 LeftSmaller RTTaskBExp2 Prime_4N Target_1A hmdMjAL Kmikgbf Congruent left correct Normal 405.2383
801 292 LeftSmaller RTTaskBExp2 Prime_6N Target_1N jdMmEkD demFbgA Incongruent left correct Normal 464.4028
801 293 LeftSmaller RTTaskBExp2 Prime_6N Target_6A eiDJmaj IbjiGfB Congruent right correct Normal 431.1725
801 294 LeftSmaller RTTaskBExp2 Prime_6A Target_6N hMdebcD KIAbCke Congruent right correct Normal 474.3503
801 295 LeftSmaller RTTaskBExp2 Prime_9N Target_6A bGicDCj mEaHeIA Congruent right correct Normal 621.2904
801 296 LeftSmaller RTTaskBExp2 Prime_4A Target_6A AIfHldF fiHDamc Incongruent right correct Normal 457.1851
801 297 LeftSmaller RTTaskBExp2 Prime_9N Target_6N fedcLGi JhbDEkG Congruent right correct Normal 548.3584
801 298 LeftSmaller RTTaskBExp2 Prime_1A Target_6A ajIBFJG FKgEBAM Incongruent right correct Normal 401.117
803 1 LeftSmaller RTTaskAPrac Prime_1N Target_9N eaECIHB LKBDhje Incongruent left error Late 4879.206
803 2 LeftSmaller RTTaskAPrac Prime_9A Target_6N HMFCkmB jJfkicA Congruent right correct Normal 919.792
803 3 LeftSmaller RTTaskAPrac Prime_1A Target_4A jebFKcB IjfckbB Congruent left correct Normal 624.8245
803 4 LeftSmaller RTTaskAPrac Prime_6A Target_4N MicFEbH mBFgGjf Incongruent left correct Normal 612.0011
803 5 LeftSmaller RTTaskAPrac Prime_9N Target_1A kLCMldI LiJFGhc Incongruent left correct Normal 573.8166
803 6 LeftSmaller RTTaskAPrac Prime_4A Target_1N acFgdBb KcBbmHA Congruent left correct Normal 484.4501
803 7 LeftSmaller RTTaskAPrac Prime_1N Target_9N eJdiGmf gCGaiAm Incongruent right correct Normal 441.6623
803 8 LeftSmaller RTTaskAPrac Prime_4N Target_6N IDGMCKk AEicdGM Incongruent right correct Normal 532.6954
803 9 LeftSmaller RTTaskAPrac Prime_4N Target_6A KJiCmlD CEBjdbm Incongruent right correct Normal 449.5522
803 10 LeftSmaller RTTaskAPrac Prime_6N Target_4A LjdABlh Hikabgc Incongruent left correct Normal 406.5458
803 11 LeftSmaller RTTaskAPrac Prime_1A Target_9A MKlECAf iFmAghl Incongruent left error Normal 462.5646
803 12 LeftSmaller RTTaskAPrac Prime_1A Target_9N iCadFkB hAkgCai Incongruent right correct Normal 485.6084
803 13 LeftSmaller RTTaskAPrac Prime_4N Target_1N bAhEHle ajkMFDf Congruent left correct Normal 489.054
803 14 LeftSmaller RTTaskAPrac Prime_1A Target_9A ECIHfic haEbBJI Incongruent right correct Normal 410.235
803 15 LeftSmaller RTTaskAPrac Prime_9A Target_1A KfCLijb EcGAjkF Incongruent left correct Normal 410.6411
803 16 LeftSmaller RTTaskAPrac Prime_6N Target_6N dDGkIEh daiGAJM Congruent right correct Normal 387.1215
803 17 LeftSmaller RTTaskAPrac Prime_4A Target_6N KFjCbfB ELGFBDg Incongruent right correct Normal 383.0863
803 18 LeftSmaller RTTaskAPrac Prime_4A Target_9N cGKJiLg hDHGIKl Incongruent right correct Normal 487.7569
803 19 LeftSmaller RTTaskAExp1 Prime_6N Target_4A JBHklge CaKALgD Incongruent left correct Normal 467.6991
803 20 LeftSmaller RTTaskAExp1 Prime_4N Target_4A lmdFicH JDCjclL Congruent left correct Normal 437.107
803 21 LeftSmaller RTTaskAExp1 Prime_9N Target_9N mLHADjJ FdEalfi Congruent right correct Normal 301.2079
803 22 LeftSmaller RTTaskAExp1 Prime_6N Target_1A iakhfjM EbdjBCi Incongruent left correct Normal 476.5795
803 23 LeftSmaller RTTaskAExp1 Prime_1N Target_6A MaFdIAf GkhJEiB Incongruent right correct Normal 373.7157
803 24 LeftSmaller RTTaskAExp1 Prime_6N Target_6A lGJdijH DfKmBEM Congruent right correct Normal 429.8599
803 25 LeftSmaller RTTaskAExp1 Prime_9A Target_9N HjbEeJa dCfaiFE Congruent right correct Normal 546.0089
803 26 LeftSmaller RTTaskAExp1 Prime_1N Target_6N IamJGKf MgCmfED Incongruent right correct Normal 446.4841
803 27 LeftSmaller RTTaskAExp1 Prime_6N Target_9N FbHiLhG DFkLghH Congruent right correct Normal 433.7775
803 28 LeftSmaller RTTaskAExp1 Prime_6N Target_9A jKGICcd mbhCdjK Congruent right correct Normal 402.6387
803 29 LeftSmaller RTTaskAExp1 Prime_4N Target_1A cCeLFki BdCejhk Congruent left correct Normal 381.9731
803 30 LeftSmaller RTTaskAExp1 Prime_6A Target_1N dAcDMjB bkECimB Incongruent right error Normal 330.8443
803 31 LeftSmaller RTTaskAExp1 Prime_9A Target_4N HdkjcGB aCMhfbK Incongruent left correct Normal 498.3274
803 32 LeftSmaller RTTaskAExp1 Prime_6A Target_9N BJmLEhK klmfMEh Congruent right correct Normal 339.8784
803 33 LeftSmaller RTTaskAExp1 Prime_1A Target_6A cjMJLae AJciDLH Incongruent right correct Normal 427.1477
803 34 LeftSmaller RTTaskAExp1 Prime_4N Target_6N DBGbCkg fhDIeMg Incongruent right correct Normal 439.5288
803 35 LeftSmaller RTTaskAExp1 Prime_6A Target_9A dehMCKD KjIFDcC Congruent right correct Normal 359.6654
803 36 LeftSmaller RTTaskAExp1 Prime_9A Target_6N MGefKBd chmdABC Congruent right correct Normal 431.9357
803 37 LeftSmaller RTTaskAExp1 Prime_9N Target_1N LahFJcE GMbcAKf Incongruent left correct Normal 461.176
803 38 LeftSmaller RTTaskAExp1 Prime_1N Target_1A lJjGhck bKmfECg Congruent left correct Normal 497.9743
803 39 LeftSmaller RTTaskAExp1 Prime_4N Target_6A LCIedlb gdemALD Incongruent right correct Normal 371.9133
803 40 LeftSmaller RTTaskAExp1 Prime_9N Target_9A ijcbHhg lKhFMjE Congruent right correct Normal 424.4925
803 41 LeftSmaller RTTaskAExp1 Prime_1A Target_6N dMGklCg GHFChDf Incongruent right correct Normal 423.2286
803 42 LeftSmaller RTTaskAExp1 Prime_9N Target_6A MIBfLbJ ImgBDjK Congruent right correct Normal 395.9844
803 43 LeftSmaller RTTaskAExp1 Prime_1A Target_1N HKiCmga KHkdeFa Congruent left correct Normal 491.1614
803 44 LeftSmaller RTTaskAExp1 Prime_1N Target_4N MLCDgec BAhgeEm Congruent left correct Normal 482.9678
803 45 LeftSmaller RTTaskAExp1 Prime_9A Target_1N gmMLelB dGCLfHj Incongruent left correct Normal 458.6475
803 46 LeftSmaller RTTaskAExp1 Prime_4A Target_6A FElaiDg KFHLeMb Incongruent right correct Normal 427.1842
803 47 LeftSmaller RTTaskAExp1 Prime_1A Target_4N ILabBJg dKAmbJF Congruent left correct Normal 371.6729
803 48 LeftSmaller RTTaskAExp1 Prime_4A Target_1N hcdBmli HbhIaCF Congruent left correct Normal 397.4058
803 49 LeftSmaller RTTaskAExp1 Prime_9A Target_9A gJAGFIK IjdAihL Congruent right correct Normal 362.8174
803 50 LeftSmaller RTTaskAExp1 Prime_4A Target_1A aAIkGHF BiKhmcA Congruent left correct Normal 433.5955
803 51 LeftSmaller RTTaskAExp1 Prime_6A Target_4A ACDGkcL kgdDaIj Incongruent left correct Normal 401.3258
803 52 LeftSmaller RTTaskAExp1 Prime_4A Target_9N KegHhki ECGJcdL Incongruent right correct Normal 332.1724
803 53 LeftSmaller RTTaskAExp1 Prime_1N Target_1N aFKjlLi LjkiMKa Congruent left correct Normal 331.9399
803 54 LeftSmaller RTTaskAExp1 Prime_6A Target_6A hCBMmJl fKbhiaD Congruent right correct Normal 374.9818
803 55 LeftSmaller RTTaskAExp1 Prime_6A Target_4N ejCGAEi KDkELHa Incongruent left correct Normal 364.8014
803 56 LeftSmaller RTTaskAExp1 Prime_4N Target_4N EGbijJk hJCKGMg Congruent left correct Normal 501.573
803 57 LeftSmaller RTTaskAExp1 Prime_1A Target_9N iGKMJCd BgeaELc Incongruent right correct Normal 519.0037
803 58 LeftSmaller RTTaskAExp1 Prime_1N Target_9N miMFkLj BaLGhMl Incongruent right correct Normal 538.612
803 59 LeftSmaller RTTaskAExp1 Prime_9N Target_1A jKJBhlF HfkFDei Incongruent left correct Normal 416.315
803 60 LeftSmaller RTTaskAExp1 Prime_4A Target_4A lGbhBIi lHLdebk Congruent left correct Normal 432.8399
803 61 LeftSmaller RTTaskAExp1 Prime_6N Target_1N ediALcj gJGjDEh Incongruent left correct Normal 524.1348
803 62 LeftSmaller RTTaskAExp1 Prime_4N Target_9A jbACfDk iAHbLad Incongruent right correct Normal 339.6851
803 63 LeftSmaller RTTaskAExp1 Prime_1N Target_9A IBcHbMf KcELIAm Incongruent left error Normal 298.0082
803 64 LeftSmaller RTTaskAExp1 Prime_9A Target_4A EckFiGm fclKEkB Incongruent left correct Normal 392.1901
803 65 LeftSmaller RTTaskAExp1 Prime_4A Target_6N IMCFAdH JAbBCmf Incongruent right correct Normal 520.4651
803 66 LeftSmaller RTTaskAExp1 Prime_6A Target_6N dkGFceM hIAGdHe Congruent right correct Normal 363.9947
803 67 LeftSmaller RTTaskAExp1 Prime_4N Target_9N MkDJmhF LbFGHmg Incongruent right correct Normal 424.7917
803 68 LeftSmaller RTTaskAExp1 Prime_9A Target_6A LDicBHj bmFaHCd Congruent left error Normal 346.4276
803 69 LeftSmaller RTTaskAExp1 Prime_1N Target_9A AmDLIlH lifcGmb Incongruent right correct Normal 461.5856
803 70 LeftSmaller RTTaskAExp1 Prime_9N Target_4A keFBbCa EHIJeDm Incongruent left correct Normal 460.3111
803 71 LeftSmaller RTTaskAExp1 Prime_4N Target_1N GDbcgdl HGkmcbd Congruent left correct Normal 572.4724
803 72 LeftSmaller RTTaskAExp1 Prime_9A Target_6A IcGEAek KGjicCD Congruent right correct Normal 447.1298
803 73 LeftSmaller RTTaskAExp1 Prime_6A Target_1N mfHGigD adIChjE Incongruent left correct Normal 459.6589
803 74 LeftSmaller RTTaskAExp1 Prime_9A Target_1A dJAmhfH FahjkBc Incongruent left correct Normal 486.7631
803 75 LeftSmaller RTTaskAExp1 Prime_9N Target_6N fmhFJGe bgejcla Congruent right correct Normal 421.8975
803 76 LeftSmaller RTTaskAExp1 Prime_1A Target_1A kjmhHFd dihAGKM Congruent left correct Normal 339.5724
803 77 LeftSmaller RTTaskAExp1 Prime_4A Target_9A hAfceJb gcIBdCe Incongruent right correct Normal 347.85
803 78 LeftSmaller RTTaskAExp1 Prime_1A Target_4A mbDcMLf IKiHame Congruent left correct Normal 349.7519
803 79 LeftSmaller RTTaskAExp1 Prime_9N Target_4N KelLaIi BGajbDh Incongruent right error Normal 313.0441
803 80 LeftSmaller RTTaskAExp1 Prime_6A Target_1A aMIbGEh BJHfkGF Incongruent left correct Normal 611.4674
803 81 LeftSmaller RTTaskAExp1 Prime_9N Target_4N GbCDMgE GKHfbLE Incongruent left correct Normal 488.6006
803 82 LeftSmaller RTTaskAExp1 Prime_6N Target_6N dCMBLDe gHDEjKJ Congruent right correct Normal 485.806
803 83 LeftSmaller RTTaskAExp1 Prime_1A Target_9A ldhHJcG hmabDHk Incongruent right correct Normal 451.3463
803 84 LeftSmaller RTTaskAExp1 Prime_1N Target_4A hCBmeEj cGdaDKF Congruent left correct Normal 398.0138
803 85 LeftSmaller RTTaskAExp1 Prime_4A Target_4N kGMhCfK McjEgmI Congruent left correct Normal 472.9234
803 86 LeftSmaller RTTaskAExp1 Prime_6N Target_4N bILmeAJ ejikcMB Incongruent left correct Normal 409.0968
803 87 LeftSmaller RTTaskAExp2 Prime_1N Target_9A ceFJCdB GelCaED Incongruent right correct Normal 403.0835
803 88 LeftSmaller RTTaskAExp2 Prime_9N Target_6A jdDcfCk aAFbmCd Congruent left error Normal 444.4842
803 89 LeftSmaller RTTaskAExp2 Prime_6N Target_1N mIBaLhA HfheDci Incongruent left correct Normal 491.0449
803 90 LeftSmaller RTTaskAExp2 Prime_1N Target_4N Ljadkfi JMLFDaC Congruent left correct Normal 518.3185
803 91 LeftSmaller RTTaskAExp2 Prime_1A Target_6A licmjIa LbEAdmj Incongruent right correct Normal 370.293
803 92 LeftSmaller RTTaskAExp2 Prime_6A Target_1A HLEMbCg gAJFGcE Incongruent left correct Normal 368.3197
803 93 LeftSmaller RTTaskAExp2 Prime_9A Target_1A KEIcHCk CBEfKhH Incongruent left correct Normal 446.9717
803 94 LeftSmaller RTTaskAExp2 Prime_1A Target_9N elchEdm ICijklA Incongruent right correct Normal 557.9738
803 95 LeftSmaller RTTaskAExp2 Prime_6A Target_6A KBkFbAd CBfgIKj Congruent right correct Normal 393.9957
803 96 LeftSmaller RTTaskAExp2 Prime_6A Target_9A figdIDK hjeCEla Congruent right correct Normal 424.45
803 97 LeftSmaller RTTaskAExp2 Prime_9A Target_9N kdMBGfj faiClLB Congruent right correct Normal 556.8774
803 98 LeftSmaller RTTaskAExp2 Prime_4A Target_4N ajmMCIF jhCGBIk Congruent left correct Normal 472.4824
803 99 LeftSmaller RTTaskAExp2 Prime_1N Target_1A AFfKaec ilBKJcb Congruent left correct Normal 303.7895
803 100 LeftSmaller RTTaskAExp2 Prime_1N Target_9N gCeHahl KaDMfdb Incongruent right correct Normal 423.2585
803 101 LeftSmaller RTTaskAExp2 Prime_9N Target_9N dfgHCbl BIaKgci Congruent right correct Normal 460.4144
803 102 LeftSmaller RTTaskAExp2 Prime_9N Target_6N aMCgALc MiClIfL Congruent right correct Normal 536.246
803 103 LeftSmaller RTTaskAExp2 Prime_9N Target_4N DkhgeCa dbaMJhc Incongruent left correct Normal 400.4222
803 104 LeftSmaller RTTaskAExp2 Prime_6N Target_9N GAeKjcm bkHjeiK Congruent right correct Normal 456.499
803 105 LeftSmaller RTTaskAExp2 Prime_4A Target_6N BFEfcCJ gMJElKa Incongruent right correct Normal 544.6727
803 106 LeftSmaller RTTaskAExp2 Prime_1A Target_1N AiBKdmJ bfhEdJB Congruent left correct Normal 372.2486
803 107 LeftSmaller RTTaskAExp2 Prime_4N Target_4A DKEihke lFKgiDH Congruent right error Normal 450.6759
803 108 LeftSmaller RTTaskAExp2 Prime_1N Target_6N aAfdeEC jAgHIDf Incongruent right correct Normal 484.732
803 109 LeftSmaller RTTaskAExp2 Prime_6N Target_9A AgiBJak mfleAMG Congruent right correct Normal 420.2595
803 110 LeftSmaller RTTaskAExp2 Prime_9A Target_6N BIJKhMi aEedImb Congruent right correct Normal 475.1649
803 111 LeftSmaller RTTaskAExp2 Prime_9N Target_9A cmHGAJE FfghjlE Congruent right correct Normal 334.7437
803 112 LeftSmaller RTTaskAExp2 Prime_1N Target_6A mibcLJD FdaCGDe Incongruent right correct Normal 400.7627
803 113 LeftSmaller RTTaskAExp2 Prime_9N Target_6A fcHkMIe JibeFfC Congruent right correct Normal 360.9227
803 114 LeftSmaller RTTaskAExp2 Prime_9A Target_1N DHMmiaF LGeMcjK Incongruent left correct Normal 413.0948
803 115 LeftSmaller RTTaskAExp2 Prime_1N Target_4A cdHfCmh lbkLHmi Congruent left correct Normal 451.2702
803 116 LeftSmaller RTTaskAExp2 Prime_4N Target_4N aJFBLkh LeAmElD Congruent left correct Normal 552.649
803 117 LeftSmaller RTTaskAExp2 Prime_6A Target_4A mFCcDEB BMdameE Incongruent left correct Normal 456.3471
803 118 LeftSmaller RTTaskAExp2 Prime_6N Target_6N HmEkcdg EGLkgFK Congruent right correct Normal 342.6336
803 119 LeftSmaller RTTaskAExp2 Prime_1A Target_9A jFbGfIJ bMCgfLm Incongruent right correct Normal 398.7902
803 120 LeftSmaller RTTaskAExp2 Prime_4A Target_9N GJfKgLc FIJGgam Incongruent right correct Normal 445.2862
803 121 LeftSmaller RTTaskAExp2 Prime_6N Target_6A kDjHJbI hemKMbJ Congruent right correct Normal 395.8801
803 122 LeftSmaller RTTaskAExp2 Prime_1N Target_1N cHkBbiE kJLEhbM Congruent left correct Normal 336.276
803 123 LeftSmaller RTTaskAExp2 Prime_1A Target_4A CfjlBAG dcEIGaA Congruent left correct Normal 434.3233
803 124 LeftSmaller RTTaskAExp2 Prime_4N Target_1A BILkibl IkEicgb Congruent left correct Normal 418.9459
803 125 LeftSmaller RTTaskAExp2 Prime_6A Target_1N lGfAcdM eIcLmDi Incongruent left correct Normal 467.6529
803 126 LeftSmaller RTTaskAExp2 Prime_9A Target_4A gjhmIiD mKJEDMb Incongruent left correct Normal 528.6796
803 127 LeftSmaller RTTaskAExp2 Prime_4A Target_1N KEJIeCh MFIlHJb Congruent left correct Normal 464.1036
803 128 LeftSmaller RTTaskAExp2 Prime_6N Target_1A CFaMhdJ hFdcJIG Incongruent left correct Normal 378.283
803 129 LeftSmaller RTTaskAExp2 Prime_9A Target_4N igjfBak KIdEAli Incongruent left correct Normal 536.45
803 130 LeftSmaller RTTaskAExp2 Prime_4N Target_6A alEgjmG eJMKHbm Incongruent left error Normal 314.3651
803 131 LeftSmaller RTTaskAExp2 Prime_1A Target_1A aBlkhiL MAGELFa Congruent left correct Normal 391.2377
803 132 LeftSmaller RTTaskAExp2 Prime_6N Target_4A dEabLDg fIHEcAM Incongruent left correct Normal 438.083
803 133 LeftSmaller RTTaskAExp2 Prime_4N Target_6N aBgCIJF IEecgBH Incongruent right correct Normal 435.0096
803 134 LeftSmaller RTTaskAExp2 Prime_6A Target_4N bhgHBFm DglkcKG Incongruent left correct Normal 415.0318
803 135 LeftSmaller RTTaskAExp2 Prime_9N Target_1N iaCEkfB kiHalLF Incongruent right error Normal 292.8752
803 136 LeftSmaller RTTaskAExp2 Prime_9A Target_6A FDIAGKJ alAMhHj Congruent right correct Normal 452.507
803 137 LeftSmaller RTTaskAExp2 Prime_9N Target_1N kcmhdBi eJbKlac Incongruent left correct Normal 478.2014
803 138 LeftSmaller RTTaskAExp2 Prime_6N Target_4N mbhlEfF gBGdDAh Incongruent left correct Normal 555.6735
803 139 LeftSmaller RTTaskAExp2 Prime_4A Target_6A iLIhEAM jhBJHGg Incongruent right correct Normal 524.8313
803 140 LeftSmaller RTTaskAExp2 Prime_4A Target_1A LDMCGcm deAikLH Congruent left correct Normal 348.807
803 141 LeftSmaller RTTaskAExp2 Prime_1A Target_4N BKdaEIb BdcFGHM Congruent left correct Normal 538.3322
803 142 LeftSmaller RTTaskAExp2 Prime_4A Target_9A GjFJiEh aHIAfGk Incongruent right correct Normal 422.7647
803 143 LeftSmaller RTTaskAExp2 Prime_9N Target_1A CcdjBMF BfeaCgc Incongruent left correct Normal 348.5211
803 144 LeftSmaller RTTaskAExp2 Prime_1A Target_6N GemibJh CdiGAEg Incongruent right correct Normal 542.962
803 145 LeftSmaller RTTaskAExp2 Prime_4A Target_4A gDLibHG AgcEHDB Congruent left correct Normal 315.2599
803 146 LeftSmaller RTTaskAExp2 Prime_4N Target_9N IiKlgEG fBIlbhE Incongruent right correct Normal 453.5438
803 147 LeftSmaller RTTaskAExp2 Prime_4N Target_6A aCjLMfF MDLlmfj Incongruent right correct Normal 478.4777
803 148 LeftSmaller RTTaskAExp2 Prime_4N Target_9A fhicaID hlgcJIB Incongruent right correct Normal 414.1186
803 149 LeftSmaller RTTaskAExp2 Prime_6A Target_6N LBKeiMd FJbaKCc Congruent right correct Normal 468.3685
803 150 LeftSmaller RTTaskAExp2 Prime_4N Target_1N dFlDIBH haegCbD Congruent left correct Normal 348.9662
803 151 LeftSmaller RTTaskAExp2 Prime_9A Target_9A AbjkFIM fkIJLbl Congruent right correct Normal 359.5296
803 152 LeftSmaller RTTaskAExp2 Prime_6A Target_9N mbMGCjI hJkMdIL Congruent right correct Normal 439.0856
803 153 LeftSmaller RTTaskAExp2 Prime_4N Target_4A fFgijHc aJDCdeH Congruent left correct Normal 413.694
803 154 LeftSmaller RTTaskAExp2 Prime_9N Target_4A KHfFlbg JiEekMh Incongruent left correct Normal 457.8827
803 155 LeftLarger RTTaskBPrac Prime_6N Target_9N cjlICJh jhLbekd Congruent left correct Normal 671.1595
803 156 LeftLarger RTTaskBPrac Prime_6N Target_6A BCblIjg amgfdBL Congruent left correct Normal 487.9156
803 157 LeftLarger RTTaskBPrac Prime_1N Target_1N lMjahLJ imGgMbH Congruent right correct Normal 410.4302
803 158 LeftLarger RTTaskBPrac Prime_4N Target_1N EkfmMeC FEMIKck Congruent right correct Normal 406.8869
803 159 LeftLarger RTTaskBPrac Prime_6A Target_4A HcahliD cJKjMkG Incongruent right correct Normal 495.4039
803 160 LeftLarger RTTaskBPrac Prime_6A Target_1N aiEcCDA CfKdjbh Incongruent left error Normal 824.8214
803 161 LeftLarger RTTaskBPrac Prime_1N Target_4N elcmfaj bCaEBMH Congruent right correct Normal 573.0171
803 162 LeftLarger RTTaskBPrac Prime_6N Target_6N mDbHaKL cLfeiag Congruent left correct Normal 722.403
803 163 LeftLarger RTTaskBPrac Prime_4A Target_6A AfaEigH cFfKgDL Incongruent left correct Normal 432.5711
803 164 LeftLarger RTTaskBPrac Prime_6A Target_1N iDdJEKC AkiBlbM Incongruent right correct Normal 442.75
803 165 LeftLarger RTTaskBPrac Prime_6N Target_1N GLbEFgm DMliCIb Incongruent right correct Normal 587.9306
803 166 LeftLarger RTTaskBPrac Prime_1A Target_4A IcMihKj EbkJmHg Congruent right correct Normal 644.0722
803 167 LeftLarger RTTaskBPrac Prime_1A Target_1N AKaldif HMhGIjF Congruent right correct Normal 463.4721
803 168 LeftLarger RTTaskBPrac Prime_6A Target_1A BHcAfbG EaDMjLm Incongruent right correct Normal 525.8399
803 169 LeftLarger RTTaskBPrac Prime_6N Target_4A licCbfL MglBGIK Incongruent right correct Normal 416.6888
803 170 LeftLarger RTTaskBPrac Prime_4A Target_4N MJBbHIj iJkFIGh Congruent right correct Normal 432.4053
803 171 LeftLarger RTTaskBPrac Prime_6N Target_4N kHgFleE kjHKBcG Incongruent right correct Normal 462.5811
803 172 LeftLarger RTTaskBExp1 Prime_9A Target_4N DkFehBg JGjMIkC Incongruent right correct Normal 600.0022
803 173 LeftLarger RTTaskBExp1 Prime_1A Target_4A KGIFlfM AmicFDl Congruent right correct Normal 382.323
803 174 LeftLarger RTTaskBExp1 Prime_9N Target_9N IeHADcL BdhCKgb Congruent right error Normal 353.6513
803 175 LeftLarger RTTaskBExp1 Prime_4A Target_1N MjgeLCb HJBjfki Congruent right correct Normal 469.3976
803 176 LeftLarger RTTaskBExp1 Prime_6N Target_6N LDhaEKe jflEkie Congruent left correct Normal 682.6991
803 177 LeftLarger RTTaskBExp1 Prime_1N Target_9A mCbiHkI FEIfKJl Incongruent right error Normal 425.8591
803 178 LeftLarger RTTaskBExp1 Prime_6N Target_4A fiDMGHe CheIABJ Incongruent right correct Normal 569.1633
803 179 LeftLarger RTTaskBExp1 Prime_4A Target_1A gBdEJMC mdaIEkH Congruent right correct Normal 486.6125
803 180 LeftLarger RTTaskBExp1 Prime_4A Target_4N BGMaHic JEkDFib Congruent right correct Normal 477.955
803 181 LeftLarger RTTaskBExp1 Prime_6N Target_1A clAmBGL BiFehEf Incongruent right correct Normal 401.2988
803 182 LeftLarger RTTaskBExp1 Prime_1A Target_1A mDBjFlc FGMcemI Congruent right correct Normal 320.2821
803 183 LeftLarger RTTaskBExp1 Prime_1A Target_1N lbdhcIi IiDHCkb Congruent right correct Normal 393.0011
803 184 LeftLarger RTTaskBExp1 Prime_9A Target_9A jMiBcKk LDBIlKG Congruent left correct Normal 439.5339
803 185 LeftLarger RTTaskBExp1 Prime_9A Target_9N icBCbLl miIBhga Congruent left correct Normal 416.819
803 186 LeftLarger RTTaskBExp1 Prime_4A Target_9N jkJmcgM HKMEDca Incongruent left correct Normal 478.5017
803 187 LeftLarger RTTaskBExp1 Prime_1N Target_9N JgDLleG IFbDBEH Incongruent left correct Normal 412.7862
803 188 LeftLarger RTTaskBExp1 Prime_6A Target_9A EchHdma dAkHalJ Congruent left correct Normal 429.6024
803 189 LeftLarger RTTaskBExp1 Prime_4N Target_4A jMmbcId lDBEKIf Congruent right correct Normal 336.9968
803 190 LeftLarger RTTaskBExp1 Prime_6A Target_4A FajmLgh mfkcIMC Incongruent right correct Normal 599.9176
803 191 LeftLarger RTTaskBExp1 Prime_6A Target_6N cIAjCbL igcHGhd Congruent left correct Normal 423.3214
803 192 LeftLarger RTTaskBExp1 Prime_4N Target_6A lkFIJiB JEAbkCj Incongruent left correct Normal 406.3627
803 193 LeftLarger RTTaskBExp1 Prime_1N Target_4A gLFfEbj ILecHDB Congruent right correct Normal 547.4065
803 194 LeftLarger RTTaskBExp1 Prime_9A Target_6N JmLDAbh eDaFkiL Congruent left correct Normal 529.422
803 195 LeftLarger RTTaskBExp1 Prime_1A Target_9N fAeiEGF liHDjeb Incongruent left correct Normal 447.8768
803 196 LeftLarger RTTaskBExp1 Prime_9N Target_4N aiMLdjC lIcCgmM Incongruent right correct Normal 400.4051
803 197 LeftLarger RTTaskBExp1 Prime_9N Target_6N FajgkCe eIDAiHE Congruent left correct Normal 428.3427
803 198 LeftLarger RTTaskBExp1 Prime_9N Target_4A mDGhgEB CfeFGjK Incongruent right correct Normal 441.966
803 199 LeftLarger RTTaskBExp1 Prime_1A Target_4N BCMfAkh LiakhFE Congruent right correct Normal 482.8966
803 200 LeftLarger RTTaskBExp1 Prime_4N Target_4N AMeKLDb fgLkjCM Congruent right correct Normal 375.8227
803 201 LeftLarger RTTaskBExp1 Prime_4N Target_6N iFJagHc lbJECDj Incongruent left correct Normal 456.0937
803 202 LeftLarger RTTaskBExp1 Prime_4A Target_6A kiMfFcE MLHibFe Incongruent left correct Normal 509.0444
803 203 LeftLarger RTTaskBExp1 Prime_1N Target_6A bdEBDaf IcaALDE Incongruent left correct Normal 502.44
803 204 LeftLarger RTTaskBExp1 Prime_1N Target_6N fhcCKLj LAHfhdm Incongruent left correct Normal 461.4861
803 205 LeftLarger RTTaskBExp1 Prime_6N Target_9A lKFfLiD KjDalmi Congruent right error Normal 315.6466
803 206 LeftLarger RTTaskBExp1 Prime_1N Target_1N JmDidEa HAgGfMc Congruent right correct Normal 605.5659
803 207 LeftLarger RTTaskBExp1 Prime_9A Target_4A fbGaLAK iGgaAmB Incongruent right correct Normal 507.5253
803 208 LeftLarger RTTaskBExp1 Prime_9N Target_1N KHalkdG LCfakIe Incongruent right correct Normal 598.4184
803 209 LeftLarger RTTaskBExp1 Prime_9N Target_6A iHBbcDK mAcKkFI Congruent right error Normal 511.0255
803 210 LeftLarger RTTaskBExp1 Prime_4N Target_9N BhcbEIA ekgGjfb Incongruent left correct Normal 754.3386
803 211 LeftLarger RTTaskBExp1 Prime_9A Target_1N ebajLJl fACiKDk Incongruent right correct Normal 567.3946
803 212 LeftLarger RTTaskBExp1 Prime_1N Target_4N FfCbghd EHdgkGc Congruent left error Normal 715.5544
803 213 LeftLarger RTTaskBExp1 Prime_9A Target_1A fkDmFgM LGAmCMj Incongruent left error Normal 566.2853
803 214 LeftLarger RTTaskBExp1 Prime_9N Target_9N iELGkMm cFjAKgG Congruent left correct Normal 893.0252
803 215 LeftLarger RTTaskBExp1 Prime_1A Target_9A dfCLAbc fDdJeBE Incongruent left correct Normal 537.7888
803 216 LeftLarger RTTaskBExp1 Prime_6N Target_1N HhdKIkl MfAlmGC Incongruent right correct Normal 423.8184
803 217 LeftLarger RTTaskBExp1 Prime_1A Target_6N DLFIkKA JLIMdEh Incongruent left correct Normal 751.2423
803 218 LeftLarger RTTaskBExp1 Prime_4N Target_9A DGmhbfF ajhHIGM Incongruent left correct Normal 895.6466
803 219 LeftLarger RTTaskBExp1 Prime_6N Target_9N hLMKeJl KBmhgDj Congruent left correct Normal 546.4108
803 220 LeftLarger RTTaskBExp1 Prime_6A Target_1N flhdBEC jCcJHEb Incongruent right correct Normal 602.7476
803 221 LeftLarger RTTaskBExp1 Prime_1A Target_6A GeCabMj AfjGFgm Incongruent left correct Normal 823.5207
803 222 LeftLarger RTTaskBExp1 Prime_1N Target_4N fkgdmaH BCGAJhm Congruent right correct Normal 363.7066
803 223 LeftLarger RTTaskBExp1 Prime_4A Target_9A lcmBdMD LCIAmae Incongruent left correct Normal 441.2512
803 224 LeftLarger RTTaskBExp1 Prime_6N Target_9A LGBEkhI cImAhdD Congruent left correct Normal 414.552
803 225 LeftLarger RTTaskBExp1 Prime_4N Target_1A AKBlDdg fFCMGDK Congruent right correct Normal 401.5948
803 226 LeftLarger RTTaskBExp1 Prime_9N Target_1A adCDMEj gdljhJc Incongruent right correct Normal 370.4547
803 227 LeftLarger RTTaskBExp1 Prime_4N Target_1N MEmLacg aJhHgIE Congruent right correct Normal 442.5188
803 228 LeftLarger RTTaskBExp1 Prime_1N Target_9A eBCKjbL acEJbIB Incongruent left correct Normal 445.9753
803 229 LeftLarger RTTaskBExp1 Prime_6N Target_4N KIfbCcL gEbKLIJ Incongruent left error Normal 542.6679
803 230 LeftLarger RTTaskBExp1 Prime_9N Target_6A ECAMbKg fblidGe Congruent right error Normal 517.8093
803 231 LeftLarger RTTaskBExp1 Prime_1N Target_1A lCaEbhm LkAhmbM Congruent left error Normal 552.1811
803 232 LeftLarger RTTaskBExp1 Prime_6A Target_1A fdJhBbe BMjecKE Incongruent right correct Normal 484.7127
803 233 LeftLarger RTTaskBExp1 Prime_6A Target_9N eIHbJEl CekalAj Congruent left correct Normal 534.8005
803 234 LeftLarger RTTaskBExp1 Prime_6N Target_6A kedKAHm ihHgbKk Congruent left correct Normal 494.5088
803 235 LeftLarger RTTaskBExp1 Prime_4A Target_6N EmHlkhF fCBjHMm Incongruent left correct Normal 697.9575
803 236 LeftLarger RTTaskBExp1 Prime_9N Target_6A MEaejlf aLbIEDC Congruent left correct Normal 551.7375
803 237 LeftLarger RTTaskBExp1 Prime_1N Target_1A KeGhBmb CglKbDB Congruent right correct Normal 355.911
803 238 LeftLarger RTTaskBExp1 Prime_9A Target_6A DMjehKF fmCKgBJ Congruent left correct Normal 376.6562
803 239 LeftLarger RTTaskBExp1 Prime_6A Target_6A CKEkmhM JgeGkLI Congruent left correct Normal 505.4564
803 240 LeftLarger RTTaskBExp1 Prime_4A Target_4A JlLFHCD hAakFim Congruent right correct Normal 500.397
803 241 LeftLarger RTTaskBExp1 Prime_9A Target_1A GAdIMci ilBCFcJ Incongruent left error Normal 397.8004
803 242 LeftLarger RTTaskBExp1 Prime_9N Target_9A AMaJCGm IMDHlcb Congruent left correct Normal 568.6126
803 243 LeftLarger RTTaskBExp1 Prime_6N Target_4N CHBaGdh EiKGMJC Incongruent right correct Normal 441.0384
803 244 LeftLarger RTTaskBExp1 Prime_9A Target_1A DiEGILJ kIbMiHF Incongruent right correct Normal 500.0632
803 245 LeftLarger RTTaskBExp1 Prime_6A Target_4N HEjficB CKIfFkG Incongruent right correct Normal 423.3785
803 246 LeftLarger RTTaskBExp2 Prime_4N Target_6A hAEHGmg kIKCbFG Incongruent right error Normal 469.9644
803 247 LeftLarger RTTaskBExp2 Prime_4N Target_6N BmIGblL mhEiMlB Incongruent left correct Normal 568.8914
803 248 LeftLarger RTTaskBExp2 Prime_1A Target_6A iaGEbkC KIFiAmB Incongruent left correct Normal 445.0647
803 249 LeftLarger RTTaskBExp2 Prime_9A Target_4N HcBLMhK dGkbhcF Incongruent right correct Normal 543.7327
803 250 LeftLarger RTTaskBExp2 Prime_4A Target_4A JilBDkI jfdMIFG Congruent right correct Normal 392.1403
803 251 LeftLarger RTTaskBExp2 Prime_6A Target_9N FKkedBg geclLmE Congruent left correct Normal 662.0532
803 252 LeftLarger RTTaskBExp2 Prime_9N Target_4A AGHgDfk JHldbcL Incongruent right correct Normal 645.3806
803 253 LeftLarger RTTaskBExp2 Prime_4N Target_9A IjKFMcd IJkidec Incongruent right error Normal 447.6366
803 254 LeftLarger RTTaskBExp2 Prime_6N Target_4A EJKCLdc EfImBFK Incongruent left error Normal 496.0487
803 255 LeftLarger RTTaskBExp2 Prime_4A Target_9N EafIDHF cLgIMmj Incongruent left correct Normal 764.6529
803 256 LeftLarger RTTaskBExp2 Prime_9N Target_1N khHlAJg kbfjiId Incongruent right correct Normal 419.9438
803 257 LeftLarger RTTaskBExp2 Prime_1N Target_1A AeKFcaG KGkHCec Congruent left error Normal 468.5963
803 258 LeftLarger RTTaskBExp2 Prime_9A Target_6N gKAMIHf EcIlBHg Congruent left correct Normal 600.4096
803 259 LeftLarger RTTaskBExp2 Prime_9A Target_9A FKGEBae FIkheEB Congruent left correct Normal 682.5885
803 260 LeftLarger RTTaskBExp2 Prime_1N Target_4A JlDbaME DKibHIg Congruent right correct Normal 456.0261
803 261 LeftLarger RTTaskBExp2 Prime_1A Target_1N BiGaEbF MibBLkI Congruent right correct Normal 465.8051
803 262 LeftLarger RTTaskBExp2 Prime_4A Target_9A DCmHcBj aMIfEHc Incongruent left correct Normal 456.53
803 263 LeftLarger RTTaskBExp2 Prime_9A Target_1N meKCHEI EacmfAG Incongruent right correct Normal 676.389
803 264 LeftLarger RTTaskBExp2 Prime_1A Target_9N DEefhck kbAfMdK Incongruent left correct Normal 670.8967
803 265 LeftLarger RTTaskBExp2 Prime_9A Target_6A HiLIcmJ eEbkhjL Congruent right error Normal 625.4877
803 266 LeftLarger RTTaskBExp2 Prime_6N Target_6A fbHjlcD BFaDdfk Congruent left correct Normal 481.3918
803 267 LeftLarger RTTaskBExp2 Prime_1A Target_9A BKMhDcJ CJmcfBk Incongruent left correct Normal 640.8088
803 268 LeftLarger RTTaskBExp2 Prime_1N Target_6N fdFMCEg jDkaIhc Incongruent left correct Normal 555.7511
803 269 LeftLarger RTTaskBExp2 Prime_4N Target_1A LECKcHG FLCMcEi Congruent right correct Normal 415.2822
803 270 LeftLarger RTTaskBExp2 Prime_4N Target_4N mjCilHg IcFMfAg Congruent left error Normal 556.7184
803 271 LeftLarger RTTaskBExp2 Prime_9A Target_1A DdBAeKi jJACkcG Incongruent right correct Normal 535.5131
803 272 LeftLarger RTTaskBExp2 Prime_4A Target_6N LbfkhgJ ehkACfl Incongruent left correct Normal 583.5363
803 273 LeftLarger RTTaskBExp2 Prime_4A Target_6A AfHbGJk dgfaCHB Incongruent left correct Normal 505.9827
803 274 LeftLarger RTTaskBExp2 Prime_6A Target_6N IlEbMBL hDIAabj Congruent left correct Normal 580.1254
803 275 LeftLarger RTTaskBExp2 Prime_6N Target_9A dkBHCFm ibmAJfG Congruent left correct Normal 639.1931
803 276 LeftLarger RTTaskBExp2 Prime_1A Target_4A AIMbkJd FJEGfge Congruent right correct Normal 437.8375
803 277 LeftLarger RTTaskBExp2 Prime_4N Target_4A edkbhKA ahMLAfc Congruent right correct Normal 491.3834
803 278 LeftLarger RTTaskBExp2 Prime_6A Target_4A maeDkfc dbGjhca Incongruent right correct Normal 483.7968
803 279 LeftLarger RTTaskBExp2 Prime_6N Target_1N mFjdLKi BCFJhia Incongruent left error Normal 418.1093
803 280 LeftLarger RTTaskBExp2 Prime_6N Target_9N GBcMgJk eBMFEkK Congruent left correct Normal 608.5622
803 281 LeftLarger RTTaskBExp2 Prime_6A Target_6A bBFeCkE ADHbLIk Congruent left correct Normal 646.445
803 282 LeftLarger RTTaskBExp2 Prime_9N Target_4N mIfJMgb cAmMIBd Incongruent right correct Normal 420.2347
803 283 LeftLarger RTTaskBExp2 Prime_6A Target_4N bfEdgcM ikEfAId Incongruent right correct Normal 414.4973
803 284 LeftLarger RTTaskBExp2 Prime_1N Target_1A mjLCDKh lbIBfED Congruent right correct Normal 393.3302
803 285 LeftLarger RTTaskBExp2 Prime_9A Target_6A jdaKLlc bAKEkIH Congruent left correct Normal 583.1035
803 286 LeftLarger RTTaskBExp2 Prime_1N Target_4N eGbLgAH meGjKEA Congruent right correct Normal 591.644
803 287 LeftLarger RTTaskBExp2 Prime_9N Target_9N lamACFd mejLKbB Congruent left correct Normal 602.8137
803 288 LeftLarger RTTaskBExp2 Prime_6N Target_1N djHFaeI IFDiMlH Incongruent right correct Normal 605.4984
803 289 LeftLarger RTTaskBExp2 Prime_1A Target_1A gFGklDJ bEGdaHK Congruent left error Normal 465.047
803 290 LeftLarger RTTaskBExp2 Prime_1N Target_9N FIlKcad aEjKkgb Incongruent left correct Normal 608.2279
803 291 LeftLarger RTTaskBExp2 Prime_6A Target_1A edaJbFK cgKdjfM Incongruent right correct Normal 467.8272
803 292 LeftLarger RTTaskBExp2 Prime_4N Target_9N cKDMmGg eLcCDdJ Incongruent left correct Normal 592.6921
803 293 LeftLarger RTTaskBExp2 Prime_6A Target_1N EICfgeG mECBiMl Incongruent right correct Normal 346.965
803 294 LeftLarger RTTaskBExp2 Prime_6N Target_6N kMDdegh jcDlEiJ Congruent left correct Normal 506.3337
803 295 LeftLarger RTTaskBExp2 Prime_4N Target_9A HcejgKh LkfdMcg Incongruent right error Normal 379.5324
803 296 LeftLarger RTTaskBExp2 Prime_4A Target_1A DBcGFhK mHEIDLk Congruent right correct Normal 530.4846
803 297 LeftLarger RTTaskBExp2 Prime_6N Target_4A MKlEHmf JiCEdFB Incongruent right correct Normal 550.1342
803 298 LeftLarger RTTaskBExp2 Prime_1A Target_1A HhjlLGc DCIdbHi Congruent right correct Normal 440.1449
803 299 LeftLarger RTTaskBExp2 Prime_9A Target_4A EgKbMHD jlJbaHB Incongruent right correct Normal 372.7409
803 300 LeftLarger RTTaskBExp2 Prime_6N Target_4N ldKhCbk biagfkm Incongruent right correct Normal 513.2738
803 301 LeftLarger RTTaskBExp2 Prime_4N Target_4N JhaGlBM jdIfCJE Congruent right correct Normal 354.451
803 302 LeftLarger RTTaskBExp2 Prime_4A Target_1N GEklijg GkafEhm Congruent right correct Normal 420.3626
803 303 LeftLarger RTTaskBExp2 Prime_6A Target_9A LBaMgmH GHLcIEa Congruent left correct Normal 451.977
803 304 LeftLarger RTTaskBExp2 Prime_9N Target_6A hJmIcFK AbkDGHM Congruent left correct Normal 716.5101
803 305 LeftLarger RTTaskBExp2 Prime_4N Target_9A kAjHmdl MEIlGiB Incongruent left correct Normal 458.871
803 306 LeftLarger RTTaskBExp2 Prime_9N Target_9A igMEcJI ijmKcIE Congruent left correct Normal 418.4089
803 307 LeftLarger RTTaskBExp2 Prime_1A Target_6N HEGcdfm EAmkFBC Incongruent left correct Normal 603.0693
803 308 LeftLarger RTTaskBExp2 Prime_4A Target_4N jcKIJmH DmMFBIf Congruent right correct Normal 498.4842
803 309 LeftLarger RTTaskBExp2 Prime_9A Target_9N JkBmige AEabFLM Congruent left correct Normal 472.5282
803 310 LeftLarger RTTaskBExp2 Prime_9N Target_6N jghJemi dilFHIk Congruent left correct Normal 497.5641
803 311 LeftLarger RTTaskBExp2 Prime_1N Target_6A JIaKeEC kKBJLAe Incongruent left correct Normal 553.9778
803 312 LeftLarger RTTaskBExp2 Prime_1N Target_1N iHBIagC amkLElD Congruent right correct Normal 355.917
803 313 LeftLarger RTTaskBExp2 Prime_1A Target_4N Cldihjc MBGicja Congruent right correct Normal 333.9004
803 314 LeftLarger RTTaskBExp2 Prime_9N Target_1A iBmjdgC FHieBmh Incongruent right correct Normal 356.2389
803 315 LeftLarger RTTaskBExp2 Prime_4N Target_1N HibLDGE KBlAaJC Congruent right correct Normal 436.3888
803 316 LeftLarger RTTaskBExp2 Prime_6N Target_1A lLDJHcf JAjcFdD Incongruent right correct Normal 394.1403
803 317 LeftLarger RTTaskBExp2 Prime_4N Target_6A MFdcaAC MJkCLbD Incongruent left correct Normal 428.8618
803 318 LeftLarger RTTaskBExp2 Prime_1N Target_9A eaFcCjB IgbidHA Incongruent left correct Normal 387.3067
804 1 LeftLarger RTTaskAPrac Prime_6A Target_6A MhFlbHA MkGhBIl Congruent right error Normal 942.6723
804 2 LeftLarger RTTaskAPrac Prime_9N Target_9A GFDCfiB ehElmHB Congruent left correct Late 2247.362
804 3 LeftLarger RTTaskAPrac Prime_6N Target_1N mkMGjFK BkedgMm Incongruent left error Late 1027.134
804 4 LeftLarger RTTaskAPrac Prime_4N Target_6N CfdLHKc DhEljMf Incongruent right error Normal 978.5712
804 5 LeftLarger RTTaskAPrac Prime_6A Target_6A IalAmDE EdLimAI Congruent left correct Late 1069.58
804 6 LeftLarger RTTaskAPrac Prime_4A Target_1A hIMbamL chKGFla Congruent right correct Late 1194.962
804 7 LeftLarger RTTaskAPrac Prime_4N Target_1N JBgIika FiakmGC Congruent right correct Normal 905.3999
804 8 LeftLarger RTTaskAPrac Prime_6N Target_1N HMdembL ihbECaJ Incongruent right correct Normal 642.3394
804 9 LeftLarger RTTaskAPrac Prime_4A Target_9A MEaHelh MmgeiDB Incongruent left correct Normal 532.2375
804 10 LeftLarger RTTaskAPrac Prime_6A Target_6N MBHFIfh fHakibc Congruent left correct Normal 573.9456
804 11 LeftLarger RTTaskAPrac Prime_4N Target_9N lLemiDF gJckMIK Incongruent right error Normal 613.8523
804 12 LeftLarger RTTaskAPrac Prime_9A Target_1A GcfjHJg dIlGcem Incongruent left error Late 1094.868
804 13 LeftLarger RTTaskAPrac Prime_9N Target_9A JMDabBh DcLHMmj Congruent left correct Normal 597.0719
804 14 LeftLarger RTTaskAPrac Prime_4A Target_9N EBIFgam cKDAgfJ Incongruent left correct Normal 934.3649
804 15 LeftLarger RTTaskAPrac Prime_6A Target_1N mKgEGAI AJKIdli Incongruent right correct Normal 867.8098
804 16 LeftLarger RTTaskAPrac Prime_6A Target_6A mldBALH jlEhfgc Congruent left correct Late 1271.978
804 17 LeftLarger RTTaskAPrac Prime_9A Target_6N faiJbmG mfDdEeL Congruent left correct Normal 738.7123
804 18 LeftLarger RTTaskAPrac Prime_9A Target_1A bdAHkMG DBJeHbl Incongruent right correct Normal 514.0052
804 19 LeftLarger RTTaskAPrac Prime_4N Target_6N EIfBcdg HiECfcD Incongruent left correct Normal 583.02
804 20 LeftLarger RTTaskAPrac Prime_4N Target_1A fJmdHiG lHgheba Congruent right correct Normal 357.8375
804 21 LeftLarger RTTaskAPrac Prime_6N Target_4N IcaJDif maMJLDK Incongruent left error Normal 390.8683
804 22 LeftLarger RTTaskAPrac Prime_6A Target_6A JlCdMcD fAhaFLK Congruent left correct Normal 697.2901
804 23 LeftLarger RTTaskAPrac Prime_4N Target_9N jhgFlEd eGdFhfk Incongruent left correct Normal 831.8497
804 24 LeftLarger RTTaskAPrac Prime_4A Target_1A GieDhcB EGfgFde Congruent right correct Normal 443.2384
804 25 LeftLarger RTTaskAPrac Prime_6N Target_4N lLcIdDG bLhDIeK Incongruent right correct Normal 587.6731
804 26 LeftLarger RTTaskAPrac Prime_9A Target_6A ejbIMhG IefmjCF Congruent left correct Normal 666.9717
804 27 LeftLarger RTTaskAExp1 Prime_1N Target_1A EJLgIjD GbckHKl Congruent right correct Normal 673.0983
804 28 LeftLarger RTTaskAExp1 Prime_4A Target_4A CKlgheM jFhADIe Congruent right correct Normal 616.5228
804 29 LeftLarger RTTaskAExp1 Prime_6A Target_4N AHEdbik BmikAfC Incongruent right correct Normal 546.8165
804 30 LeftLarger RTTaskAExp1 Prime_9N Target_9N kflEbgj IbBkiKd Congruent left correct Normal 440.6295
804 31 LeftLarger RTTaskAExp1 Prime_6N Target_1N kCbMHEh AfkDHGC Incongruent right correct Normal 415.5319
804 32 LeftLarger RTTaskAExp1 Prime_4A Target_1N FGakcDe edBDEHl Congruent right correct Normal 397.0768
804 33 LeftLarger RTTaskAExp1 Prime_4A Target_9N FgKkDaj EdkDIef Incongruent left correct Normal 499.0012
804 34 LeftLarger RTTaskAExp1 Prime_9N Target_1A MfGLcad fDAGmgd Incongruent left error Normal 551.7878
804 35 LeftLarger RTTaskAExp1 Prime_4N Target_6N eCaIEBc iBjeLKg Incongruent right error Normal 630.8079
804 36 LeftLarger RTTaskAExp1 Prime_4A Target_1A liMgaKe aLfmAHE Congruent left error Normal 485.7874
804 37 LeftLarger RTTaskAExp1 Prime_9N Target_6N LaDCkBM AdCibBa Congruent left correct Normal 761.4513
804 38 LeftLarger RTTaskAExp1 Prime_6N Target_1A KBEGHhA mAiCBEG Incongruent right correct Normal 517.4683
804 39 LeftLarger RTTaskAExp1 Prime_9A Target_1N kedgGJF kaEAfdc Incongruent right correct Normal 670.8656
804 40 LeftLarger RTTaskAExp1 Prime_1A Target_9N EDILkaJ HdJFfAg Incongruent left correct Normal 797.4664
804 41 LeftLarger RTTaskAExp1 Prime_6N Target_9N AMbEIgL BdbAeih Congruent left correct Normal 580.0632
804 42 LeftLarger RTTaskAExp1 Prime_6N Target_6A AehEGlL jaIebGc Congruent left correct Normal 764.3821
804 43 LeftLarger RTTaskAExp1 Prime_6A Target_6N ghLfHIc JgFeijk Congruent left correct Normal 942.4511
804 44 LeftLarger RTTaskAExp1 Prime_6A Target_9N BceDlEa eIJdgLb Congruent left correct Normal 725.2805
804 45 LeftLarger RTTaskAExp1 Prime_6A Target_4A FejfcIH EbCGIad Incongruent right correct Normal 464.8207
804 46 LeftLarger RTTaskAExp1 Prime_9N Target_1N CAkaglF KgdHkmj Incongruent right correct Normal 626.1375
804 47 LeftLarger RTTaskAExp1 Prime_6N Target_6N MalFbGE IcFdaEB Congruent left correct Normal 664.791
804 48 LeftLarger RTTaskAExp1 Prime_4A Target_1A BCkijLd cbFfdCH Congruent right correct Normal 532.4293
804 49 LeftLarger RTTaskAExp1 Prime_4N Target_4N khMEIBA EDjGfFL Congruent left error Normal 512.129
804 50 LeftLarger RTTaskAExp1 Prime_4N Target_4A lcMfeai FaJmgMB Congruent right correct Normal 522.4434
804 51 LeftLarger RTTaskAExp1 Prime_4N Target_1A abCHMEc hCmclDg Congruent right correct Normal 490.1819
804 52 LeftLarger RTTaskAExp1 Prime_1N Target_6N hHJFLkB eMABkcK Incongruent left correct Normal 689.3489
804 53 LeftLarger RTTaskAExp1 Prime_1A Target_9A Ffdlcjb mHKlckI Incongruent left correct Normal 619.4247
804 54 LeftLarger RTTaskAExp1 Prime_4N Target_4N EhdlaFK CmeEjfc Congruent right correct Normal 501.5859
804 55 LeftLarger RTTaskAExp1 Prime_4A Target_6N fgHichM ciGIJjL Incongruent left correct Normal 639.4197
804 56 LeftLarger RTTaskAExp1 Prime_1A Target_4A kFhGgBA KAdmiMj Congruent right correct Late 1252.552
804 57 LeftLarger RTTaskAExp1 Prime_4A Target_6A KhdJmfF FHKgAlJ Incongruent left correct Normal 594.6478
804 58 LeftLarger RTTaskAExp1 Prime_9N Target_4A AMcjKeb bCDAGHB Incongruent left error Normal 486.183
804 59 LeftLarger RTTaskAExp1 Prime_4N Target_9N aDbkLfi Dfgdhbe Incongruent left correct Normal 738.8111
804 60 LeftLarger RTTaskAExp1 Prime_4N Target_6N kEHhlFg eMKfabl Incongruent right error Normal 573.3001
804 61 LeftLarger RTTaskAExp1 Prime_6A Target_9A lGkLcIC MGagdAF Congruent left correct Normal 552.726
804 62 LeftLarger RTTaskAExp1 Prime_1N Target_6A hFLgEiM lFmaKhf Incongruent left correct Normal 818.3421
804 63 LeftLarger RTTaskAExp1 Prime_4N Target_6N hGAMFcm JIiCEKk Incongruent left correct Normal 669.2094
804 64 LeftLarger RTTaskAExp1 Prime_9A Target_4N djICMEh LdKbfjE Incongruent right correct Normal 622.8063
804 65 LeftLarger RTTaskAExp1 Prime_1N Target_4N fFDMGBe MEmfheK Congruent right correct Normal 493.8961
804 66 LeftLarger RTTaskAExp1 Prime_1A Target_4N mIDFLGA JmCHAFj Congruent right correct Normal 531.0264
804 67 LeftLarger RTTaskAExp1 Prime_1A Target_1N cDfFGlg kLjMIGm Congruent right correct Normal 478.1154
804 68 LeftLarger RTTaskAExp1 Prime_6N Target_4N CJAEHbI JIGhjgi Incongruent right correct Normal 431.383
804 69 LeftLarger RTTaskAExp1 Prime_9A Target_4A ecgHGfh CcJgjdG Incongruent right correct Normal 467.6984
804 70 LeftLarger RTTaskAExp1 Prime_9N Target_1A IAHiBfc CMFickj Incongruent right correct Normal 548.3512
804 71 LeftLarger RTTaskAExp1 Prime_1N Target_9A dmgJalC GEFBigl Incongruent left correct Normal 467.417
804 72 LeftLarger RTTaskAExp1 Prime_9N Target_4A mEcKiaD CKfcIDL Incongruent right correct Normal 675.4367
804 73 LeftLarger RTTaskAExp1 Prime_1N Target_4A KHeCLlc CHJLhFm Congruent right correct Normal 381.9928
804 74 LeftLarger RTTaskAExp1 Prime_9A Target_1A CaHhkiL bamJLEI Incongruent right correct Normal 461.7782
804 75 LeftLarger RTTaskAExp1 Prime_6A Target_1N LlGajIF mickJCA Incongruent left error Normal 402.2052
804 76 LeftLarger RTTaskAExp1 Prime_1A Target_4A fJdiEce GAlJcEa Congruent right correct Normal 358.2637
804 77 LeftLarger RTTaskAExp1 Prime_9A Target_9A ichlKfI jbiIMhE Congruent left correct Normal 358.5557
804 78 LeftLarger RTTaskAExp1 Prime_1N Target_9N McfFkhm fbFKDeA Incongruent right error Normal 559.6182
804 79 LeftLarger RTTaskAExp1 Prime_6A Target_6A DfIFGaC imGILjc Congruent left correct Normal 748.0284
804 80 LeftLarger RTTaskAExp1 Prime_6N Target_4A AIBDmej DBaeigG Incongruent right correct Normal 440.1803
804 81 LeftLarger RTTaskAExp1 Prime_4N Target_6A aikDcgC DjhfmcG Incongruent left correct Normal 535.6766
804 82 LeftLarger RTTaskAExp1 Prime_9A Target_9N AidGjfh fKCkgjE Congruent left correct Normal 582.9754
804 83 LeftLarger RTTaskAExp1 Prime_1A Target_6A kdafADm MJljeKC Incongruent right error Normal 595.6899
804 84 LeftLarger RTTaskAExp1 Prime_4A Target_9A lbchAeg cGMiEeb Incongruent left correct Normal 442.6299
804 85 LeftLarger RTTaskAExp1 Prime_1N Target_1N GdDgbeC bFBfdIA Congruent right correct Normal 435.4777
804 86 LeftLarger RTTaskAExp1 Prime_1A Target_6A FlDiCfh CElgeic Incongruent left correct Normal 480.8003
804 87 LeftLarger RTTaskAExp1 Prime_6A Target_1A iChcaGl hMjIEKA Incongruent right correct Normal 449.3917
804 88 LeftLarger RTTaskAExp1 Prime_9A Target_6N kMcbEdB afBAKdl Congruent left correct Normal 619.1206
804 89 LeftLarger RTTaskAExp1 Prime_9A Target_6A FKbkBLh gHGkLIE Congruent left correct Normal 379.6897
804 90 LeftLarger RTTaskAExp1 Prime_9N Target_6A AIDMBkh IimDkaf Congruent left correct Normal 361.3438
804 91 LeftLarger RTTaskAExp1 Prime_9N Target_4N hlgiJdj HidkKBa Incongruent right correct Normal 533.1832
804 92 LeftLarger RTTaskAExp1 Prime_6A Target_1N gdcFlaE aAmfjJF Incongruent right correct Normal 582.2005
804 93 LeftLarger RTTaskAExp1 Prime_4N Target_1N mCDHhKJ mLIdiEG Congruent right correct Normal 447.4943
804 94 LeftLarger RTTaskAExp1 Prime_9N Target_9A gGbcdjB AbMhJlG Congruent left correct Normal 369.7809
804 95 LeftLarger RTTaskAExp1 Prime_6N Target_9A iMmBGhg ejfKiCl Congruent left correct Normal 482.4321
804 96 LeftLarger RTTaskAExp1 Prime_1A Target_6N lGHIjcC fLEAjBl Incongruent right error Normal 517.9959
804 97 LeftLarger RTTaskAExp1 Prime_1N Target_9N DGfdaIB BfGFIAj Incongruent left correct Normal 483.6562
804 98 LeftLarger RTTaskAExp1 Prime_4A Target_4N ihAFKed dakFmeJ Congruent right correct Normal 539.8047
804 99 LeftLarger RTTaskAExp1 Prime_4N Target_9A lEkAFfL AKalHih Incongruent left correct Normal 467.7735
804 100 LeftLarger RTTaskAExp1 Prime_1A Target_6N gGMFHIb ebgaiIc Incongruent right error Normal 639.2743
804 101 LeftLarger RTTaskAExp1 Prime_1A Target_6N FGdAMaj bLhCAlj Incongruent left correct Normal 560.8869
804 102 LeftLarger RTTaskAExp1 Prime_1A Target_1A HiGKjhg LIeBJdA Congruent right correct Normal 411.1625
804 103 LeftLarger RTTaskAExp2 Prime_4N Target_4N DMGbIlL bBmkJgH Congruent right correct Normal 541.072
804 104 LeftLarger RTTaskAExp2 Prime_1N Target_6A aimbJgI JDibLjG Incongruent right error Normal 339.3599
804 105 LeftLarger RTTaskAExp2 Prime_1N Target_6A LEaiFIM CcJeIEA Incongruent right error Normal 575.0079
804 106 LeftLarger RTTaskAExp2 Prime_4A Target_6A mcgGLfk hmcGAgk Incongruent left correct Normal 526.6227
804 107 LeftLarger RTTaskAExp2 Prime_1N Target_6A AleJKBk kchHfjm Incongruent left correct Normal 461.3975
804 108 LeftLarger RTTaskAExp2 Prime_9A Target_9A FmLhClK jkCfcba Congruent left correct Normal 937.0763
804 109 LeftLarger RTTaskAExp2 Prime_9A Target_9N jaJMfGe mIgGADa Congruent left correct Normal 581.1312
804 110 LeftLarger RTTaskAExp2 Prime_6A Target_9N lKCJMiE AMDJGjE Congruent left correct Normal 805.6741
804 111 LeftLarger RTTaskAExp2 Prime_6N Target_9N fFCjhBI clHjFkf Congruent left correct Normal 554.4476
804 112 LeftLarger RTTaskAExp2 Prime_4N Target_1N ajIlkBf BFmklic Congruent right correct Normal 406.8927
804 113 LeftLarger RTTaskAExp2 Prime_9N Target_6N ICEbDmf gMCAhKJ Congruent left correct Normal 611.379
804 114 LeftLarger RTTaskAExp2 Prime_9N Target_9N GfIiCEJ aGgAJjK Congruent left correct Normal 473.8311
804 115 LeftLarger RTTaskAExp2 Prime_6N Target_1N hdIbmKk bkaEheB Incongruent left error Normal 392.8584
804 116 LeftLarger RTTaskAExp2 Prime_4N Target_4A fmaBlMk DEFkJGA Congruent right correct Normal 534.8233
804 117 LeftLarger RTTaskAExp2 Prime_1A Target_9A fAbaMIB fBdHAJm Incongruent left correct Normal 563.5963
804 118 LeftLarger RTTaskAExp2 Prime_1A Target_1N LidcIkb cAMdgCJ Congruent right correct Normal 574.6451
804 119 LeftLarger RTTaskAExp2 Prime_1A Target_9N LIHCjiD ckiLflK Incongruent left correct Normal 595.5107
804 120 LeftLarger RTTaskAExp2 Prime_1A Target_6N DHJIFeE JhlEFmb Incongruent left correct Normal 674.7076
804 121 LeftLarger RTTaskAExp2 Prime_9A Target_1N HkeJadf GIkcgBl Incongruent right correct Normal 597.1531
804 122 LeftLarger RTTaskAExp2 Prime_9A Target_4A KhdIfel AHhcaCI Incongruent right correct Normal 611.3215
804 123 LeftLarger RTTaskAExp2 Prime_4A Target_6N dgLjFEG IEkMFDm Incongruent left correct Normal 556.8617
804 124 LeftLarger RTTaskAExp2 Prime_1N Target_9A MjJeDBa iDfdAjG Incongruent left correct Normal 473.2725
804 125 LeftLarger RTTaskAExp2 Prime_4N Target_6N bmEMkHj cbmILFg Incongruent left correct Normal 531.0811
804 126 LeftLarger RTTaskAExp2 Prime_6A Target_4N cJCbadl ebELkKl Incongruent right correct Normal 522.3773
804 127 LeftLarger RTTaskAExp2 Prime_6N Target_1A bfKijJh fdiAlJk Incongruent right correct Normal 382.7877
804 128 LeftLarger RTTaskAExp2 Prime_9N Target_9A lJiBEDf AJDgKhk Congruent left correct Normal 455.2637
804 129 LeftLarger RTTaskAExp2 Prime_4N Target_9A JEFiCcB EAleKDG Incongruent left correct Normal 540.1094
804 130 LeftLarger RTTaskAExp2 Prime_6N Target_4N ieImKfk icClKHd Incongruent right correct Normal 466.6355
804 131 LeftLarger RTTaskAExp2 Prime_4A Target_1A HLdKgha imbhHKI Congruent right correct Normal 378.2121
804 132 LeftLarger RTTaskAExp2 Prime_6A Target_1N AbLCKgB HebFimB Incongruent right correct Normal 423.3583
804 133 LeftLarger RTTaskAExp2 Prime_1N Target_4A JdajLBb jJdaEMh Congruent right correct Normal 481.7858
804 134 LeftLarger RTTaskAExp2 Prime_4A Target_9N ClFAmbg JMdlGHE Incongruent left correct Normal 592.559
804 135 LeftLarger RTTaskAExp2 Prime_1A Target_4A ikEajCJ alBkMJD Congruent right correct Normal 739.3254
804 136 LeftLarger RTTaskAExp2 Prime_9N Target_1N EjheDGm kAcbFGg Incongruent right correct Normal 583.1565
804 137 LeftLarger RTTaskAExp2 Prime_4N Target_9N HIciafm afGhCde Incongruent left correct Normal 657.9268
804 138 LeftLarger RTTaskAExp2 Prime_1A Target_1A gfledEc bkKIJLf Congruent right correct Normal 582.2523
804 139 LeftLarger RTTaskAExp2 Prime_6A Target_4A fCBLDbm gfECLIe Incongruent right correct Normal 435.6708
804 140 LeftLarger RTTaskAExp2 Prime_1A Target_6A JaHCjKe aMlKmjA Incongruent left correct Normal 514.9614
804 141 LeftLarger RTTaskAExp2 Prime_6A Target_9A kemJKHI dgFLfKJ Congruent left correct Normal 736.995
804 142 LeftLarger RTTaskAExp2 Prime_6N Target_1N HiBAEmd mjGBlEi Incongruent right correct Normal 459.0394
804 143 LeftLarger RTTaskAExp2 Prime_6A Target_6A HIldkiJ hbmkKJe Congruent left correct Normal 432.0751
804 144 LeftLarger RTTaskAExp2 Prime_6N Target_6N hAFMKib BmjgHFf Congruent left correct Normal 632.1017
804 145 LeftLarger RTTaskAExp2 Prime_1N Target_4N iHkaAmd FMachlE Congruent right correct Normal 395.2328
804 146 LeftLarger RTTaskAExp2 Prime_1A Target_4N ClckmKd kbDFAgE Congruent right correct Normal 564.9526
804 147 LeftLarger RTTaskAExp2 Prime_9A Target_4N jKMlcCL hDABHjf Incongruent right correct Normal 488.9746
804 148 LeftLarger RTTaskAExp2 Prime_9A Target_1A DaLMCih ekAKjEF Incongruent right correct Normal 732.7872
804 149 LeftLarger RTTaskAExp2 Prime_4A Target_9A bjmelcD gdbKjhE Incongruent left correct Normal 507.5908
804 150 LeftLarger RTTaskAExp2 Prime_9N Target_1A MhJabLK AkajJbG Incongruent left error Normal 385.7467
804 151 LeftLarger RTTaskAExp2 Prime_6N Target_6A gabGJBf MEdeifA Congruent left correct Normal 501.9302
804 152 LeftLarger RTTaskAExp2 Prime_6A Target_6N iaFgDJd eFdaAEg Congruent left correct Normal 519.3573
804 153 LeftLarger RTTaskAExp2 Prime_1N Target_1N CGdJAEl FGakcbi Congruent right correct Normal 421.7489
804 154 LeftLarger RTTaskAExp2 Prime_9A Target_6N DKfjhJi HjiLMId Congruent left correct Normal 602.9006
804 155 LeftLarger RTTaskAExp2 Prime_9N Target_4A HdGAajJ GBilDjF Incongruent right correct Normal 482.6115
804 156 LeftLarger RTTaskAExp2 Prime_4N Target_6A AlaBMLd lmcfgHB Incongruent left correct Normal 362.9196
804 157 LeftLarger RTTaskAExp2 Prime_4A Target_4N LDIKFBE MkdgiFe Congruent right correct Normal 466.9415
804 158 LeftLarger RTTaskAExp2 Prime_6A Target_1A hkmKMgc IGaDhCg Incongruent left error Normal 360.1002
804 159 LeftLarger RTTaskAExp2 Prime_9A Target_6A fcdFDLe lGcAkbf Congruent left correct Normal 623.2796
804 160 LeftLarger RTTaskAExp2 Prime_1N Target_1A IfGMjiA MLKEkBd Congruent right correct Normal 621.3297
804 161 LeftLarger RTTaskAExp2 Prime_9N Target_4N BebAMml cdKFDjm Incongruent right correct Normal 528.2192
804 162 LeftLarger RTTaskAExp2 Prime_6N Target_9A GEakbch mIhKGCB Congruent left correct Normal 533.5348
804 163 LeftLarger RTTaskAExp2 Prime_1N Target_6N DlCAKem lCBbHAJ Incongruent right error Normal 840.6805
804 164 LeftLarger RTTaskAExp2 Prime_4N Target_1A EaJDHif blKGCkc Congruent right correct Normal 494.04
804 165 LeftLarger RTTaskAExp2 Prime_6N Target_4A AIChMfH eLhlaBJ Incongruent right correct Normal 612.5623
804 166 LeftLarger RTTaskAExp2 Prime_1N Target_6N LCIAklj fikcaAE Incongruent left correct Normal 589.2007
804 167 LeftLarger RTTaskAExp2 Prime_9N Target_6A BcHlFDM gBdAMhf Congruent left correct Normal 570.7813
804 168 LeftLarger RTTaskAExp2 Prime_4A Target_1N jDFkHbA kmIAadh Congruent right correct Normal 439.2038
804 169 LeftLarger RTTaskAExp2 Prime_9N Target_1A KlhLJCM dcKLMlf Incongruent right correct Normal 529.2222
804 170 LeftLarger RTTaskAExp2 Prime_6A Target_1A LcMCKBi IiDMfjl Incongruent right correct Normal 472.0342
804 171 LeftLarger RTTaskAExp2 Prime_1N Target_9N mMJDKgi EfFcLlI Incongruent left correct Normal 518.5601
804 172 LeftLarger RTTaskAExp2 Prime_4A Target_4A HIlDgLA abhkKjl Congruent right correct Normal 555.0693
804 173 LeftSmaller RTTaskBPrac Prime_6N Target_4A eiaBDKf ijaBCfE Incongruent left correct Late 1073.991
804 174 LeftSmaller RTTaskBPrac Prime_6A Target_1A lEaFLDg klbdafI Incongruent left correct Normal 386.3526
804 175 LeftSmaller RTTaskBPrac Prime_4N Target_9A GKiLkCJ giafJhe Incongruent right correct Normal 556.5136
804 176 LeftSmaller RTTaskBPrac Prime_6N Target_1N eKELMmH DFjIECL Incongruent left correct Normal 369.7863
804 177 LeftSmaller RTTaskBPrac Prime_1N Target_4N EHleMdj iELeCIA Congruent left correct Normal 400.2071
804 178 LeftSmaller RTTaskBPrac Prime_6N Target_4A BhgFcDA ILHCDKB Incongruent left correct Normal 444.2459
804 179 LeftSmaller RTTaskBPrac Prime_6N Target_6A KeaJCME EbagcAl Congruent right correct Normal 563.2969
804 180 LeftSmaller RTTaskBPrac Prime_1N Target_1A ECcHgjm ahlcJbG Congruent left correct Normal 375.7343
804 181 LeftSmaller RTTaskBPrac Prime_4A Target_9A lLAIKBD LCAEGJM Incongruent right correct Normal 467.2219
804 182 LeftSmaller RTTaskBPrac Prime_4N Target_1A GgelCfD JIMdKeL Congruent left correct Normal 308.9258
804 183 LeftSmaller RTTaskBPrac Prime_6A Target_4N kDfcFgK FkLcBef Incongruent left correct Normal 557.952
804 184 LeftSmaller RTTaskBPrac Prime_9A Target_1N dicaBje fBjgJkC Incongruent left correct Normal 616.1182
804 185 LeftSmaller RTTaskBPrac Prime_4A Target_1N hmLFbKI hdameHE Congruent left correct Normal 541.5303
804 186 LeftSmaller RTTaskBPrac Prime_1A Target_6A AIjEDiM MBejKJf Incongruent right correct Normal 432.3258
804 187 LeftSmaller RTTaskBPrac Prime_9A Target_6A HfjhmcC IFAgCkm Congruent right correct Normal 584.7384
804 188 LeftSmaller RTTaskBPrac Prime_6N Target_9A FkIKcJl JcmIdah Congruent right correct Normal 584.7844
804 189 LeftSmaller RTTaskBPrac Prime_6A Target_6A gBdjGfh lDdFKIL Congruent right correct Normal 462.0868
804 190 LeftSmaller RTTaskBExp1 Prime_1N Target_6N iaJlAbG AcbfHEM Incongruent right correct Normal 585.7023
804 191 LeftSmaller RTTaskBExp1 Prime_9A Target_6N FJEhAHc jLklGdb Congruent left error Normal 375.4915
804 192 LeftSmaller RTTaskBExp1 Prime_6N Target_9N JKMfBGe fEgMCeh Congruent right correct Normal 593.9119
804 193 LeftSmaller RTTaskBExp1 Prime_9A Target_1N JejFcBG eiCgkHl Incongruent left correct Normal 542.2172
804 194 LeftSmaller RTTaskBExp1 Prime_6A Target_1N gfjHJBD DemfjlC Incongruent left correct Normal 515.0178
804 195 LeftSmaller RTTaskBExp1 Prime_4N Target_1A KdemHBM mIcGjFD Congruent left correct Normal 438.9111
804 196 LeftSmaller RTTaskBExp1 Prime_6N Target_4N bBgDJke ajdFDCI Incongruent right error Normal 453.0641
804 197 LeftSmaller RTTaskBExp1 Prime_6A Target_6A fdhDCMj ckdJHaf Congruent right correct Normal 436.3115
804 198 LeftSmaller RTTaskBExp1 Prime_9A Target_1A hcgBkme MagedkE Incongruent left correct Normal 465.5508
804 199 LeftSmaller RTTaskBExp1 Prime_6A Target_9A mEadklF LmFjheg Congruent right correct Normal 550.8271
804 200 LeftSmaller RTTaskBExp1 Prime_1A Target_4A GiELAdk lcifgaB Congruent left correct Normal 468.5725
804 201 LeftSmaller RTTaskBExp1 Prime_4A Target_9N EAJDBad klmIcbF Incongruent right correct Normal 560.1771
804 202 LeftSmaller RTTaskBExp1 Prime_1A Target_4N eFEHlDi eamHKCj Congruent left correct Normal 566.7525
804 203 LeftSmaller RTTaskBExp1 Prime_6N Target_9A JlGbEIM EIMmbBh Congruent right correct Normal 439.2877
804 204 LeftSmaller RTTaskBExp1 Prime_4N Target_6N HhBgkiA jcFhbGJ Incongruent right correct Normal 536.065
804 205 LeftSmaller RTTaskBExp1 Prime_4A Target_1A fBMeADm iDgLald Congruent left correct Normal 437.6929
804 206 LeftSmaller RTTaskBExp1 Prime_4A Target_4N icjemEK EbMJDiI Congruent left correct Normal 513.8827
804 207 LeftSmaller RTTaskBExp1 Prime_6N Target_1A gDAckEK KLDIGcd Incongruent left correct Normal 356.614
804 208 LeftSmaller RTTaskBExp1 Prime_4N Target_1N mJEkiFa cDiCgdG Congruent left correct Normal 529.4219
804 209 LeftSmaller RTTaskBExp1 Prime_1N Target_9N lgLfBaK BfcadkG Incongruent right correct Normal 646.6263
804 210 LeftSmaller RTTaskBExp1 Prime_6A Target_9N DmAMbiC jKmiDMF Congruent right correct Normal 528.3248
804 211 LeftSmaller RTTaskBExp1 Prime_6N Target_4N ldfJjCK BklhAMm Incongruent left correct Normal 541.8023
804 212 LeftSmaller RTTaskBExp1 Prime_4A Target_4A BIlfaCj EikhCcG Congruent left correct Normal 349.0315
804 213 LeftSmaller RTTaskBExp1 Prime_1N Target_4A gbeBmJE EKLamDI Congruent left correct Normal 431.1397
804 214 LeftSmaller RTTaskBExp1 Prime_9N Target_6N BJkAiMf KcedfDb Congruent right correct Normal 585.0994
804 215 LeftSmaller RTTaskBExp1 Prime_1A Target_9A kLbfhHF gldcfie Incongruent left error Normal 529.2708
804 216 LeftSmaller RTTaskBExp1 Prime_6N Target_6N LgCcafb LkGaKjA Congruent right correct Normal 558.6914
804 217 LeftSmaller RTTaskBExp1 Prime_1A Target_1N LDHBAhC DcJEaFC Congruent left correct Normal 559.5637
804 218 LeftSmaller RTTaskBExp1 Prime_9N Target_1A elGgiLA gjBJeah Incongruent left correct Normal 461.034
804 219 LeftSmaller RTTaskBExp1 Prime_9N Target_9N bgBGLEd dFemHKl Congruent right correct Normal 428.7189
804 220 LeftSmaller RTTaskBExp1 Prime_4N Target_9N EKAmMki bIFgiJk Incongruent right correct Normal 473.9994
804 221 LeftSmaller RTTaskBExp1 Prime_6A Target_1A fBkKHLm aEDLiIg Incongruent left correct Normal 406.8054
804 222 LeftSmaller RTTaskBExp1 Prime_9A Target_9A bdDCAIm hHDcKkf Congruent right correct Normal 344.7777
804 223 LeftSmaller RTTaskBExp1 Prime_9A Target_6A eaiCgId eDBKikf Congruent left error Late 1001.894
804 224 LeftSmaller RTTaskBExp1 Prime_1A Target_1A bjAJkcI LlmCcIJ Congruent left correct Normal 374.1433
804 225 LeftSmaller RTTaskBExp1 Prime_9A Target_6N hgiEfGF fidGmhA Congruent right correct Normal 608.4369
804 226 LeftSmaller RTTaskBExp1 Prime_1A Target_6A AkHFCiI IMilHkc Incongruent right correct Normal 528.7896
804 227 LeftSmaller RTTaskBExp1 Prime_1A Target_6N FIgaCde cbDFKGa Incongruent right correct Normal 650.756
804 228 LeftSmaller RTTaskBExp1 Prime_4A Target_6N dDIkJAc dckhGfC Incongruent right correct Normal 727.0326
804 229 LeftSmaller RTTaskBExp1 Prime_9N Target_4A caAMhgf CaELKmj Incongruent left correct Normal 845.7748
804 230 LeftSmaller RTTaskBExp1 Prime_1N Target_9A LejcIKB MDbAgEK Incongruent right correct Normal 400.8299
804 231 LeftSmaller RTTaskBExp1 Prime_1N Target_1N ijdHEIe HfceAIa Congruent right error Normal 589.5833
804 232 LeftSmaller RTTaskBExp1 Prime_1N Target_6A glkcmEK LmFaIiJ Incongruent right correct Normal 664.872
804 233 LeftSmaller RTTaskBExp1 Prime_9A Target_4A jeihCAF kGMJCfg Incongruent left correct Normal 484.0534
804 234 LeftSmaller RTTaskBExp1 Prime_9A Target_9N aIeDKFE BjECafI Congruent right correct Normal 446.515
804 235 LeftSmaller RTTaskBExp1 Prime_9A Target_4N EgBbADc cMBdjDL Incongruent left correct Normal 510.4093
804 236 LeftSmaller RTTaskBExp1 Prime_6N Target_1N Icbdekh fjIbhBA Incongruent left correct Normal 580.9768
804 237 LeftSmaller RTTaskBExp1 Prime_6N Target_4A GgdJMIC iClJEkG Incongruent left correct Normal 628.743
804 238 LeftSmaller RTTaskBExp1 Prime_4N Target_9A cjEKLAk kmlDIHJ Incongruent right correct Normal 496.3255
804 239 LeftSmaller RTTaskBExp1 Prime_9A Target_6A EJflFLd GeAKmic Congruent right correct Normal 721.9238
804 240 LeftSmaller RTTaskBExp1 Prime_1A Target_9N FKfIegE dEGCAJj Incongruent right correct Normal 571.9184
804 241 LeftSmaller RTTaskBExp1 Prime_1N Target_4N MFjLdJh EBhFIMH Congruent right error Normal 726.821
804 242 LeftSmaller RTTaskBExp1 Prime_4A Target_1N cDIALkM eKBgkdA Congruent left correct Normal 576.7641
804 243 LeftSmaller RTTaskBExp1 Prime_9N Target_6A iAdFcej jJDiCKk Congruent right correct Normal 405.879
804 244 LeftSmaller RTTaskBExp1 Prime_4A Target_9A GfhjCaK ilBkJdg Incongruent right correct Normal 505.7287
804 245 LeftSmaller RTTaskBExp1 Prime_6N Target_6A HFhGBcj KEeILcJ Congruent right correct Normal 502.8858
804 246 LeftSmaller RTTaskBExp1 Prime_6A Target_4N CMbmgBe CKdaDhG Incongruent left correct Normal 541.2527
804 247 LeftSmaller RTTaskBExp1 Prime_9N Target_1N AlMDBLE iAfIjDa Incongruent left correct Normal 471.516
804 248 LeftSmaller RTTaskBExp1 Prime_9N Target_4N dbLDBia fIEKaAe Incongruent left correct Normal 576.392
804 249 LeftSmaller RTTaskBExp1 Prime_1A Target_9A MgKbICL jhAeMkD Incongruent right correct Normal 526.4371
804 250 LeftSmaller RTTaskBExp1 Prime_1N Target_4N AlfgHhC Iheadbi Congruent left correct Normal 499.1624
804 251 LeftSmaller RTTaskBExp1 Prime_4N Target_4A DMGIEdf MILAjFd Congruent left correct Normal 450.6477
804 252 LeftSmaller RTTaskBExp1 Prime_4N Target_4N ELDhFbC HamkbjJ Congruent left correct Normal 494.5584
804 253 LeftSmaller RTTaskBExp1 Prime_4N Target_6A gFJBHfc dLaHkBi Incongruent right correct Normal 498.0888
804 254 LeftSmaller RTTaskBExp1 Prime_4A Target_6A HBikbMG hblJaDc Incongruent right correct Normal 577.827
804 255 LeftSmaller RTTaskBExp1 Prime_6A Target_6N fiGJMkh HmLghGI Congruent right correct Normal 487.9639
804 256 LeftSmaller RTTaskBExp1 Prime_6A Target_4A EMaAHBC EMkJFjc Incongruent left correct Normal 474.3572
804 257 LeftSmaller RTTaskBExp1 Prime_9N Target_9A hjLIedl lMefdmk Congruent right correct Normal 481.8835
804 258 LeftSmaller RTTaskBExp1 Prime_1N Target_1A LEGFebd MHgDkBh Congruent left correct Normal 465.169
804 259 LeftSmaller RTTaskBExp1 Prime_1N Target_1N IDkfGAh aABJeMC Congruent left correct Normal 478.1133
804 260 LeftSmaller RTTaskBExp2 Prime_4A Target_9N LbBHjah LkmlhMI Incongruent right correct Normal 522.7195
804 261 LeftSmaller RTTaskBExp2 Prime_6A Target_4A jbhACBG ibJfFHj Incongruent left correct Normal 391.0045
804 262 LeftSmaller RTTaskBExp2 Prime_4A Target_4N ifcImdM LCeEgbk Congruent left correct Normal 477.1629
804 263 LeftSmaller RTTaskBExp2 Prime_1A Target_1N DkebEHB hdbCEGF Congruent left correct Normal 491.6547
804 264 LeftSmaller RTTaskBExp2 Prime_9N Target_9N MDFHaLi gGLclBf Congruent right correct Normal 348.2554
804 265 LeftSmaller RTTaskBExp2 Prime_1N Target_4A KJEcdBl fGhckFJ Congruent left correct Normal 337.6687
804 266 LeftSmaller RTTaskBExp2 Prime_4A Target_6N dGhfCki HihdEba Incongruent right correct Normal 514.2426
804 267 LeftSmaller RTTaskBExp2 Prime_9N Target_1A cmhlAkf IAalCBk Incongruent left correct Normal 585.1202
804 268 LeftSmaller RTTaskBExp2 Prime_6A Target_1N aHBCicI FKbBmgA Incongruent left correct Normal 587.1482
804 269 LeftSmaller RTTaskBExp2 Prime_6A Target_9N FEKJeHC GEBMaDf Congruent right correct Normal 560.0857
804 270 LeftSmaller RTTaskBExp2 Prime_4N Target_4A mIfhecD emkMgbI Congruent left correct Normal 358.2514
804 271 LeftSmaller RTTaskBExp2 Prime_9N Target_6N bmeAafM JbFamIB Congruent right correct Normal 446.4176
804 272 LeftSmaller RTTaskBExp2 Prime_1A Target_4A MaJdILG ijBEMCc Congruent left correct Normal 593.7038
804 273 LeftSmaller RTTaskBExp2 Prime_9N Target_9A bakLiGF mbclACJ Congruent right correct Normal 374.755
804 274 LeftSmaller RTTaskBExp2 Prime_6N Target_9N jcHDdCB HaLjkME Congruent right correct Normal 633.4433
804 275 LeftSmaller RTTaskBExp2 Prime_6N Target_6N ghACMbm feLAEgl Congruent right correct Normal 662.6429
804 276 LeftSmaller RTTaskBExp2 Prime_1N Target_9N kadABeH hlIKgbi Incongruent left error Normal 407.3912
804 277 LeftSmaller RTTaskBExp2 Prime_9A Target_1N jJMEhiK mAcjIah Incongruent left correct Normal 656.3111
804 278 LeftSmaller RTTaskBExp2 Prime_9A Target_4N GHgEike gFHaMfi Incongruent right error Normal 405.7278
804 279 LeftSmaller RTTaskBExp2 Prime_4N Target_6A DIHlLKf fFKHBia Incongruent right correct Normal 554.0299
804 280 LeftSmaller RTTaskBExp2 Prime_1N Target_9N iFkAejd GKJLbiD Incongruent right correct Normal 774.9316
804 281 LeftSmaller RTTaskBExp2 Prime_9A Target_6A LEjFcdA iCbImhL Congruent right correct Late 1038.978
804 282 LeftSmaller RTTaskBExp2 Prime_1N Target_1A acCLAfm lbJLgMf Congruent left correct Normal 444.8287
804 283 LeftSmaller RTTaskBExp2 Prime_6N Target_6A eaDkJdH IcdmLJk Congruent right correct Normal 748.0966
804 284 LeftSmaller RTTaskBExp2 Prime_9A Target_4A HIMjCgB cfBFIla Incongruent left correct Normal 548.7694
804 285 LeftSmaller RTTaskBExp2 Prime_1N Target_4N kfElMGI acKHJGb Congruent left correct Normal 662.5935
804 286 LeftSmaller RTTaskBExp2 Prime_1N Target_1N mEHhaIb EjAmlcC Congruent left correct Normal 440.3927
804 287 LeftSmaller RTTaskBExp2 Prime_4N Target_1N mLfdIMF mLMKJCk Congruent left correct Normal 444.665
804 288 LeftSmaller RTTaskBExp2 Prime_9N Target_4N gAKmEaD CEKDdmA Incongruent left correct Normal 553.2611
804 289 LeftSmaller RTTaskBExp2 Prime_9A Target_4N GMadACJ bkLdGcD Incongruent right error Normal 383.249
804 290 LeftSmaller RTTaskBExp2 Prime_1N Target_6A mkhielA FfhABiI Incongruent right correct Normal 588.1964
804 291 LeftSmaller RTTaskBExp2 Prime_4N Target_1A aFfHBlj gKLidFH Congruent left correct Normal 431.2154
804 292 LeftSmaller RTTaskBExp2 Prime_6N Target_1N HGeBijf acAKhkI Incongruent left correct Normal 524.2785
804 293 LeftSmaller RTTaskBExp2 Prime_4N Target_9A MHfgKGb bMjfFJl Incongruent right correct Normal 485.2536
804 294 LeftSmaller RTTaskBExp2 Prime_6N Target_9A GHDbCfl fIFKjdM Congruent right correct Normal 807.9669
804 295 LeftSmaller RTTaskBExp2 Prime_4N Target_6N cgGkDEe baJECjL Incongruent right correct Normal 862.2604
804 296 LeftSmaller RTTaskBExp2 Prime_6N Target_4A ecMEALg MFhJKLa Incongruent left correct Normal 477.4334
804 297 LeftSmaller RTTaskBExp2 Prime_1A Target_9N iBGKHfm LlEcDJC Incongruent right correct Normal 679.6041
804 298 LeftSmaller RTTaskBExp2 Prime_6A Target_9A hFMAlHc IdCkGmA Congruent right correct Normal 545.9042
804 299 LeftSmaller RTTaskBExp2 Prime_9A Target_1A ELBbCea DlfAEGg Incongruent left correct Normal 392.5257
804 300 LeftSmaller RTTaskBExp2 Prime_1A Target_6N gDMekAL fhekILM Incongruent right correct Normal 634.5594
804 301 LeftSmaller RTTaskBExp2 Prime_9A Target_4N ABglHKk fIJaMdi Incongruent left correct Normal 632.2783
804 302 LeftSmaller RTTaskBExp2 Prime_9A Target_9A cjdGbih lKeCfmc Congruent right correct Normal 376.3423
804 303 LeftSmaller RTTaskBExp2 Prime_6A Target_1A IkaLhlA abcjDFA Incongruent left correct Normal 507.0193
804 304 LeftSmaller RTTaskBExp2 Prime_4N Target_9N gICFdea DaGkFbJ Incongruent right correct Normal 519.7671
804 305 LeftSmaller RTTaskBExp2 Prime_1N Target_9A hDCcdjF ElFHcJL Incongruent left error Normal 354.4394
804 306 LeftSmaller RTTaskBExp2 Prime_1A Target_4N kdFBDhC mDkBfbA Congruent right error Normal 758.2395
804 307 LeftSmaller RTTaskBExp2 Prime_6N Target_4N KcJChiI FEMliHk Incongruent left correct Normal 583.5774
804 308 LeftSmaller RTTaskBExp2 Prime_9N Target_6A eLJjFfl ghDGFBJ Congruent right correct Normal 406.2184
804 309 LeftSmaller RTTaskBExp2 Prime_6A Target_4N BEDifGb AbKgdCm Incongruent left correct Normal 534.3532
804 310 LeftSmaller RTTaskBExp2 Prime_1A Target_6A LHFbAkm eflkMKE Incongruent right correct Normal 459.8175
804 311 LeftSmaller RTTaskBExp2 Prime_4A Target_6A LjGAcED fAgGFeE Incongruent right correct Normal 471.996
804 312 LeftSmaller RTTaskBExp2 Prime_1N Target_9A fgeaJjk bgGAkLD Incongruent right correct Normal 660.7445
804 313 LeftSmaller RTTaskBExp2 Prime_6N Target_1A EFidJhC DKcfkEH Incongruent left correct Normal 419.0502
804 314 LeftSmaller RTTaskBExp2 Prime_4A Target_1A aKdchHf kCbdeKf Congruent left correct Normal 681.1838
804 315 LeftSmaller RTTaskBExp2 Prime_4N Target_4N gJiKHAl CLJaMAi Congruent left correct Normal 618.0438
804 316 LeftSmaller RTTaskBExp2 Prime_9A Target_9N hbBkAHf lMhKDGL Congruent right correct Normal 550.0874
804 317 LeftSmaller RTTaskBExp2 Prime_4A Target_4A GEACDgF KHMDcbe Congruent left correct Normal 503.8479
804 318 LeftSmaller RTTaskBExp2 Prime_9A Target_6N JGLbiDK mDKMfjb Congruent right correct Normal 705.4003
804 319 LeftSmaller RTTaskBExp2 Prime_9N Target_4A ILDMmlF jgDFLBC Incongruent left correct Normal 460.7316
804 320 LeftSmaller RTTaskBExp2 Prime_4A Target_1N IcdFHib KkemdfG Congruent left correct Normal 610.6343
804 321 LeftSmaller RTTaskBExp2 Prime_9A Target_6A CfIgDbj FlELIhH Congruent right correct Normal 366.9344
804 322 LeftSmaller RTTaskBExp2 Prime_6A Target_6N hJgAIib lcgGKBJ Congruent right correct Normal 533.9743
804 323 LeftSmaller RTTaskBExp2 Prime_1A Target_9A CEAieHJ AjEkdJF Incongruent right correct Normal 573.2529
