sub trial_no group_type block_type prime target mask1 mask2 congruency key_press key_error time_error RT
502 1 LeftSmaller PercCAPrac Prime_9A Target_4N CAIhGic jaIFGli Incongruent left error Normal 557.6045
502 2 LeftSmaller PercCAPrac Prime_1A Target_6A CEKMjGi mcBDHad Incongruent right correct Early 96.05499
502 3 LeftSmaller PercCAPrac Prime_9A Target_4A BFlHIGf lLgAKaD Incongruent left error Early 65.8835
502 4 LeftSmaller PercCAPrac Prime_1A Target_4N eEJHMGj IibFMEe Congruent right error Normal 108.3302
502 5 LeftSmaller PercCAPrac Prime_6A Target_4A bAeDIFf EjGhbkI Incongruent left error Early 34.72458
502 6 LeftSmaller PercCAPrac Prime_4N Target_6A ADFiLag DLHMAlB Incongruent right correct Normal 149.2525
502 7 LeftSmaller PercCAPrac Prime_6A Target_9N BJKgaCG kFeBlCM Congruent left correct Normal 166.5994
502 8 LeftSmaller PercCAPrac Prime_9N Target_1A CdfgKaB JmfEhIM Incongruent left error Normal 156.3224
502 9 LeftSmaller PercCAPrac Prime_6N Target_6A FAHELIJ kiDHEgK Congruent right error Normal 202.5711
502 10 LeftSmaller PercCAPrac Prime_1N Target_9N bDmBaGj eaEFLCB Incongruent left error Early 44.15862
502 11 LeftSmaller PercCAPrac Prime_4N Target_4N jhfJDkL jbIdmCh Congruent left correct Normal 185.6184
502 12 LeftSmaller PercCAPrac Prime_4A Target_9A MaImBfk jeLBkhI Incongruent right correct Normal 181.1787
502 13 LeftSmaller PercCAPrac Prime_1A Target_4A fHGICib ailIcGA Congruent left correct Early 94.01771
502 14 LeftSmaller PercCAPrac Prime_4N Target_1N HGhbEJd LjdiHmb Congruent left correct Normal 300.4799
502 15 LeftSmaller PercCAPrac Prime_4N Target_6N fbMlhAj kHDalMJ Incongruent right correct Normal 354.9226
502 16 LeftSmaller PercCAPrac Prime_6A Target_9A hAdjlam FAgbCiI Congruent left correct Early 73.00351
502 17 LeftSmaller PercCAExp1 Prime_1N Target_1N IjdCJFf aBgJHLI Congruent left correct Normal 254.634
502 18 LeftSmaller PercCAExp1 Prime_4N Target_1N EMIJDFH GMDCLBj Congruent left correct Normal 128.462
502 19 LeftSmaller PercCAExp1 Prime_9N Target_1A imLcFMG GbiJEhK Incongruent left error Early 64.53743
502 20 LeftSmaller PercCAExp1 Prime_9N Target_6A ejaFJdL Ihegcdm Congruent right error Early 41.36232
502 21 LeftSmaller PercCAExp1 Prime_6A Target_9A FAmLaEf fkChEJI Congruent left correct Early 27.66083
502 22 LeftSmaller PercCAExp1 Prime_4A Target_6A DKdGjil GCEIJlc Incongruent right correct Early 68.97729
502 23 LeftSmaller PercCAExp1 Prime_1N Target_1A CdFkHMB HCmaIKh Congruent left correct Early 52.62169
502 24 LeftSmaller PercCAExp1 Prime_9N Target_6N dMafAeD GeAdCIH Congruent left correct Normal 262.3973
502 25 LeftSmaller PercCAExp1 Prime_6A Target_6N ACEaGfj fClbMLA Congruent right error Early 28.71626
502 26 LeftSmaller PercCAExp1 Prime_9A Target_1A FGcAfmj deaLIfH Incongruent left error Early 32.36351
502 27 LeftSmaller PercCAExp1 Prime_9A Target_4N lhLdMma HlKhmFD Incongruent left error Normal 166.5604
502 28 LeftSmaller PercCAExp1 Prime_4A Target_1N cjEAlKC EHjDLdm Congruent right error Normal 465.7382
502 29 LeftSmaller PercCAExp1 Prime_1N Target_4A ackgMiD EmkHalB Congruent left correct Normal 185.1825
502 30 LeftSmaller PercCAExp1 Prime_9A Target_4A ICLbFHJ GaDdHCe Incongruent right correct Early 80.83632
502 31 LeftSmaller PercCAExp1 Prime_4A Target_4A efgHLBJ ebiJEfB Congruent left correct Early 24.8408
502 32 LeftSmaller PercCAExp1 Prime_6N Target_4A JdlDAFf aKIFmcl Incongruent right correct Early 37.29055
502 33 LeftSmaller PercCAExp1 Prime_4A Target_1A aHKCcbh GBKlJiL Congruent left correct Normal 252.9704
502 34 LeftSmaller PercCAExp1 Prime_6N Target_1A afAjLlK bhjHklG Incongruent left error Early 67.85299
502 35 LeftSmaller PercCAExp1 Prime_4N Target_4A GEkFmac EbKMDia Congruent right error Normal 107.7519
502 36 LeftSmaller PercCAExp1 Prime_6N Target_6N IKJaeHA AkFDEmH Congruent right error Early 23.96073
502 37 LeftSmaller PercCAExp1 Prime_1A Target_4N JMCFIKb hmabBgf Congruent right error Normal 114.8223
502 38 LeftSmaller PercCAExp1 Prime_4N Target_6N eGhdcFf LEiKkmI Incongruent right correct Normal 251.3625
502 39 LeftSmaller PercCAExp1 Prime_1N Target_4N ekfcJjB KaLjEHJ Congruent right error Early 87.50678
502 40 LeftSmaller PercCAExp1 Prime_1N Target_9A lGmhHCF dLiDBml Incongruent right correct Early 39.92066
502 41 LeftSmaller PercCAExp1 Prime_9A Target_1N LEjeAhB DalMfFK Incongruent left error Normal 231.1961
502 42 LeftSmaller PercCAExp1 Prime_6A Target_1N ckbLfAF HJhAidK Incongruent right correct Early 81.04976
502 43 LeftSmaller PercCAExp1 Prime_1A Target_9N LkCcdDj ajMDcgI Incongruent right correct Normal 196.9982
502 44 LeftSmaller PercCAExp1 Prime_4N Target_1A dmhclLG MCEDgjd Congruent left correct Normal 137.4628
502 45 LeftSmaller PercCAExp1 Prime_1A Target_4A DdicFMj JHDbalg Congruent right error Normal 109.8606
502 46 LeftSmaller PercCAExp1 Prime_6N Target_9N MKdjDcF HLjGdhF Congruent left correct Early 98.21075
502 47 LeftSmaller PercCAExp1 Prime_9N Target_9N LjABKbh hadICmc Congruent left correct Normal 259.8025
502 48 LeftSmaller PercCAExp1 Prime_9A Target_6N mIAhDKa fbGgHkl Congruent right error Early 95.38749
502 49 LeftSmaller PercCAExp1 Prime_6N Target_4N DkjMcLf dabHGJi Incongruent right correct Normal 112.1926
502 50 LeftSmaller PercCAExp1 Prime_1A Target_6N lABDfka dcBCafH Incongruent right correct Early 74.98648
502 51 LeftSmaller PercCAExp1 Prime_6A Target_1A lGcdJMg GmMHeIL Incongruent left error Early 94.84493
502 52 LeftSmaller PercCAExp1 Prime_9N Target_1N LDehIag MbKhFgk Incongruent right correct Normal 264.0467
502 53 LeftSmaller PercCAExp1 Prime_4N Target_4N Clchjgf mFCciHM Congruent right error Normal 297.3883
502 54 LeftSmaller PercCAExp1 Prime_4A Target_9A cijAgbl GLaCcKE Incongruent left error Normal 202.4432
502 55 LeftSmaller PercCAExp1 Prime_6A Target_4A DFJLfbH ikMbgcE Incongruent right correct Normal 204.1712
502 56 LeftSmaller PercCAExp1 Prime_1A Target_6A FaCMgcI HEIJjLB Incongruent right correct Normal 359.945
502 57 LeftSmaller PercCAExp1 Prime_6A Target_4N KFmGahI cKGkfBe Incongruent left error Normal 322.1099
502 58 LeftSmaller PercCAExp1 Prime_1N Target_6A ldGJgAH kbCIKmf Incongruent right correct Normal 112.6944
502 59 LeftSmaller PercCAExp1 Prime_4N Target_6A AaLKmJI KBDcAjL Incongruent left error Normal 106.6052
502 60 LeftSmaller PercCAExp1 Prime_9A Target_6A IedDcBF mCMKaih Congruent right error Early 38.2525
502 61 LeftSmaller PercCAExp1 Prime_9N Target_4N MJFgLhm DgEdhAj Incongruent left error Normal 412.9999
502 62 LeftSmaller PercCAExp1 Prime_9A Target_9A lHkDJML alEmKcg Congruent right error Normal 125.2093
502 63 LeftSmaller PercCAExp1 Prime_1N Target_6N DacdMFj biAgakd Incongruent right correct Normal 386.1328
502 64 LeftSmaller PercCAExp1 Prime_9N Target_9A hkMbfgB lgmGEhA Congruent right error Normal 486.8564
502 65 LeftSmaller PercCAExp1 Prime_4N Target_9A ehbafjC bilJLHG Incongruent left error Normal 519.3109
502 66 LeftSmaller PercCAExp1 Prime_1A Target_1N lciKIdA MkGDfAe Congruent right error Normal 461.5101
502 67 LeftSmaller PercCAExp1 Prime_6N Target_1N emFafci mAjILCh Incongruent right correct Normal 314.8466
502 68 LeftSmaller PercCAExp1 Prime_6N Target_6A FfcMBbD gLEBdGI Congruent left correct Normal 219.5413
502 69 LeftSmaller PercCAExp1 Prime_4N Target_9N mGlHCdE FfbAHli Incongruent right correct Normal 124.8723
502 70 LeftSmaller PercCAExp1 Prime_9N Target_4A JHdimhk JgILGfD Incongruent right correct Normal 134.6955
502 71 LeftSmaller PercCAExp1 Prime_1A Target_1A KMlmdkC MHDLfhI Congruent left correct Normal 386.5246
502 72 LeftSmaller PercCAExp1 Prime_4A Target_6N BfIhjlM AIbCahL Incongruent right correct Normal 175.4914
502 73 LeftSmaller PercCAExp1 Prime_4A Target_9N BFGEHhg kEFGhHA Incongruent right correct Normal 383.1798
502 74 LeftSmaller PercCAExp1 Prime_1A Target_9A fGkMaLJ HEFkIDJ Incongruent right correct Normal 212.7363
502 75 LeftSmaller PercCAExp1 Prime_6N Target_9A kheDcMF HEhLFcD Congruent right error Normal 241.9527
502 76 LeftSmaller PercCAExp1 Prime_4A Target_4N hMjaiHJ HemLgBc Congruent right error Normal 375.7978
502 77 LeftSmaller PercCAExp1 Prime_1N Target_9N hGcMeEJ lMbkAaj Incongruent right correct Normal 118.5998
502 78 LeftSmaller PercCAExp1 Prime_6A Target_9N AfbDliG BhdeEgM Congruent left correct Normal 610.3095
502 79 LeftSmaller PercCAExp1 Prime_6A Target_6A MAgkCKh FDigMad Congruent right error Normal 141.4099
502 80 LeftSmaller PercCAExp1 Prime_9A Target_9N ChAFDGE aGhbldF Congruent right error Normal 158.2387
502 81 LeftLarger PercCBPrac Prime_4A Target_1A CKDMejh CBcfhDJ Congruent right correct Normal 391.3011
502 82 LeftLarger PercCBPrac Prime_9N Target_4A ghHGAda AeCFhgk Incongruent right error Normal 209.1164
502 83 LeftLarger PercCBPrac Prime_6N Target_1A CJEcGai AeGKBjb Incongruent left correct Normal 139.7943
502 84 LeftLarger PercCBPrac Prime_1N Target_9N AHdiaek DEfcIbC Incongruent left correct Normal 305.4042
502 85 LeftLarger PercCBPrac Prime_6N Target_9N abcJHej CeEDGIJ Congruent left error Normal 430.6256
502 86 LeftLarger PercCBPrac Prime_1N Target_1A lCLchba JMkGgBb Congruent right correct Normal 138.0708
502 87 LeftLarger PercCBPrac Prime_4N Target_6N ilCGEAg DbEBAgL Incongruent left correct Normal 195.9594
502 88 LeftLarger PercCBPrac Prime_9A Target_4A IMbGkig mKgheFc Incongruent left correct Normal 485.7139
502 89 LeftLarger PercCBPrac Prime_1N Target_4N IKAdjFM CjIegfF Congruent right correct Normal 284.813
502 90 LeftLarger PercCBPrac Prime_6A Target_1N eBdfMHk bMBFEAC Incongruent left correct Early 55.00587
502 91 LeftLarger PercCBPrac Prime_9A Target_6A KbhmcaA HEAmFGK Congruent right correct Early 70.48845
502 92 LeftLarger PercCBPrac Prime_4A Target_1N DKbHhdf BiIGkeD Congruent left error Normal 169.4108
502 93 LeftLarger PercCBPrac Prime_4N Target_1A dIjKecJ dIfBlaA Congruent right correct Normal 181.8717
502 94 LeftLarger PercCBPrac Prime_4N Target_1N EfahlLm DedblKH Congruent left error Normal 116.4402
502 95 LeftLarger PercCBPrac Prime_1N Target_6N gDamklL MjcGCkH Incongruent right error Early 30.8594
502 96 LeftLarger PercCBPrac Prime_1A Target_6A lkHhEae EaHJfdK Incongruent left correct Normal 384.084
502 97 LeftLarger PercCBExp1 Prime_4N Target_9N FBAbdJm CAfbBMc Incongruent left correct Normal 354.1048
502 98 LeftLarger PercCBExp1 Prime_9N Target_1N IgDJabd ekGjicL Incongruent right error Normal 202.4265
502 99 LeftLarger PercCBExp1 Prime_9A Target_6A GgAJHlB EHlAMBm Congruent right correct Normal 114.6474
502 100 LeftLarger PercCBExp1 Prime_9N Target_4N EBLgajf KCIBaig Incongruent left correct Normal 239.0854
502 101 LeftLarger PercCBExp1 Prime_1N Target_9A iEmfkjJ mBbjCHf Incongruent right error Normal 259.3066
502 102 LeftLarger PercCBExp1 Prime_6A Target_1N CIjMlfi AicjhBg Incongruent left correct Normal 134.2291
502 103 LeftLarger PercCBExp1 Prime_4A Target_6N Jlgfejm fjCMGeH Incongruent right error Normal 377.9471
502 104 LeftLarger PercCBExp1 Prime_6A Target_6A FBbGmkH FBfcMge Congruent left error Early 96.50814
502 105 LeftLarger PercCBExp1 Prime_9N Target_9N LMGbdHA HkDLhmC Congruent left error Normal 119.7046
502 106 LeftLarger PercCBExp1 Prime_1N Target_4N DGHfFal jiIlHBE Congruent left error Normal 157.9183
502 107 LeftLarger PercCBExp1 Prime_9A Target_9A ECJhidB lLGMBdk Congruent right correct Normal 222.8603
502 108 LeftLarger PercCBExp1 Prime_4A Target_9N HlBADmj kDaljJc Incongruent right error Normal 180.158
502 109 LeftLarger PercCBExp1 Prime_6N Target_1N DGbkALj kFHgCKi Incongruent right error Normal 330.1615
502 110 LeftLarger PercCBExp1 Prime_6N Target_4A MDKFaje mGIgbBi Incongruent right error Normal 525.6075
502 111 LeftLarger PercCBExp1 Prime_4A Target_1N jIeBfbM ikAgFCc Congruent left error Normal 466.8187
502 112 LeftLarger PercCBExp1 Prime_9N Target_9A JCeIKhm ImBKlab Congruent left error Normal 585.8959
502 113 LeftLarger PercCBExp1 Prime_6A Target_4A GlImeMh mdiCAJc Incongruent left correct Normal 643.9824
502 114 LeftLarger PercCBExp1 Prime_6N Target_1A JAHLMGe fACFKgJ Incongruent right error Normal 222.2424
502 115 LeftLarger PercCBExp1 Prime_1N Target_1A BFjEJDG lCIKhAg Congruent left error Normal 549.4915
502 116 LeftLarger PercCBExp1 Prime_4N Target_4A JDkleFg GmAIHFL Congruent right correct Normal 161.8857
502 117 LeftLarger PercCBExp1 Prime_6A Target_6N LIdhegA eMcFdbl Congruent right correct Normal 312.9216
502 118 LeftLarger PercCBExp1 Prime_6N Target_6N mjEFelc dhDIHil Congruent right correct Normal 377.9884
502 119 LeftLarger PercCBExp1 Prime_6N Target_9A AdcekBM HbFdciI Congruent left error Normal 130.7833
502 120 LeftLarger PercCBExp1 Prime_9A Target_4A LkDdlig LakdFjB Incongruent right error Normal 466.2628
502 121 LeftLarger PercCBExp1 Prime_4A Target_1A mgfMihc eJIBlFE Congruent left error Normal 767.2219
502 122 LeftLarger PercCBExp1 Prime_9A Target_4N jGcHhCf BhjALke Incongruent left correct Normal 619.0812
502 123 LeftLarger PercCBExp1 Prime_4N Target_6N AgBGbfh DgjiALa Incongruent left correct Normal 568.1447
502 124 LeftLarger PercCBExp1 Prime_1A Target_9N IfFiHhe FdJjkKf Incongruent left correct Normal 954.6824
502 125 LeftLarger PercCBExp1 Prime_1A Target_9A dMGEIia cLkbeAE Incongruent left correct Normal 729.3425
502 126 LeftLarger PercCBExp1 Prime_1N Target_1N EeGkDKl fJAhejc Congruent right correct Normal 850.3638
502 127 LeftLarger PercCBExp1 Prime_6N Target_6A JADelaF CjLdEAi Congruent left error Normal 143.2313
502 128 LeftLarger PercCBExp1 Prime_9A Target_1N ceDmMkf ALbhdaC Incongruent left correct Normal 214.3564
502 129 LeftLarger PercCBExp1 Prime_4A Target_4N fLalmMA KImlDBL Congruent right correct Normal 289.9152
502 130 LeftLarger PercCBExp1 Prime_1N Target_4A AKIFDij JikaIGD Congruent right correct Normal 368.4983
502 131 LeftLarger PercCBExp1 Prime_1N Target_9N cFJemfC KEBfikA Incongruent right error Normal 332.3404
502 132 LeftLarger PercCBExp1 Prime_1A Target_1N dDcjaEG CbeiBMA Congruent right correct Normal 354.3899
502 133 LeftLarger PercCBExp1 Prime_6A Target_1A BklgIjM hfmAdEK Incongruent left correct Normal 448.9915
502 134 LeftLarger PercCBExp1 Prime_6A Target_9N IBGAcki GLjgcMb Congruent right correct Early 99.3357
502 135 LeftLarger PercCBExp1 Prime_9A Target_6N eAijbKl MJKmGDf Congruent right correct Normal 376.8391
502 136 LeftLarger PercCBExp1 Prime_1N Target_6A IBAJikh MbLafBJ Incongruent right error Normal 315.6971
502 137 LeftLarger PercCBExp1 Prime_1A Target_6N IFdeHbB ABLbCka Incongruent right error Normal 448.039
502 138 LeftLarger PercCBExp1 Prime_1A Target_1A iAjGfbM EkHlCjD Congruent left error Normal 280.756
502 139 LeftLarger PercCBExp1 Prime_9N Target_6A LfmgCKc DlfaiGk Congruent right correct Normal 267.0919
502 140 LeftLarger PercCBExp1 Prime_4A Target_9A iLcbEBg BGklCim Incongruent left correct Normal 114.1782
502 141 LeftLarger PercCBExp1 Prime_4N Target_6A glebDmf gDmibeJ Incongruent right error Normal 439.2754
502 142 LeftLarger PercCBExp1 Prime_9N Target_4A MAgdeEI ABdlGMJ Incongruent right error Normal 1056.818
502 143 LeftLarger PercCBExp1 Prime_6N Target_9N MIaLbdh bfEFHGd Congruent left error Normal 324.6673
502 144 LeftLarger PercCBExp1 Prime_6A Target_9A eJKFaCh LmHKMba Congruent right correct Normal 531.0033
502 145 LeftLarger PercCBExp1 Prime_4N Target_1N FgjhBal LdGhglm Congruent right correct Normal 738.4498
502 146 LeftLarger PercCBExp1 Prime_4A Target_4A CaHjDAg fIJegcF Congruent left error Normal 149.4178
502 147 LeftLarger PercCBExp1 Prime_9N Target_1A iCFfEhc iIAgDBJ Incongruent left correct Normal 668.2748
502 148 LeftLarger PercCBExp1 Prime_1A Target_4A KLIMDCB laBCEfK Congruent left error Normal 500.1949
502 149 LeftLarger PercCBExp1 Prime_4N Target_4N LIcFMGb cKaCkMf Congruent left error Normal 647.1355
502 150 LeftLarger PercCBExp1 Prime_4N Target_9A IafDHhk dfhgmeF Incongruent left correct Normal 571.2973
502 151 LeftLarger PercCBExp1 Prime_4N Target_1A KgmjGkE bcDhLji Congruent right correct Normal 417.9607
502 152 LeftLarger PercCBExp1 Prime_9A Target_9N jHIGfLK hFieBcd Congruent right correct Normal 301.1027
502 153 LeftLarger PercCBExp1 Prime_6N Target_4N HjdMACD jBDeadf Incongruent right error Normal 161.8618
502 154 LeftLarger PercCBExp1 Prime_4A Target_6A hmFckMH iglHkDL Incongruent right error Normal 605.0596
502 155 LeftLarger PercCBExp1 Prime_1N Target_6N mJChMKg jEdlfeG Incongruent left correct Normal 159.1064
502 156 LeftLarger PercCBExp1 Prime_1A Target_4N kCfDgMb IiAkjCf Congruent left error Normal 381.0961
502 157 LeftLarger PercCBExp1 Prime_1A Target_6A KLckBAI cFKaCAh Incongruent left correct Normal 729.3066
502 158 LeftLarger PercCBExp1 Prime_9N Target_6N mALbdfM BGKcgAJ Congruent right correct Normal 279.614
502 159 LeftLarger PercCBExp1 Prime_6A Target_4N ecGkLFj ijabBCD Incongruent right error Normal 404.4376
502 160 LeftLarger PercCBExp1 Prime_9A Target_1A JGIheMF jdKMmfa Incongruent right error Normal 492.3063
503 1 LeftLarger PercCAPrac Prime_6A Target_6N JFcAMkl kKMDBfi Congruent left error Normal 1037.585
503 2 LeftLarger PercCAPrac Prime_1N Target_9A mIAEFeH lFJLImE Incongruent right error Normal 1017.75
503 3 LeftLarger PercCAPrac Prime_4N Target_9N JlaeGLH gmiIejd Incongruent left correct Normal 1184.673
503 4 LeftLarger PercCAPrac Prime_1N Target_1A dkBeJbD CmfeGFa Congruent left error Normal 935.3592
503 5 LeftLarger PercCAPrac Prime_4A Target_6A GmefdJi cEJAifD Incongruent left correct Normal 1519.018
503 6 LeftLarger PercCAPrac Prime_6N Target_6N AgCbLfl kcCKbdF Congruent right correct Normal 820.845
503 7 LeftLarger PercCAPrac Prime_9A Target_9A alGAbfg iLIbMAa Congruent right correct Normal 908.2112
503 8 LeftLarger PercCAPrac Prime_6A Target_4N EhgkHcK KchDbam Incongruent left correct Normal 1285.575
503 9 LeftLarger PercCAPrac Prime_6A Target_6A jAJkKEd KBaEIGk Congruent right correct Normal 596.0095
503 10 LeftLarger PercCAPrac Prime_6N Target_9A dKAJlMh maMHAlh Congruent right correct Normal 1056.402
503 11 LeftLarger PercCAPrac Prime_1A Target_9A FLfcjBk KhMgGiH Incongruent left correct Normal 520.594
503 12 LeftLarger PercCAPrac Prime_9N Target_6N CFigdBK AjEeLKH Congruent right correct Normal 223.0612
503 13 LeftLarger PercCAPrac Prime_9A Target_1N MdkLaDi kCEacBJ Incongruent left correct Normal 538.429
503 14 LeftLarger PercCAPrac Prime_1A Target_4A JbkGcKh JhLHFgm Congruent right correct Normal 292.509
503 15 LeftLarger PercCAPrac Prime_6A Target_1N mAeFhdi MeCaihJ Incongruent left correct Normal 1079.711
503 16 LeftLarger PercCAPrac Prime_1N Target_4A lEMjGKF FHGMdcL Congruent left error Normal 576.4351
503 17 LeftLarger PercCAExp1 Prime_1A Target_1N LedlmIk ClMbLmi Congruent left error Normal 649.7756
503 18 LeftLarger PercCAExp1 Prime_4N Target_9A lgaAfMe fdlHmaj Incongruent right error Normal 484.8431
503 19 LeftLarger PercCAExp1 Prime_1N Target_4N EICGjFB licEMkj Congruent left error Normal 1062.472
503 20 LeftLarger PercCAExp1 Prime_4A Target_4A CiGEeDM jFLCHge Congruent right correct Normal 624.6756
503 21 LeftLarger PercCAExp1 Prime_4N Target_4A GEjCedA cMFiAgf Congruent left error Normal 1008.338
503 22 LeftLarger PercCAExp1 Prime_4A Target_1N FCkGBDb MAKChDf Congruent left error Normal 1126.21
503 23 LeftLarger PercCAExp1 Prime_4A Target_6N JAKDdfE CjdfckE Incongruent left correct Normal 1154.936
503 24 LeftLarger PercCAExp1 Prime_1A Target_4N bKaLBGi bLJmBlH Congruent right correct Normal 376.3555
503 25 LeftLarger PercCAExp1 Prime_4A Target_1A JMBeAlH JFeMAKG Congruent right correct Normal 705.7245
503 26 LeftLarger PercCAExp1 Prime_6N Target_6N cijFLlh gdbCfAm Congruent left error Normal 849.2069
503 27 LeftLarger PercCAExp1 Prime_4A Target_9A IcGKEhk DLBfdAF Incongruent right error Normal 1124.866
503 28 LeftLarger PercCAExp1 Prime_9N Target_4A MdgfIGF hkHdJBm Incongruent left correct Normal 759.7884
503 29 LeftLarger PercCAExp1 Prime_4N Target_6N lCakdim hamjbKc Incongruent right error Normal 261.2106
503 30 LeftLarger PercCAExp1 Prime_4A Target_9N FkKlbEA bDKgJhM Incongruent left correct Normal 852.8543
503 31 LeftLarger PercCAExp1 Prime_4N Target_1A JHblIeh KhDeAHb Congruent right correct Normal 534.0016
503 32 LeftLarger PercCAExp1 Prime_1N Target_9N ifbhgmM cBLmbJg Incongruent left correct Normal 1360.972
503 33 LeftLarger PercCAExp1 Prime_6A Target_1N CIBfhKi mKfJkFH Incongruent left correct Normal 1009.337
503 34 LeftLarger PercCAExp1 Prime_9N Target_9N jiACkeb LJDfGFb Congruent right correct Normal 836.5713
503 35 LeftLarger PercCAExp1 Prime_6N Target_6A FaEiBhJ AClbgJf Congruent left error Normal 1292.121
503 36 LeftLarger PercCAExp1 Prime_4A Target_4N ILHAkhF IahkCbG Congruent right correct Normal 836.3072
503 37 LeftLarger PercCAExp1 Prime_9A Target_9A hHkgJei JdmHefB Congruent left error Normal 555.8496
503 38 LeftLarger PercCAExp1 Prime_4N Target_4N mFflkAg fKFkMjb Congruent right correct Normal 497.5339
503 39 LeftLarger PercCAExp1 Prime_1N Target_4A CbEIgJD GbmLjCh Congruent right correct Normal 624.0758
503 40 LeftLarger PercCAExp1 Prime_9A Target_6N cjlGfbH gIjGBbl Congruent left error Normal 420.3504
503 41 LeftLarger PercCAExp1 Prime_1N Target_1N EaHdeGm dclGijA Congruent right correct Normal 866.9736
503 42 LeftLarger PercCAExp1 Prime_4N Target_9N AMFhDKH cajAilb Incongruent left correct Normal 1040.272
503 43 LeftLarger PercCAExp1 Prime_9A Target_6A efFIKli iBGmjLC Congruent left error Normal 439.4555
503 44 LeftLarger PercCAExp1 Prime_1N Target_9A LfjKgGE BjgGflb Incongruent right error Normal 1013.784
503 45 LeftLarger PercCAExp1 Prime_1A Target_1A dMfeHbJ cMJGCHE Congruent left error Normal 869.617
503 46 LeftLarger PercCAExp1 Prime_6N Target_9N MGLcKel AaCLhEJ Congruent right correct Normal 1094.882
503 47 LeftLarger PercCAExp1 Prime_6N Target_9A LFAImjf ceFmjIk Congruent right correct Normal 714.4391
503 48 LeftLarger PercCAExp1 Prime_6A Target_4N HCcDFbI BDigFeE Incongruent left correct Normal 1149.587
503 49 LeftLarger PercCAExp1 Prime_1A Target_6A JbCBFad kaGMdhc Incongruent right error Normal 782.4734
503 50 LeftLarger PercCAExp1 Prime_4N Target_6A gBhKGEM cGAdLkC Incongruent right error Normal 869.9664
503 51 LeftLarger PercCAExp1 Prime_9N Target_6N gjDaCGe fCHehJB Congruent right correct Normal 834.6172
503 52 LeftLarger PercCAExp1 Prime_9A Target_1A jlJADIF IfgMbKE Incongruent left correct Normal 826.9128
503 53 LeftLarger PercCAExp1 Prime_9N Target_9A ceCiGfb mjEKLei Congruent right correct Normal 1264.595
503 54 LeftLarger PercCAExp1 Prime_1N Target_1A kDJCiFm fAlhIGg Congruent left error Normal 633.631
503 55 LeftLarger PercCAExp1 Prime_1N Target_6N gekBCFb gkHBEbm Incongruent left correct Normal 561.1951
503 56 LeftLarger PercCAExp1 Prime_4A Target_6A fbHaCkL MHcLgJK Incongruent right error Normal 162.7897
503 57 LeftLarger PercCAExp1 Prime_1A Target_6N aHbGADM MAlIegK Incongruent left correct Normal 883.7646
503 58 LeftLarger PercCAExp1 Prime_6N Target_1A dAlDfFC hgefHLd Incongruent left correct Normal 949.582
503 59 LeftLarger PercCAExp1 Prime_6A Target_6N ICKgfBD mdGIlBF Congruent right correct Normal 619.7429
503 60 LeftLarger PercCAExp1 Prime_6A Target_6A IjiLfdC lfadMmB Congruent right correct Normal 567.9149
503 61 LeftLarger PercCAExp1 Prime_1A Target_9A GBfmLhl KIAalgm Incongruent right error Normal 653.2103
503 62 LeftLarger PercCAExp1 Prime_6A Target_1A HlFKEhb cJmjlFC Incongruent left correct Normal 565.1154
503 63 LeftLarger PercCAExp1 Prime_9N Target_4N elDBmGC hEDkJCI Incongruent left correct Normal 1037.786
503 64 LeftLarger PercCAExp1 Prime_9A Target_4A dhafJjA ehkFJbd Incongruent left correct Normal 882.6067
503 65 LeftLarger PercCAExp1 Prime_9N Target_1A BbkCfhD jADkfMB Incongruent right error Normal 551.5537
503 66 LeftLarger PercCAExp1 Prime_9N Target_6A LheadAE HiIdejB Congruent left error Normal 1307.182
503 67 LeftLarger PercCAExp1 Prime_6A Target_9A BmlLjFi mKCbLij Congruent right correct Normal 887.1034
503 68 LeftLarger PercCAExp1 Prime_9A Target_9N GKkbfmc fhGHcMe Congruent right correct Normal 750.2746
503 69 LeftLarger PercCAExp1 Prime_6N Target_4A mHgKEGk lBaJALM Incongruent left correct Normal 956.7018
503 70 LeftLarger PercCAExp1 Prime_4N Target_1N BAhMDdC aHkgdAi Congruent right correct Normal 351.6376
503 71 LeftLarger PercCAExp1 Prime_9A Target_1N EDmFbkc FGKlEBa Incongruent right error Normal 644.9252
503 72 LeftLarger PercCAExp1 Prime_1A Target_4A cCJMkLE kifLmBJ Congruent right correct Normal 396.9012
503 73 LeftLarger PercCAExp1 Prime_9A Target_4N deMfFij bDkmIFj Incongruent left correct Normal 862.0404
503 74 LeftLarger PercCAExp1 Prime_6N Target_1N lFAifBD hkgdflJ Incongruent right error Normal 1557.029
503 75 LeftLarger PercCAExp1 Prime_6A Target_4A bGeFjDi HgEaIfG Incongruent left correct Normal 294.5938
503 76 LeftLarger PercCAExp1 Prime_6A Target_9N ehfBakm LGmbdea Congruent right correct Normal 564.4061
503 77 LeftLarger PercCAExp1 Prime_1N Target_6A eDEMBGI mGkEFiC Incongruent right error Normal 428.7448
503 78 LeftLarger PercCAExp1 Prime_9N Target_1N baFkKIm BmbIfMh Incongruent right error Normal 322.4892
503 79 LeftLarger PercCAExp1 Prime_1A Target_9N DIgJeBd KeAaMjE Incongruent left correct Normal 128.4044
503 80 LeftLarger PercCAExp1 Prime_6N Target_4N eaBjfKc DJLGfEc Incongruent right error Normal 534.5506
503 81 LeftSmaller PercCBPrac Prime_1N Target_6A jiLbfdM EBfgjDC Incongruent left error Normal 859.5602
503 82 LeftSmaller PercCBPrac Prime_9N Target_4N EKFlAGj LbgGkCd Incongruent right correct Normal 703.7039
503 83 LeftSmaller PercCBPrac Prime_6A Target_6N JdbBihg JibHhfk Congruent right error Normal 464.483
503 84 LeftSmaller PercCBPrac Prime_1N Target_4N fLlhCAB IFfCgbD Congruent left correct Normal 202.4017
503 85 LeftSmaller PercCBPrac Prime_9N Target_1A aEFJhDj DEkLchj Incongruent right correct Early 98.08608
503 86 LeftSmaller PercCBPrac Prime_6N Target_9A BMFekhj IGEeCfj Congruent left correct Normal 562.6222
503 87 LeftSmaller PercCBPrac Prime_6A Target_9A gBiEdJG dDIfAgh Congruent left correct Normal 811.3713
503 88 LeftSmaller PercCBPrac Prime_6A Target_9N kcHAbIi EGjfcHa Congruent left correct Normal 797.5645
503 89 LeftSmaller PercCBPrac Prime_4A Target_6A DGelAHm DclkKFi Incongruent right correct Normal 1259.712
503 90 LeftSmaller PercCBPrac Prime_9A Target_6N iAlJcCd JigDlMA Congruent left correct Normal 1318.406
503 91 LeftSmaller PercCBPrac Prime_9A Target_1N fFJcIMg EciCKhj Incongruent left error Normal 790.7098
503 92 LeftSmaller PercCBPrac Prime_9N Target_9A kaKMJdj KdfJMbg Congruent left correct Normal 420.0409
503 93 LeftSmaller PercCBPrac Prime_4N Target_9A aAHgLFd mdKecAL Incongruent left error Normal 470.0563
503 94 LeftSmaller PercCBPrac Prime_6A Target_6A KImlfBL MiGcBdg Congruent left correct Normal 524.6119
503 95 LeftSmaller PercCBPrac Prime_9A Target_4N Llckbfg alfiDjE Incongruent right correct Normal 671.1828
503 96 LeftSmaller PercCBPrac Prime_6A Target_1N lIBAfbj IAHJKeE Incongruent left error Normal 946.3334
503 97 LeftSmaller PercCBExp1 Prime_6N Target_1A LlKFMGJ GJBkKAF Incongruent right correct Normal 975.6679
503 98 LeftSmaller PercCBExp1 Prime_4N Target_4N BamdDLG ldFiHGE Congruent left correct Normal 527.07
503 99 LeftSmaller PercCBExp1 Prime_6A Target_4A JklfDMb DifLJKm Incongruent right correct Normal 409.2315
503 100 LeftSmaller PercCBExp1 Prime_4A Target_9A afHDIhL DBIJkMl Incongruent left error Early 91.2944
503 101 LeftSmaller PercCBExp1 Prime_9A Target_6A HAeDiFJ jClcKkJ Congruent right error Normal 327.8266
503 102 LeftSmaller PercCBExp1 Prime_4A Target_1A mFMGdaC KhaiDcl Congruent left correct Normal 112.8594
503 103 LeftSmaller PercCBExp1 Prime_6N Target_1N bfiHkaL FiGJfAm Incongruent right correct Early 19.18078
503 104 LeftSmaller PercCBExp1 Prime_1A Target_4N LMKcajf KFiLaBh Congruent left correct Early 5.289369
503 105 LeftSmaller PercCBExp1 Prime_9N Target_9A KhmDBbC ILMHCch Congruent right error Early 3.130251
503 106 LeftSmaller PercCBExp1 Prime_9N Target_4N jlmeMaC jEHFkfe Incongruent left error Normal 227.0128
503 107 LeftSmaller PercCBExp1 Prime_1N Target_9A AalFiEM jlcDHhI Incongruent left error Early 3.141599
503 108 LeftSmaller PercCBExp1 Prime_6A Target_1N FCkBdbi AGKlJcj Incongruent left error Early 4.929925
503 109 LeftSmaller PercCBExp1 Prime_1N Target_1A KBbAgkc HdJgcfj Congruent right error Normal 235.3672
503 110 LeftSmaller PercCBExp1 Prime_6N Target_6N KHFBbID flhIHDA Congruent left correct Normal 118.5249
503 111 LeftSmaller PercCBExp1 Prime_6A Target_6N HdBEfeL cBGldAK Congruent right error Early 3.171507
503 112 LeftSmaller PercCBExp1 Prime_4N Target_6N MBCLFHg AJiMldh Incongruent left error Early 2.926862
503 113 LeftSmaller PercCBExp1 Prime_6A Target_4N lgIfCEM fkMGiAB Incongruent right correct Early 2.730769
503 114 LeftSmaller PercCBExp1 Prime_1A Target_9N blKiLmA MhgHGEB Incongruent right correct Early 3.020325
503 115 LeftSmaller PercCBExp1 Prime_9N Target_4A EHIedaB LcKegMa Incongruent left error Early 2.938838
503 116 LeftSmaller PercCBExp1 Prime_1A Target_9A alchbmF HIchkKA Incongruent left error Early 2.954019
503 117 LeftSmaller PercCBExp1 Prime_4N Target_6A EhGgLeJ hLfKMej Incongruent right correct Early 13.20324
503 118 LeftSmaller PercCBExp1 Prime_9A Target_4A GmIBhEA lcJIeHb Incongruent left error Early 3.112044
503 119 LeftSmaller PercCBExp1 Prime_6N Target_6A afjbFkC iKbeLMg Congruent right error Early 2.920236
503 120 LeftSmaller PercCBExp1 Prime_9N Target_6N MEdHcBA Hfmghkb Congruent right error Early 2.827218
503 121 LeftSmaller PercCBExp1 Prime_9A Target_6N BALcCGJ alGfDFJ Congruent right error Early 2.887318
503 122 LeftSmaller PercCBExp1 Prime_1N Target_9N FdDECkh DAmdiJe Incongruent left error Early 28.86798
503 123 LeftSmaller PercCBExp1 Prime_4A Target_1N bkmgfME EBJegfD Congruent right error Normal 142.3655
503 124 LeftSmaller PercCBExp1 Prime_1A Target_6A kmBlHgC CJiIKHd Incongruent left error Early 2.898648
503 125 LeftSmaller PercCBExp1 Prime_6N Target_9A eDlEGFC GlhiaKf Congruent left correct Early 3.072055
503 126 LeftSmaller PercCBExp1 Prime_9A Target_1A DHkAEfC HedGmcI Incongruent left error Normal 765.4699
503 127 LeftSmaller PercCBExp1 Prime_9A Target_1N eiLJbkI ChkAicE Incongruent right correct Normal 1075.823
503 128 LeftSmaller PercCBExp1 Prime_9A Target_4N lLBhgHi hDlfcib Incongruent right correct Normal 597.2456
503 129 LeftSmaller PercCBExp1 Prime_1A Target_1N IcJGMhF BILiecJ Congruent right error Normal 979.3661
503 130 LeftSmaller PercCBExp1 Prime_6A Target_9A IeahMkl lgFcKid Congruent left correct Normal 638.5533
503 131 LeftSmaller PercCBExp1 Prime_1N Target_1N bBGiheF cbiemGJ Congruent right error Normal 559.8242
503 132 LeftSmaller PercCBExp1 Prime_4A Target_4A cIEJhLj mdfKLDH Congruent left correct Normal 692.9981
503 133 LeftSmaller PercCBExp1 Prime_6A Target_1A EbhaCcD AEGbcmH Incongruent left error Normal 1357.637
503 134 LeftSmaller PercCBExp1 Prime_9N Target_1N mGdAFia cMBCFlE Incongruent right correct Normal 843.7623
503 135 LeftSmaller PercCBExp1 Prime_4N Target_9N HFmdEgh fMFlIac Incongruent left error Normal 761.2775
503 136 LeftSmaller PercCBExp1 Prime_9N Target_6A aDklKFE cdmCbIJ Congruent right error Normal 586.8047
503 137 LeftSmaller PercCBExp1 Prime_1A Target_4A aAHKjIJ EfBJAla Congruent left correct Normal 1433.55
503 138 LeftSmaller PercCBExp1 Prime_1A Target_6N IlFMhEm fEIjCmg Incongruent right correct Normal 717.048
503 139 LeftSmaller PercCBExp1 Prime_6A Target_6A mMLdEBJ ALHCGja Congruent left correct Normal 952.9358
503 140 LeftSmaller PercCBExp1 Prime_1A Target_1A iFdLHkb edHbaEm Congruent right error Normal 1240.949
503 141 LeftSmaller PercCBExp1 Prime_9N Target_1A FjBbCmh lfdiKFA Incongruent right correct Normal 1123.539
503 142 LeftSmaller PercCBExp1 Prime_9A Target_9N lImfdCh bHFMLGK Congruent left correct Normal 393.134
503 143 LeftSmaller PercCBExp1 Prime_1N Target_4N gFGDbcj BLkKcEj Congruent right error Normal 813.1551
503 144 LeftSmaller PercCBExp1 Prime_9N Target_9N cAbCaDj mclkBaf Congruent right error Normal 885.4562
503 145 LeftSmaller PercCBExp1 Prime_4A Target_4N ADFMKJf gGBcKAk Congruent left correct Normal 592.9146
503 146 LeftSmaller PercCBExp1 Prime_4N Target_1A FELCKGm gLmlafI Congruent right error Normal 1032.65
503 147 LeftSmaller PercCBExp1 Prime_4N Target_9A KcikfAF CBklGcd Incongruent right correct Normal 926.7263
503 148 LeftSmaller PercCBExp1 Prime_1N Target_4A LkCMamF BfHlMCI Congruent left correct Normal 592.8855
503 149 LeftSmaller PercCBExp1 Prime_4N Target_1N eBDMgdk iJMgBdF Congruent left correct Normal 774.252
503 150 LeftSmaller PercCBExp1 Prime_4A Target_6A FkjLMIH AKIEmaG Incongruent right correct Normal 535.7497
503 151 LeftSmaller PercCBExp1 Prime_4A Target_6N MmLlGgb bdiIAlF Incongruent right correct Normal 1244.123
503 152 LeftSmaller PercCBExp1 Prime_9A Target_9A DdkihcJ BdHEblc Congruent left correct Normal 1521.301
503 153 LeftSmaller PercCBExp1 Prime_4A Target_9N FEKmdIe adALfDg Incongruent right correct Normal 1108.774
503 154 LeftSmaller PercCBExp1 Prime_6N Target_9N hMLAjbI KGMmDbB Congruent left correct Normal 1334.427
503 155 LeftSmaller PercCBExp1 Prime_6N Target_4N DEjmIdh jaKiCEl Incongruent right correct Normal 984.36
503 156 LeftSmaller PercCBExp1 Prime_1N Target_6A MICBEmf DeklKdC Incongruent right correct Normal 1150.661
503 157 LeftSmaller PercCBExp1 Prime_1N Target_6N IHAdiKa jHfDlhI Incongruent right correct Normal 986.2161
503 158 LeftSmaller PercCBExp1 Prime_6N Target_4A BfAEmGk ILKFeMB Incongruent right correct Normal 1277.272
503 159 LeftSmaller PercCBExp1 Prime_4N Target_4A IEaFCeD gFjkGIH Congruent right error Normal 866.4573
503 160 LeftSmaller PercCBExp1 Prime_6A Target_9N IJifkeC fmhBceH Congruent left correct Normal 691.7474
505 1 LeftLarger PercCAPrac Prime_6A Target_4A dgmMFaB dAKGkcl Incongruent left correct Normal 1328.717
505 2 LeftLarger PercCAPrac Prime_4A Target_1N kLIbmdj agAGeiM Congruent left error Normal 1020.571
505 3 LeftLarger PercCAPrac Prime_1N Target_1A EhfFlMk hCGegHf Congruent right correct Normal 801.4955
505 4 LeftLarger PercCAPrac Prime_9A Target_1A gDBlFkd aCklEdL Incongruent left correct Normal 1042.455
505 5 LeftLarger PercCAPrac Prime_6N Target_1A aILceFm lbBfCFm Incongruent left correct Normal 816.8326
505 6 LeftLarger PercCAPrac Prime_6A Target_6A fMmHIGh kAaIhLb Congruent right correct Normal 1557.632
505 7 LeftLarger PercCAPrac Prime_1A Target_1A CaIjcDh EFBcLjl Congruent left error Normal 1091.44
505 8 LeftLarger PercCAPrac Prime_9N Target_4N FAhGbjE kAbHiIC Incongruent left correct Normal 739.7121
505 9 LeftLarger PercCAPrac Prime_6N Target_9N EhGdgLI FMEAkBg Congruent right correct Normal 1160.626
505 10 LeftLarger PercCAPrac Prime_9A Target_6A HcFhdCl HlMAmIF Congruent right correct Normal 909.9913
505 11 LeftLarger PercCAPrac Prime_6N Target_6A ldiaAmM ejKhgdk Congruent right correct Normal 1185.274
505 12 LeftLarger PercCAPrac Prime_4N Target_1A KglIeLC ldMekha Congruent left error Normal 898.5621
505 13 LeftLarger PercCAPrac Prime_9A Target_1N ldkghce MJDbcGL Incongruent left correct Normal 1432.004
505 14 LeftLarger PercCAPrac Prime_9N Target_6N aKbMEHi afeDdmi Congruent left error Normal 1163.187
505 15 LeftLarger PercCAPrac Prime_9A Target_4N CbiGgjf lMDdFGE Incongruent right error Normal 2111.21
505 16 LeftLarger PercCAPrac Prime_4A Target_6A HiAkIjF JDgleIH Incongruent right error Normal 935.418
505 17 LeftLarger PercCAExp1 Prime_9A Target_6A igaBFCM CfAMjem Congruent right correct Normal 1578.154
505 18 LeftLarger PercCAExp1 Prime_9A Target_1N cbahKHi JKHkLfB Incongruent right error Normal 1001.084
505 19 LeftLarger PercCAExp1 Prime_6A Target_6A mbCdJMF ehKkgdD Congruent left error Normal 1057.246
505 20 LeftLarger PercCAExp1 Prime_1N Target_9N AfgJiFK HBIeiMj Incongruent left correct Normal 966.927
505 21 LeftLarger PercCAExp1 Prime_1N Target_6A jhbHLde djlFJmi Incongruent right error Normal 1568.231
505 22 LeftLarger PercCAExp1 Prime_4A Target_9N MdbFkGj DefBbgd Incongruent right error Normal 1870.161
505 23 LeftLarger PercCAExp1 Prime_4N Target_6A IcEbjMg AedCLaG Incongruent left correct Normal 933.9686
505 24 LeftLarger PercCAExp1 Prime_4N Target_1A BebADkj hKdDief Congruent left error Normal 1463.55
505 25 LeftLarger PercCAExp1 Prime_1N Target_9A CjaBeJb ceGkhKD Incongruent right error Normal 2331.207
505 26 LeftLarger PercCAExp1 Prime_1N Target_6N HcjdAhf gLEBKkM Incongruent left correct Normal 1460.589
505 27 LeftLarger PercCAExp1 Prime_4A Target_9A bkedHBE ecbABjI Incongruent left correct Normal 1317.978
505 28 LeftLarger PercCAExp1 Prime_4N Target_9N KGIbMCJ DIeCkgb Incongruent left correct Normal 1223.781
505 29 LeftLarger PercCAExp1 Prime_9A Target_1A FjgehmE ALfldba Incongruent right error Normal 1018.959
505 30 LeftLarger PercCAExp1 Prime_6A Target_1A FkEhlAg LeiFBMb Incongruent left correct Normal 997.2655
505 31 LeftLarger PercCAExp1 Prime_6A Target_9A bCfDGLF KBlafdb Congruent left error Normal 938.0752
505 32 LeftLarger PercCAExp1 Prime_6N Target_9N EhFBLMb cCkLAGa Congruent left error Normal 1175.506
505 33 LeftLarger PercCAExp1 Prime_9N Target_9A dHfCDFg ahfdKkb Congruent right correct Normal 1127.55
505 34 LeftLarger PercCAExp1 Prime_9N Target_1A cHDAaFI kFmiLfB Incongruent right error Normal 944.5691
505 35 LeftLarger PercCAExp1 Prime_9N Target_9N lDhImMe iKcdfkL Congruent right correct Normal 1104.384
505 36 LeftLarger PercCAExp1 Prime_4N Target_1N GAibdBm fIjMmeF Congruent left error Normal 1002.325
505 37 LeftLarger PercCAExp1 Prime_9A Target_6N cdEkiHj MdmhlaK Congruent left error Normal 884.6281
505 38 LeftLarger PercCAExp1 Prime_6A Target_1N GlBgIcm bhLJkKH Incongruent left correct Normal 1468.898
505 39 LeftLarger PercCAExp1 Prime_9A Target_9N CGHhkal miChLGb Congruent left error Normal 1257.972
505 40 LeftLarger PercCAExp1 Prime_1N Target_4A DJLGdme hcHbCae Congruent right correct Normal 1310.715
505 41 LeftLarger PercCAExp1 Prime_9A Target_9A jkAgbmi lcHACeg Congruent left error Normal 1086.458
505 42 LeftLarger PercCAExp1 Prime_4N Target_4A LIgCjAa eJlfAIm Congruent right correct Normal 788.2724
505 43 LeftLarger PercCAExp1 Prime_1N Target_1A lAKbmhf ACaHLFc Congruent right correct Normal 1052.924
505 44 LeftLarger PercCAExp1 Prime_6A Target_4A faIEDhc BcDMHkm Incongruent right error Normal 1954.344
505 45 LeftLarger PercCAExp1 Prime_4N Target_6N GDLFmHb lKDBfFJ Incongruent right error Normal 1017.052
505 46 LeftLarger PercCAExp1 Prime_4A Target_4N DBhgCdG KBCcfFD Congruent left error Normal 1994.077
505 47 LeftLarger PercCAExp1 Prime_6N Target_1A IiLfDKG AmIkKfa Incongruent left correct Normal 1308.881
505 48 LeftLarger PercCAExp1 Prime_6N Target_1N fcdDIAj HcMKFIf Incongruent left correct Normal 2162.975
505 49 LeftLarger PercCAExp1 Prime_9A Target_4N cbBdCfm MfjmFCE Incongruent left correct Normal 1376.181
505 50 LeftLarger PercCAExp1 Prime_6N Target_4A mfeKGjA dBgFfDJ Incongruent left correct Normal 1219.595
505 51 LeftLarger PercCAExp1 Prime_1A Target_6A aFEmDBG eigdFBH Incongruent right error Normal 631.0501
505 52 LeftLarger PercCAExp1 Prime_6A Target_9N mMkCfle HcaImdM Congruent right correct Normal 938.9521
505 53 LeftLarger PercCAExp1 Prime_1A Target_1A cBiHEgC cdkIHlb Congruent left error Normal 1065.609
505 54 LeftLarger PercCAExp1 Prime_4N Target_4N lJmLcEh BMGDEic Congruent right correct Normal 553.3374
505 55 LeftLarger PercCAExp1 Prime_4A Target_1A aGKclmL LDJebcK Congruent left error Normal 973.8489
505 56 LeftLarger PercCAExp1 Prime_4A Target_6A AKFJbli FCLmJKa Incongruent right error Normal 1038.783
505 57 LeftLarger PercCAExp1 Prime_4A Target_4A FLlJBia KAaMhbi Congruent right correct Normal 1024.656
505 58 LeftLarger PercCAExp1 Prime_1A Target_4A dKMjcJa kGheJIK Congruent left error Normal 762.1162
505 59 LeftLarger PercCAExp1 Prime_4A Target_6N fHGBKJi iJhMHKb Incongruent right error Normal 893.9069
505 60 LeftLarger PercCAExp1 Prime_1N Target_1N fCdgFMi eDhHkLj Congruent left error Normal 1078.461
505 61 LeftLarger PercCAExp1 Prime_9A Target_4A KHEJidL EHJfGaM Incongruent right error Normal 1549.472
505 62 LeftLarger PercCAExp1 Prime_9N Target_6A GHFjbAD hiBdelb Congruent right correct Normal 1324.748
505 63 LeftLarger PercCAExp1 Prime_6N Target_6A FbEjkDH BHmGhca Congruent right correct Normal 970.5009
505 64 LeftLarger PercCAExp1 Prime_9N Target_4A aMcKfBJ lDiGbjA Incongruent left correct Normal 902.0462
505 65 LeftLarger PercCAExp1 Prime_6N Target_6N gCmkLMl mGJbCgF Congruent left error Normal 1268.129
505 66 LeftLarger PercCAExp1 Prime_4A Target_1N faLBEMF eILlJkb Congruent right correct Normal 822.1593
505 67 LeftLarger PercCAExp1 Prime_9N Target_6N EMJifda KBMJEhD Congruent right correct Normal 730.8437
505 68 LeftLarger PercCAExp1 Prime_9N Target_1N hJljCae lhDmHKk Incongruent left correct Normal 1069.86
505 69 LeftLarger PercCAExp1 Prime_6A Target_6N jIkDbML DjIMfAH Congruent right correct Normal 1582.822
505 70 LeftLarger PercCAExp1 Prime_6A Target_4N idkjafI CJmLhDA Incongruent left correct Normal 1372.872
505 71 LeftLarger PercCAExp1 Prime_1A Target_6N mfdHKkc CHkKcjf Incongruent right error Normal 985.7995
505 72 LeftLarger PercCAExp1 Prime_1A Target_4N kmJHDcf hIJbklc Congruent right correct Normal 1007.484
505 73 LeftLarger PercCAExp1 Prime_9N Target_4N FDakmfJ lDaKJdE Incongruent right error Normal 765.818
505 74 LeftLarger PercCAExp1 Prime_6N Target_9A ImMabEJ fCDlFae Congruent right correct Normal 804.4438
505 75 LeftLarger PercCAExp1 Prime_6N Target_4N hHmGkaJ HJLlfFi Incongruent left correct Normal 1115.226
505 76 LeftLarger PercCAExp1 Prime_1N Target_4N haelikI jmILaJf Congruent left error Normal 1070.055
505 77 LeftLarger PercCAExp1 Prime_1A Target_9N bfiIFCj dchalKj Incongruent left correct Normal 1532.086
505 78 LeftLarger PercCAExp1 Prime_1A Target_1N AjibfJE CAdeEKk Congruent left error Normal 1405.94
505 79 LeftLarger PercCAExp1 Prime_4N Target_9A afKegji eiHlLKj Incongruent right error Normal 895.1565
505 80 LeftLarger PercCAExp1 Prime_1A Target_9A jGglhJD AkCMdJg Incongruent right error Normal 1070.628
505 81 LeftSmaller PercCBPrac Prime_4N Target_1A dIfEhlL HelhFED Congruent right error Normal 1268.934
505 82 LeftSmaller PercCBPrac Prime_9N Target_9A lmaDiHf lajIfMe Congruent left correct Normal 1297.993
505 83 LeftSmaller PercCBPrac Prime_1N Target_1N BcIGeCa mlLjedi Congruent right error Normal 1569.067
505 84 LeftSmaller PercCBPrac Prime_4A Target_9N ChfjeAl DIEcJkb Incongruent right correct Normal 1305.389
505 85 LeftSmaller PercCBPrac Prime_9A Target_4N laLhIHg DgdCMBG Incongruent right correct Normal 1862.822
505 86 LeftSmaller PercCBPrac Prime_9N Target_9N cilmICg FcCgKmf Congruent left correct Normal 1317.111
505 87 LeftSmaller PercCBPrac Prime_1A Target_9N GAECFDk HlFMbic Incongruent right correct Normal 1038.182
505 88 LeftSmaller PercCBPrac Prime_9N Target_1A JIjCAEK djECkHe Incongruent left error Normal 1923.599
505 89 LeftSmaller PercCBPrac Prime_6N Target_1N CfFMkHD HEebKDA Incongruent right correct Normal 1155.388
505 90 LeftSmaller PercCBPrac Prime_9A Target_1A IkhLlKj MAdGbBH Incongruent right correct Normal 1218.425
505 91 LeftSmaller PercCBPrac Prime_6A Target_6N HLDKGbm kmGMcaB Congruent right error Normal 963.2731
505 92 LeftSmaller PercCBPrac Prime_4N Target_9A bjEgmaC DJFmjEC Incongruent left error Normal 1668.687
505 93 LeftSmaller PercCBPrac Prime_1N Target_9A JCcdjKe eCBIGaf Incongruent right correct Normal 960.3423
505 94 LeftSmaller PercCBPrac Prime_1A Target_4A MDCHdJA ahIAeEj Congruent right error Normal 682.9452
505 95 LeftSmaller PercCBPrac Prime_6A Target_6A gHfAiBE LiKAlme Congruent left correct Normal 761.1155
505 96 LeftSmaller PercCBPrac Prime_6N Target_6N DgKLfEB IigjBDc Congruent left correct Normal 1326.713
505 97 LeftSmaller PercCBExp1 Prime_6N Target_9A hCaAKgl jGLJKBm Congruent left correct Normal 1032.898
505 98 LeftSmaller PercCBExp1 Prime_6N Target_6A BLKabdM AdfKcjm Congruent left correct Normal 912.1836
505 99 LeftSmaller PercCBExp1 Prime_9N Target_1A gEjeBaL GadJLkM Incongruent right correct Normal 1032.61
505 100 LeftSmaller PercCBExp1 Prime_1N Target_1A iHLjlbc eCLGJMm Congruent right error Normal 950.2968
505 101 LeftSmaller PercCBExp1 Prime_9A Target_6N FgLhCcI ImEJCKM Congruent right error Normal 914.1634
505 102 LeftSmaller PercCBExp1 Prime_9A Target_4A KkDBhiC beBIMjJ Incongruent right correct Normal 2132.113
505 103 LeftSmaller PercCBExp1 Prime_1A Target_9A ElIhfGi AehFELj Incongruent right correct Normal 1065.089
505 104 LeftSmaller PercCBExp1 Prime_9A Target_4N HlfbmCB DmihbLe Incongruent left error Normal 985.9828
505 105 LeftSmaller PercCBExp1 Prime_6A Target_4A cblikeD IikljFE Incongruent right correct Normal 1176.815
505 106 LeftSmaller PercCBExp1 Prime_9N Target_4N HEKFCIL ALmIJBi Incongruent right correct Normal 2084.864
505 107 LeftSmaller PercCBExp1 Prime_9A Target_9N jdfFmkG fFGAMkH Congruent left correct Normal 1287.299
505 108 LeftSmaller PercCBExp1 Prime_1A Target_4A IilABHE CaLKicm Congruent left correct Normal 870.9929
505 109 LeftSmaller PercCBExp1 Prime_1N Target_4N LeJAMab CHfeljF Congruent left correct Normal 1560.543
505 110 LeftSmaller PercCBExp1 Prime_6A Target_1N BbIhMCD mMEJFfb Incongruent right correct Normal 1381.96
505 111 LeftSmaller PercCBExp1 Prime_6A Target_6N lAmLaDd FjKIAlJ Congruent left correct Normal 1341.017
505 112 LeftSmaller PercCBExp1 Prime_1N Target_4A EDIlBKe IhLleKm Congruent left correct Normal 1955.782
505 113 LeftSmaller PercCBExp1 Prime_1A Target_1A AgaeDLB GfcaHFb Congruent right error Normal 1802.414
505 114 LeftSmaller PercCBExp1 Prime_9N Target_6A AaIlMeG FcbJCmE Congruent left correct Normal 1421.837
505 115 LeftSmaller PercCBExp1 Prime_6N Target_4A CEamgiG KkMJalG Incongruent right correct Normal 795.4642
505 116 LeftSmaller PercCBExp1 Prime_4A Target_9N BdgmCGa FaHjEci Incongruent right correct Normal 1600.066
505 117 LeftSmaller PercCBExp1 Prime_9N Target_6N dmjiMag eKHhCBG Congruent right error Normal 2022.59
505 118 LeftSmaller PercCBExp1 Prime_1A Target_1N FCMmAhJ IhmGfcC Congruent right error Normal 1498.271
505 119 LeftSmaller PercCBExp1 Prime_9N Target_9N aHGDlBi bHFlCkd Congruent left correct Normal 1434.271
505 120 LeftSmaller PercCBExp1 Prime_9N Target_1N lAGJkCE cfBEibl Incongruent left error Normal 1260.791
505 121 LeftSmaller PercCBExp1 Prime_6A Target_9A FKBCIlm iafMAcF Congruent left correct Normal 1688.235
505 122 LeftSmaller PercCBExp1 Prime_9N Target_4A hBFkIlM KAMeGlj Incongruent right correct Normal 1182.696
505 123 LeftSmaller PercCBExp1 Prime_4N Target_4A bImfKje elgdmIj Congruent left correct Normal 1007.439
505 124 LeftSmaller PercCBExp1 Prime_1A Target_9N hjCeMJB lFLiHBK Incongruent left error Normal 1102.735
505 125 LeftSmaller PercCBExp1 Prime_4A Target_6A mEkhFef ACMBKmE Incongruent left error Normal 1440.839
505 126 LeftSmaller PercCBExp1 Prime_4N Target_6N AfiGFeh MLaKgiF Incongruent right correct Normal 1162.773
505 127 LeftSmaller PercCBExp1 Prime_6N Target_1A aeMFHKj FGJLjHm Incongruent left error Normal 1374.709
505 128 LeftSmaller PercCBExp1 Prime_6N Target_6N fjEDCFL fjIdJmH Congruent left correct Normal 1704.471
505 129 LeftSmaller PercCBExp1 Prime_6N Target_9N EeCLKhj BAfkbGL Congruent right error Normal 2138.312
505 130 LeftSmaller PercCBExp1 Prime_9A Target_1N iAfFLGg ijlbfMe Incongruent left error Normal 1032.019
505 131 LeftSmaller PercCBExp1 Prime_1N Target_6N fDdgKlj CkfeJlh Incongruent left error Normal 1183.808
505 132 LeftSmaller PercCBExp1 Prime_1N Target_1N lLAajFc fKgcIab Congruent right error Normal 880.0176
505 133 LeftSmaller PercCBExp1 Prime_4A Target_6N KIdLFbH jhiCEcl Incongruent left error Normal 1301.899
505 134 LeftSmaller PercCBExp1 Prime_6N Target_4N FeClaKc GFAjmaH Incongruent left error Normal 1445.477
505 135 LeftSmaller PercCBExp1 Prime_6N Target_1N JLgmhiA MDAHBbf Incongruent right correct Normal 1322.239
505 136 LeftSmaller PercCBExp1 Prime_1A Target_6A lBGiFDJ ciDeBEb Incongruent right correct Normal 1692.83
505 137 LeftSmaller PercCBExp1 Prime_4A Target_4A JBadkLm eFaHDCg Congruent left correct Normal 1306.148
505 138 LeftSmaller PercCBExp1 Prime_6A Target_4N mDKaiEC mlhCAaM Incongruent right correct Normal 729.601
505 139 LeftSmaller PercCBExp1 Prime_9A Target_9A cHADgLC lHifCDB Congruent left correct Normal 931.254
505 140 LeftSmaller PercCBExp1 Prime_4A Target_4N GjeAHiL iLgkaAJ Congruent left correct Normal 1409.494
505 141 LeftSmaller PercCBExp1 Prime_4A Target_9A BgMlJAh fkcDBhi Incongruent left error Normal 1363.116
505 142 LeftSmaller PercCBExp1 Prime_4N Target_1A LagfeiF eaidGkl Congruent right error Normal 916.2841
505 143 LeftSmaller PercCBExp1 Prime_6A Target_6A eliJCEc AMGjIdF Congruent right error Normal 920.0915
505 144 LeftSmaller PercCBExp1 Prime_4A Target_1A iKCbAJF LkdCeGD Congruent right error Normal 769.2379
505 145 LeftSmaller PercCBExp1 Prime_4N Target_4N eAhCKcI gDImEbJ Congruent left correct Normal 985.2997
505 146 LeftSmaller PercCBExp1 Prime_6A Target_9N mcCIBjk kFJfBli Congruent left correct Normal 1218.224
505 147 LeftSmaller PercCBExp1 Prime_1N Target_9N JHIAcCm HMeAfmC Incongruent left error Normal 831.2056
505 148 LeftSmaller PercCBExp1 Prime_1A Target_6N dkmabBH DelhIEL Incongruent right correct Normal 1250.336
505 149 LeftSmaller PercCBExp1 Prime_4N Target_6A fFDAGlC DKjAGLf Incongruent left error Normal 1145.884
505 150 LeftSmaller PercCBExp1 Prime_1N Target_9A aILhHBi hKjBgeM Incongruent right correct Normal 1327.179
505 151 LeftSmaller PercCBExp1 Prime_1A Target_4N ekGiKab eihBdHE Congruent right error Normal 943.5211
505 152 LeftSmaller PercCBExp1 Prime_4A Target_1N fHgChEA CiDJHBc Congruent left correct Normal 1045.56
505 153 LeftSmaller PercCBExp1 Prime_9N Target_9A bKfkieg IDMLFba Congruent right error Normal 770.6092
505 154 LeftSmaller PercCBExp1 Prime_1N Target_6A kFedLIB CeiJEIb Incongruent right correct Normal 813.0194
505 155 LeftSmaller PercCBExp1 Prime_9A Target_6A GLlAIeD jdBehiL Congruent left correct Normal 1134.066
505 156 LeftSmaller PercCBExp1 Prime_6A Target_1A JmdLgbM kEiLbKa Incongruent left error Normal 1208.121
505 157 LeftSmaller PercCBExp1 Prime_4N Target_9N bkLfhgI BghfIFE Incongruent right correct Normal 1143.882
505 158 LeftSmaller PercCBExp1 Prime_4N Target_1N CBMLmfh eCdbflM Congruent left correct Normal 970.2222
505 159 LeftSmaller PercCBExp1 Prime_9A Target_1A AlJGBeC dbgDHGh Incongruent right correct Normal 693.9098
505 160 LeftSmaller PercCBExp1 Prime_4N Target_9A aGBhfcd GEIDlAF Incongruent right correct Normal 1382.314
506 1 LeftLarger PercCAPrac Prime_1A Target_1A JljmMLd FhiElke Congruent right correct Normal 855.8739
506 2 LeftLarger PercCAPrac Prime_1A Target_6A cLhgFCB jHFAdlI Incongruent right error Normal 906.5662
506 3 LeftLarger PercCAPrac Prime_4N Target_9A DlgBmkG hlEdAgF Incongruent right error Normal 910.734
506 4 LeftLarger PercCAPrac Prime_4N Target_4N BAjdgck fjAgDlk Congruent left error Normal 253.2761
506 5 LeftLarger PercCAPrac Prime_9N Target_1A kjLgFcB GdKIkML Incongruent left correct Normal 1394.649
506 6 LeftLarger PercCAPrac Prime_6A Target_6N LGEKIDd cdlbfCk Congruent right correct Normal 643.8536
506 7 LeftLarger PercCAPrac Prime_6A Target_1N iGfEkhg mHebGBD Incongruent left correct Normal 1085.918
506 8 LeftLarger PercCAPrac Prime_9N Target_4N gMDLiFc CheJmdK Incongruent left correct Normal 1232.854
506 9 LeftLarger PercCAPrac Prime_1N Target_9A klEHGcf BaJKjif Incongruent left correct Normal 2177.035
506 10 LeftLarger PercCAPrac Prime_9A Target_1A igHaJlf lFdKIML Incongruent left correct Normal 705.709
506 11 LeftLarger PercCAPrac Prime_1A Target_4A iBjkhad bkMeIjg Congruent right correct Normal 675.7434
506 12 LeftLarger PercCAPrac Prime_1N Target_9N HcDgKjL aMiCebH Incongruent left correct Normal 1139.585
506 13 LeftLarger PercCAPrac Prime_4N Target_6N LIMAmhl HAjEFgC Incongruent right error Normal 960.7597
506 14 LeftLarger PercCAPrac Prime_4N Target_4A FLmadeH aEfGFhL Congruent left error Normal 873.7987
506 15 LeftLarger PercCAPrac Prime_6A Target_4N HlJgjMe digaDFK Incongruent left correct Normal 954.0997
506 16 LeftLarger PercCAPrac Prime_6N Target_6A HAdjbgm KhAbGEg Congruent right correct Normal 1608.398
506 17 LeftLarger PercCAExp1 Prime_6N Target_4A gjCBDac aeFjIHi Incongruent left correct Normal 712.1646
506 18 LeftLarger PercCAExp1 Prime_4N Target_9N CaIiJGh iDCEmBa Incongruent left correct Normal 1376.21
506 19 LeftLarger PercCAExp1 Prime_6A Target_4A jkHlfGE fkbcidB Incongruent left correct Normal 806.0228
506 20 LeftLarger PercCAExp1 Prime_9A Target_6N aImCFLf FBicALM Congruent right correct Normal 555.1829
506 21 LeftLarger PercCAExp1 Prime_9N Target_9N MCIhEAf aIeAlic Congruent left error Normal 1498.839
506 22 LeftLarger PercCAExp1 Prime_9N Target_6N BlMHJIc EDABkMJ Congruent right correct Normal 1061.409
506 23 LeftLarger PercCAExp1 Prime_4A Target_4N bJijLAm jCJeKdm Congruent left error Normal 877.777
506 24 LeftLarger PercCAExp1 Prime_9N Target_4N cbgkeDJ aAeLigI Incongruent left correct Normal 587.025
506 25 LeftLarger PercCAExp1 Prime_4N Target_1N cKkMbCe mkcdEDC Congruent right correct Normal 765.8046
506 26 LeftLarger PercCAExp1 Prime_9N Target_1A FCfijkM ciAmKMI Incongruent left correct Normal 1212.59
506 27 LeftLarger PercCAExp1 Prime_6N Target_1A gIHLFka CmLIADg Incongruent left correct Normal 1063.769
506 28 LeftLarger PercCAExp1 Prime_9N Target_9A ECGhejI EMfCcgD Congruent right correct Normal 553.9577
506 29 LeftLarger PercCAExp1 Prime_6N Target_6N DkMABCd IEkdfjA Congruent right correct Normal 1837.608
506 30 LeftLarger PercCAExp1 Prime_4A Target_4A fGHAeik eMHLijF Congruent right correct Normal 2060.119
506 31 LeftLarger PercCAExp1 Prime_1N Target_6A aMCHdim fMIgmAe Incongruent left correct Normal 1093.014
506 32 LeftLarger PercCAExp1 Prime_1N Target_4N ACBHhmL kAJclaL Congruent right correct Normal 818.2948
506 33 LeftLarger PercCAExp1 Prime_4A Target_6A FhclkbK DCiglkj Incongruent right error Normal 902.0861
506 34 LeftLarger PercCAExp1 Prime_6N Target_9N jkImBMi aDgjehA Congruent right correct Normal 952.7831
506 35 LeftLarger PercCAExp1 Prime_1A Target_6N GJdlaHf afGdHCl Incongruent left correct Normal 650.9387
506 36 LeftLarger PercCAExp1 Prime_1N Target_1N ImBkhAc MDEBkhb Congruent right correct Normal 629.8757
506 37 LeftLarger PercCAExp1 Prime_4A Target_1N DiJEcMj ceAbkaE Congruent left error Normal 819.1554
506 38 LeftLarger PercCAExp1 Prime_6A Target_9A jFAJeML FbghClD Congruent left error Normal 524.9578
506 39 LeftLarger PercCAExp1 Prime_1A Target_1A iaIKlML FAMIGbj Congruent right correct Normal 1202.972
506 40 LeftLarger PercCAExp1 Prime_9N Target_6A gaIekEl HBDagbm Congruent left error Normal 1115.555
506 41 LeftLarger PercCAExp1 Prime_4N Target_1A bkDaMFc bLFEefJ Congruent right correct Normal 612.588
506 42 LeftLarger PercCAExp1 Prime_1A Target_4N EHgiGeM dMfKDCi Congruent left error Normal 888.1465
506 43 LeftLarger PercCAExp1 Prime_6N Target_6A feBDMac HjiDkbm Congruent right correct Normal 839.6804
506 44 LeftLarger PercCAExp1 Prime_1A Target_1N JaBhfcE khKaiBL Congruent right correct Normal 819.5477
506 45 LeftLarger PercCAExp1 Prime_9A Target_6A dDKgFjk lIHkjde Congruent left error Normal 408.9181
506 46 LeftLarger PercCAExp1 Prime_6N Target_1N fCLAglc gIFAEmj Incongruent left correct Normal 929.6851
506 47 LeftLarger PercCAExp1 Prime_1N Target_9N GcCgilm LHKkemh Incongruent right error Normal 816.8722
506 48 LeftLarger PercCAExp1 Prime_4N Target_6N lBAgELm CFIJMGb Incongruent left correct Normal 653.0727
506 49 LeftLarger PercCAExp1 Prime_9N Target_1N MAlibgG MdKGija Incongruent right error Normal 608.7671
506 50 LeftLarger PercCAExp1 Prime_6A Target_6N mAfLDae HlMjhaf Congruent right correct Normal 978.3121
506 51 LeftLarger PercCAExp1 Prime_4N Target_4N GClmAfE CHjhALi Congruent right correct Normal 1111.221
506 52 LeftLarger PercCAExp1 Prime_9A Target_1N KAkMhJj LBMmFjk Incongruent left correct Normal 800.2492
506 53 LeftLarger PercCAExp1 Prime_1N Target_9A mADEaGc cfElCAD Incongruent right error Normal 935.8755
506 54 LeftLarger PercCAExp1 Prime_1A Target_6A kfMJABI fMlghej Incongruent left correct Normal 1475.072
506 55 LeftLarger PercCAExp1 Prime_9A Target_9N ILgkjEJ iHcbCEJ Congruent left error Normal 532.4021
506 56 LeftLarger PercCAExp1 Prime_6A Target_4N ijJkGCL BHmKijl Incongruent left correct Normal 802.5628
506 57 LeftLarger PercCAExp1 Prime_6A Target_1N GbMKAJC bkdilgC Incongruent right error Normal 1319.111
506 58 LeftLarger PercCAExp1 Prime_4N Target_4A bBiejkh jIMmbEc Congruent right correct Normal 1118.757
506 59 LeftLarger PercCAExp1 Prime_4N Target_6A bjfAlCc LBJIMfG Incongruent left correct Normal 1301.214
506 60 LeftLarger PercCAExp1 Prime_6N Target_9A FCfgelI GLAhCbE Congruent right correct Normal 1150.515
506 61 LeftLarger PercCAExp1 Prime_9A Target_4N kdclFKI DJladKL Incongruent left correct Normal 1427.315
506 62 LeftLarger PercCAExp1 Prime_4A Target_9N KibehGH BKMgDJd Incongruent right error Normal 1030.382
506 63 LeftLarger PercCAExp1 Prime_4A Target_6N HFIihDf gIHDKed Incongruent left correct Normal 1575.32
506 64 LeftLarger PercCAExp1 Prime_9A Target_9A cCAhFEI akJEgcb Congruent right correct Normal 497.8736
506 65 LeftLarger PercCAExp1 Prime_1N Target_4A DIaGAlh lgkaMHG Congruent left error Normal 984.652
506 66 LeftLarger PercCAExp1 Prime_1A Target_4A HKcdFBg ecdmFJh Congruent right correct Normal 780.4076
506 67 LeftLarger PercCAExp1 Prime_1A Target_9A iGJhMaI hFBdlGe Incongruent left correct Normal 1459.86
506 68 LeftLarger PercCAExp1 Prime_1A Target_9N jAfaGdB mjJIFaE Incongruent left correct Normal 750.0567
506 69 LeftLarger PercCAExp1 Prime_9A Target_4A ekjCDcJ cBALJmG Incongruent left correct Normal 558.1343
506 70 LeftLarger PercCAExp1 Prime_4N Target_9A bEfiJaI faFCgBI Incongruent right error Normal 864.6538
506 71 LeftLarger PercCAExp1 Prime_6A Target_9N kHfDjIG CFGkaAI Congruent right correct Normal 712.5568
506 72 LeftLarger PercCAExp1 Prime_6A Target_1A iHKBgkJ MAeBfKi Incongruent left correct Normal 745.8596
506 73 LeftLarger PercCAExp1 Prime_9A Target_1A fjlFbEH IiDagKj Incongruent right error Normal 1605.162
506 74 LeftLarger PercCAExp1 Prime_9N Target_4A kciHAgM hKcCmad Incongruent left correct Normal 1364.833
506 75 LeftLarger PercCAExp1 Prime_1N Target_6N laMfmki bkLFHJj Incongruent right error Normal 641.3975
506 76 LeftLarger PercCAExp1 Prime_1N Target_1A DchHgEd cfECjkh Congruent left error Normal 517.0769
506 77 LeftLarger PercCAExp1 Prime_4A Target_9A DkihaGf dmCAMHi Incongruent right error Normal 807.8494
506 78 LeftLarger PercCAExp1 Prime_4A Target_1A mHBjegi ADhCbKl Congruent right correct Normal 975.3002
506 79 LeftLarger PercCAExp1 Prime_6A Target_6A liCLIDH CKlkgim Congruent left error Normal 1537.595
506 80 LeftLarger PercCAExp1 Prime_6N Target_4N aFDbBAj FLhJCAG Incongruent left correct Normal 1592.907
506 81 LeftSmaller PercCBPrac Prime_9N Target_4A IgbHhad FJfAilc Incongruent right correct Normal 1499.201
506 82 LeftSmaller PercCBPrac Prime_9N Target_6A mAahBHe hadLfjb Congruent left correct Normal 1558.485
506 83 LeftSmaller PercCBPrac Prime_9A Target_4A GhMLjmB bBeFhHJ Incongruent left error Normal 600.6199
506 84 LeftSmaller PercCBPrac Prime_4A Target_1A bcaIikh chelGBm Congruent right error Early 9.246578
506 85 LeftSmaller PercCBPrac Prime_1N Target_4N jAHfIFJ LJeEKAh Congruent left correct Normal 191.9474
506 86 LeftSmaller PercCBPrac Prime_1N Target_6A FalDhBe HjCMgah Incongruent right correct Normal 121.1489
506 87 LeftSmaller PercCBPrac Prime_9N Target_6N akdFLcg FjblEga Congruent left correct Early 3.110335
506 88 LeftSmaller PercCBPrac Prime_1N Target_9N ChfKbDg FIBLfCJ Incongruent left error Early 88.67928
506 89 LeftSmaller PercCBPrac Prime_1A Target_4N mafkDJc bMADacm Congruent left correct Normal 163.5222
506 90 LeftSmaller PercCBPrac Prime_9A Target_1N bmKBahM MhfcILJ Incongruent right correct Early 86.81693
506 91 LeftSmaller PercCBPrac Prime_9A Target_4N bcDlCEh jiIEFbC Incongruent right correct Normal 2789.573
506 92 LeftSmaller PercCBPrac Prime_4A Target_4N hbkJdfH MICLFjA Congruent left correct Normal 629.5348
506 93 LeftSmaller PercCBPrac Prime_1A Target_1A MalFmfJ GaAfKiD Congruent right error Normal 569.291
506 94 LeftSmaller PercCBPrac Prime_1A Target_9N FDMgHJh BkiJjAl Incongruent left error Normal 641.5224
506 95 LeftSmaller PercCBPrac Prime_9N Target_9N AaGeJCk heLmKkF Congruent right error Normal 1210.832
506 96 LeftSmaller PercCBPrac Prime_6N Target_9N FCgHcAi aLkKHij Congruent left correct Normal 613.9315
506 97 LeftSmaller PercCBExp1 Prime_6N Target_9A beMAKcl FBaGKIe Congruent left correct Normal 1318.304
506 98 LeftSmaller PercCBExp1 Prime_1A Target_1A LlfdGaB bFBiGAk Congruent right error Normal 544.6335
506 99 LeftSmaller PercCBExp1 Prime_1N Target_6A ebLDgHI mHdJIji Incongruent right correct Normal 1292.053
506 100 LeftSmaller PercCBExp1 Prime_4N Target_4A KgfcJlD EfMgkAJ Congruent left correct Normal 628.73
506 101 LeftSmaller PercCBExp1 Prime_1N Target_9N dhjDcIC ICfbMdl Incongruent right correct Normal 1026.481
506 102 LeftSmaller PercCBExp1 Prime_6A Target_6A MBjGhbJ BACLMGm Congruent left correct Normal 505.9888
506 103 LeftSmaller PercCBExp1 Prime_9A Target_4A eMBdAbC FhDdBjL Incongruent left error Normal 1476.053
506 104 LeftSmaller PercCBExp1 Prime_9N Target_6A BeGFAfk ALkDhFB Congruent right error Normal 725.2425
506 105 LeftSmaller PercCBExp1 Prime_4N Target_1N CFgKaLG dHkBgcb Congruent left correct Normal 307.85
506 106 LeftSmaller PercCBExp1 Prime_9A Target_6N AgjFBDl FLgDjCb Congruent right error Early 2.956136
506 107 LeftSmaller PercCBExp1 Prime_9A Target_4N BbDGiMH hIbHAcK Incongruent left error Normal 314.7883
506 108 LeftSmaller PercCBExp1 Prime_4A Target_4A ekBgALI IDimcGJ Congruent left correct Early 16.76548
506 109 LeftSmaller PercCBExp1 Prime_1A Target_6N LdbhcAI LFeMImB Incongruent right correct Early 13.16182
506 110 LeftSmaller PercCBExp1 Prime_4A Target_9A KHJDFlf KBjEfMG Incongruent right correct Normal 175.7785
506 111 LeftSmaller PercCBExp1 Prime_9N Target_9N aCAJfeK lGdeAah Congruent left correct Early 46.48283
506 112 LeftSmaller PercCBExp1 Prime_9A Target_9A bMKlDEc AJMIfja Congruent right error Early 3.078036
506 113 LeftSmaller PercCBExp1 Prime_6A Target_4N lEHMjGJ IhMFiLb Incongruent left error Early 40.80298
506 114 LeftSmaller PercCBExp1 Prime_9A Target_9N ECIAjlk CbcAKLg Congruent right error Normal 3400.107
506 115 LeftSmaller PercCBExp1 Prime_9N Target_4N KbfMDiI lkJemDE Incongruent left error Normal 116.4015
506 116 LeftSmaller PercCBExp1 Prime_1A Target_9A DMCEGkj CgbILaJ Incongruent right correct Normal 292.5592
506 117 LeftSmaller PercCBExp1 Prime_9N Target_1N lIcJGeM meAMGgL Incongruent left error Normal 135.4469
506 118 LeftSmaller PercCBExp1 Prime_9A Target_6A dCeiEFh LegjhFG Congruent left correct Early 2.700568
506 119 LeftSmaller PercCBExp1 Prime_6N Target_9N IHlLdGg AkGhbHL Congruent left correct Normal 149.7667
506 120 LeftSmaller PercCBExp1 Prime_4A Target_6N eCjAbFk cgKmDEJ Incongruent right correct Normal 238.5676
506 121 LeftSmaller PercCBExp1 Prime_9N Target_9A KAjMGfC hgKGjlL Congruent right error Early 63.77881
506 122 LeftSmaller PercCBExp1 Prime_6A Target_4A bEeGiHg EMIGelJ Incongruent right correct Early 2.731149
506 123 LeftSmaller PercCBExp1 Prime_6A Target_9N miCkLMF aLDhkiG Congruent right error Early 24.24845
506 124 LeftSmaller PercCBExp1 Prime_9A Target_1N GemgKFl Ikejhlg Incongruent right correct Early 2.913571
506 125 LeftSmaller PercCBExp1 Prime_1A Target_9N GaDeACh eAkJMaI Incongruent left error Early 2.800445
506 126 LeftSmaller PercCBExp1 Prime_4A Target_1A IfFJGbA bdFDmek Congruent left correct Normal 1686.401
506 127 LeftSmaller PercCBExp1 Prime_1N Target_4N KjmbHhk lBKIAjH Congruent left correct Early 37.00854
506 128 LeftSmaller PercCBExp1 Prime_6N Target_4N fjMdBgH dkjaKcC Incongruent right correct Early 2.696506
506 129 LeftSmaller PercCBExp1 Prime_4N Target_9A CeIMGhE dGMgFiB Incongruent right correct Early 2.806006
506 130 LeftSmaller PercCBExp1 Prime_4A Target_4N BelFmaj LEaDdJj Congruent left correct Normal 718.8571
506 131 LeftSmaller PercCBExp1 Prime_4A Target_1N BgGAilJ MbHDfdB Congruent right error Early 13.072
506 132 LeftSmaller PercCBExp1 Prime_9N Target_4A hMkmbec cemfgjD Incongruent left error Early 43.06717
506 133 LeftSmaller PercCBExp1 Prime_6N Target_6N elkJCFd lGbgHmC Congruent right error Early 2.903725
506 134 LeftSmaller PercCBExp1 Prime_9A Target_1A aeBfgHk mDjaAHL Incongruent right correct Early 2.984359
506 135 LeftSmaller PercCBExp1 Prime_4N Target_4N LMbhlfG hcFdJIg Congruent left correct Normal 527.6517
506 136 LeftSmaller PercCBExp1 Prime_1A Target_1N FLKAhga ACEKaLk Congruent right error Early 11.52618
506 137 LeftSmaller PercCBExp1 Prime_1A Target_4A aMkhJGL gjAKLIl Congruent left correct Early 52.78354
506 138 LeftSmaller PercCBExp1 Prime_6N Target_1A DMeJHgj MBALCmK Incongruent right correct Early 3.087022
506 139 LeftSmaller PercCBExp1 Prime_6A Target_1A egaiIdA AiGaEMk Incongruent right correct Normal 105.773
506 140 LeftSmaller PercCBExp1 Prime_9N Target_1A igcjJCm kjHfMFd Incongruent right correct Early 3.187096
506 141 LeftSmaller PercCBExp1 Prime_4A Target_6A hdHcgKj HeiMGdK Incongruent left error Early 2.954864
506 142 LeftSmaller PercCBExp1 Prime_1A Target_4N iFmMcEH fHclkIJ Congruent right error Early 2.851557
506 143 LeftSmaller PercCBExp1 Prime_6N Target_4A jFmIihe fIJjGLC Incongruent left error Normal 2672.413
506 144 LeftSmaller PercCBExp1 Prime_1N Target_6N FaChGJm biCEKHk Incongruent left error Early 8.954236
506 145 LeftSmaller PercCBExp1 Prime_1A Target_6A HeCbFcE ldLgCeB Incongruent left error Normal 2207.288
506 146 LeftSmaller PercCBExp1 Prime_6N Target_6A miheBjd LejKEDf Congruent right error Early 57.42572
506 147 LeftSmaller PercCBExp1 Prime_6A Target_6N eCmMDdG DielGFB Congruent left correct Early 3.014735
506 148 LeftSmaller PercCBExp1 Prime_6A Target_1N laIdkDm dElDgBI Incongruent right correct Early 3.046387
506 149 LeftSmaller PercCBExp1 Prime_6N Target_1N dgfjDeB CDLJaGd Incongruent right correct Early 2.794245
506 150 LeftSmaller PercCBExp1 Prime_1N Target_9A eBdmDgH mJidbDL Incongruent right correct Early 3.000408
506 151 LeftSmaller PercCBExp1 Prime_1N Target_4A mGhkJMa BbeHiJD Congruent right error Early 3.877826
506 152 LeftSmaller PercCBExp1 Prime_4N Target_6A JDBCdLA mGbLkMK Incongruent right correct Early 2.923617
506 153 LeftSmaller PercCBExp1 Prime_4N Target_1A FKMhGbg LJGfAjD Congruent left correct Early 24.72152
506 154 LeftSmaller PercCBExp1 Prime_1N Target_1A iklcBfD eGJDaKB Congruent right error Early 2.862674
506 155 LeftSmaller PercCBExp1 Prime_1N Target_1N gHKbkIa HMBJkme Congruent left correct Early 2.896681
506 156 LeftSmaller PercCBExp1 Prime_4N Target_9N bjKLDfh ehlIKAf Incongruent right correct Early 2.957419
506 157 LeftSmaller PercCBExp1 Prime_6A Target_9A EgfjCFb cAgMHBh Congruent left correct Early 54.55308
506 158 LeftSmaller PercCBExp1 Prime_4N Target_6N akJGhBA MjecIdb Incongruent left error Early 3.161856
506 159 LeftSmaller PercCBExp1 Prime_9N Target_6N aCcgeAk LEfbajI Congruent left correct Early 3.037178
506 160 LeftSmaller PercCBExp1 Prime_4A Target_9N dHekhca caBfGjg Incongruent right correct Early 2.972613
508 1 LeftLarger PercCAPrac Prime_9N Target_4N cJkbdgB cJbKheA Incongruent left correct Normal 1432.887
508 2 LeftLarger PercCAPrac Prime_1N Target_1A mKdBbch AFcklfg Congruent left error Normal 1267.726
508 3 LeftLarger PercCAPrac Prime_9A Target_6N GLlEbhd IeHMCGg Congruent left error Normal 1696.026
508 4 LeftLarger PercCAPrac Prime_4A Target_4A khBmDCl lGCjckJ Congruent right correct Normal 716.7169
508 5 LeftLarger PercCAPrac Prime_6A Target_4A JmhcMkG mDGfFgM Incongruent left correct Normal 1188.026
508 6 LeftLarger PercCAPrac Prime_9N Target_6A jdChkal jLmiEMA Congruent right correct Normal 986.7102
508 7 LeftLarger PercCAPrac Prime_1A Target_4N fEJiIjF GfJmAhL Congruent left error Normal 1885.856
508 8 LeftLarger PercCAPrac Prime_1A Target_1N IdjaGHJ GEefIdC Congruent right correct Normal 1165.323
508 9 LeftLarger PercCAPrac Prime_1A Target_4A gKHFbEc jFGiMCJ Congruent left error Normal 1491.835
508 10 LeftLarger PercCAPrac Prime_4N Target_4N FLmHlDJ libgfAG Congruent right correct Normal 1121.548
508 11 LeftLarger PercCAPrac Prime_9A Target_1A CkHALKd kGbjIem Incongruent left correct Normal 1259.274
508 12 LeftLarger PercCAPrac Prime_6N Target_4A IaldLhc KagdILC Incongruent left correct Normal 1210.168
508 13 LeftLarger PercCAPrac Prime_6A Target_1N FmCKgkG fCJIHLG Incongruent right error Normal 1327.461
508 14 LeftLarger PercCAPrac Prime_4N Target_6A hmjeICa gbHDake Incongruent left correct Normal 840.8758
508 15 LeftLarger PercCAPrac Prime_9A Target_4A dDlbJBI faimcBF Incongruent right error Normal 1299.691
508 16 LeftLarger PercCAPrac Prime_4A Target_4N iFcGCjH aiIKbAB Congruent left error Normal 966.3374
508 17 LeftLarger PercCAExp1 Prime_6N Target_6A kFcfKeh DmklcAF Congruent right correct Normal 787.5331
508 18 LeftLarger PercCAExp1 Prime_4N Target_4N IaFbhMe LiHlcdJ Congruent left error Normal 897.2825
508 19 LeftLarger PercCAExp1 Prime_1N Target_1N JkCAaEc EIBLADi Congruent right correct Normal 1451.87
508 20 LeftLarger PercCAExp1 Prime_1N Target_9A mbglALi jMAFBgJ Incongruent left correct Normal 676.3302
508 21 LeftLarger PercCAExp1 Prime_4N Target_6N EeldkFc KeLmBaG Incongruent left correct Normal 1012.98
508 22 LeftLarger PercCAExp1 Prime_6A Target_4A CefJilc AcdeakF Incongruent left correct Normal 1746.269
508 23 LeftLarger PercCAExp1 Prime_1N Target_6N MbFimKk agLiHeK Incongruent left correct Normal 831.1606
508 24 LeftLarger PercCAExp1 Prime_1A Target_6A iHCBDIF IfkDBFC Incongruent right error Normal 973.011
508 25 LeftLarger PercCAExp1 Prime_1N Target_4N FlDIJAK FEDbBgA Congruent left error Normal 1058.437
508 26 LeftLarger PercCAExp1 Prime_9A Target_9A gdlGLEj AjDEGIm Congruent right correct Normal 1215.359
508 27 LeftLarger PercCAExp1 Prime_6A Target_6N FAdhack KaieIJL Congruent left error Normal 1222.937
508 28 LeftLarger PercCAExp1 Prime_4N Target_9A ClHjkDf fclHLFm Incongruent left correct Normal 1110.344
508 29 LeftLarger PercCAExp1 Prime_6N Target_9N ebjKAfi MjlhABc Congruent right correct Normal 863.0302
508 30 LeftLarger PercCAExp1 Prime_6A Target_9A BckgCaG hJegfAH Congruent right correct Normal 890.0828
508 31 LeftLarger PercCAExp1 Prime_1A Target_1N jGJFdeC GbmMeJB Congruent left error Normal 1555.745
508 32 LeftLarger PercCAExp1 Prime_6N Target_1A MfBcdbC fHDIBJg Incongruent left correct Normal 1089.294
508 33 LeftLarger PercCAExp1 Prime_9N Target_6A JCjIkLM ElDJmGA Congruent right correct Normal 1160.883
508 34 LeftLarger PercCAExp1 Prime_4N Target_4A kDjEJFB JMaecbA Congruent right correct Normal 1534.418
508 35 LeftLarger PercCAExp1 Prime_4A Target_9A KGljIeL LIHghDm Incongruent left correct Normal 1069.82
508 36 LeftLarger PercCAExp1 Prime_1N Target_6A mKbkfCi LmHhjCF Incongruent left correct Normal 1931.528
508 37 LeftLarger PercCAExp1 Prime_1A Target_1A FafEihI aBgHemk Congruent left error Normal 835.1135
508 38 LeftLarger PercCAExp1 Prime_6N Target_4N hdmcgAD hKigdfD Incongruent left correct Normal 874.1504
508 39 LeftLarger PercCAExp1 Prime_9A Target_6A McJDECh mgECbGK Congruent right correct Normal 824.6479
508 40 LeftLarger PercCAExp1 Prime_1A Target_4N FHfBGIg dChJEbH Congruent right correct Normal 1467.233
508 41 LeftLarger PercCAExp1 Prime_9N Target_1N IbkfGLK aJEBMHb Incongruent left correct Normal 1155.544
508 42 LeftLarger PercCAExp1 Prime_6N Target_6N AabMmCc FcHkAiD Congruent right correct Normal 1204.992
508 43 LeftLarger PercCAExp1 Prime_4N Target_9N bMEIGgl aKMcLDj Incongruent left correct Normal 1262.036
508 44 LeftLarger PercCAExp1 Prime_1A Target_9A emLaKBJ GHlMEJb Incongruent left correct Normal 975.5823
508 45 LeftLarger PercCAExp1 Prime_4N Target_1A fFCILkH balDJjc Congruent left error Normal 1512.909
508 46 LeftLarger PercCAExp1 Prime_9A Target_4A MKhkaJI BmJLgDf Incongruent left correct Normal 1602.687
508 47 LeftLarger PercCAExp1 Prime_4A Target_6A DJkbdjK dDJlKLM Incongruent left correct Normal 1510.123
508 48 LeftLarger PercCAExp1 Prime_6N Target_1N GmjlcHF lGFIgaC Incongruent left correct Normal 1032.916
508 49 LeftLarger PercCAExp1 Prime_9A Target_1A KMjmhli IBdFCbk Incongruent left correct Normal 1076.253
508 50 LeftLarger PercCAExp1 Prime_6A Target_1N CFdHGEJ AIbKdEH Incongruent left correct Normal 1152.67
508 51 LeftLarger PercCAExp1 Prime_9N Target_6N AJCkbcM DmAHEBe Congruent right correct Normal 1524.537
508 52 LeftLarger PercCAExp1 Prime_9N Target_4A BklgFIJ EakJjIl Incongruent right error Normal 1788.747
508 53 LeftLarger PercCAExp1 Prime_9A Target_9N CDhMmea IBJgCGe Congruent right correct Normal 1631.345
508 54 LeftLarger PercCAExp1 Prime_4A Target_4N jGMLcHb DkbClHB Congruent left error Normal 1067.401
508 55 LeftLarger PercCAExp1 Prime_9A Target_6N HhKBLfJ bhGadFg Congruent right correct Normal 1319.369
508 56 LeftLarger PercCAExp1 Prime_6A Target_6A dlifEBA DiMGLhK Congruent left error Normal 1245.401
508 57 LeftLarger PercCAExp1 Prime_1A Target_4A kfHleBb MjmGBFl Congruent left error Normal 2108.864
508 58 LeftLarger PercCAExp1 Prime_4A Target_1N gHJClIf HdEIBMF Congruent right correct Normal 1446.774
508 59 LeftLarger PercCAExp1 Prime_9N Target_4N gJMickD LAfeCGJ Incongruent left correct Normal 1265.953
508 60 LeftLarger PercCAExp1 Prime_1A Target_9N JcIhBeb AdmjKEk Incongruent left correct Normal 1267.766
508 61 LeftLarger PercCAExp1 Prime_9N Target_9N hkDlLaC AjIgCKl Congruent right correct Normal 924.5816
508 62 LeftLarger PercCAExp1 Prime_6A Target_9N idEfBAF CGhMJDK Congruent left error Normal 1051.226
508 63 LeftLarger PercCAExp1 Prime_6N Target_9A jieaBKE jhBkgiK Congruent right correct Normal 867.8008
508 64 LeftLarger PercCAExp1 Prime_4A Target_4A dJDmjlk iCAgDMH Congruent left error Normal 1080.434
508 65 LeftLarger PercCAExp1 Prime_4N Target_1N jkfLgdA MhamecD Congruent right correct Normal 1553.663
508 66 LeftLarger PercCAExp1 Prime_4A Target_6N jJgHdmK iDFjICL Incongruent left correct Normal 1590.439
508 67 LeftLarger PercCAExp1 Prime_1A Target_6N hCjdgcK cbihLgH Incongruent right error Normal 1401.165
508 68 LeftLarger PercCAExp1 Prime_9N Target_9A hHKlgIb dHjlfcF Congruent right correct Normal 1094.946
508 69 LeftLarger PercCAExp1 Prime_6A Target_4N MmGbaFE dEcKMlG Incongruent left correct Normal 1986.244
508 70 LeftLarger PercCAExp1 Prime_4N Target_6A jFMBIkf caKmBEg Incongruent right error Normal 1155.034
508 71 LeftLarger PercCAExp1 Prime_9A Target_1N FgCdlfm dbfkjHI Incongruent left correct Normal 919.7367
508 72 LeftLarger PercCAExp1 Prime_1N Target_9N cdGKbjk DeagIGh Incongruent left correct Normal 1652.475
508 73 LeftLarger PercCAExp1 Prime_1N Target_4A LcEmHfj JdGEMhg Congruent right correct Normal 1023.227
508 74 LeftLarger PercCAExp1 Prime_1N Target_1A difkEFm DfhKLmd Congruent left error Normal 1258.144
508 75 LeftLarger PercCAExp1 Prime_9A Target_4N kJBfmFj KhalmEG Incongruent right error Normal 1372.044
508 76 LeftLarger PercCAExp1 Prime_4A Target_1A meELciA LmMHEdJ Congruent left error Normal 739.4027
508 77 LeftLarger PercCAExp1 Prime_9N Target_1A fbJLjFd CelmIBG Incongruent left correct Normal 1725.51
508 78 LeftLarger PercCAExp1 Prime_4A Target_9N HbCDmal kiDjaME Incongruent left correct Normal 1091.779
508 79 LeftLarger PercCAExp1 Prime_6A Target_1A JfFKaDh KiFdlIj Incongruent left correct Normal 832.0338
508 80 LeftLarger PercCAExp1 Prime_6N Target_4A AFLMKHb JkfCBgA Incongruent right error Normal 772.8477
508 81 LeftSmaller PercCBPrac Prime_1A Target_4A IAKCaFG JAhliEg Congruent right error Normal 1271.847
508 82 LeftSmaller PercCBPrac Prime_1N Target_9N caegMhE lGmILeE Incongruent right correct Normal 894.7992
508 83 LeftSmaller PercCBPrac Prime_9A Target_6N HkLfGKC BGHKkcM Congruent left correct Normal 875.3519
508 84 LeftSmaller PercCBPrac Prime_6A Target_6A aAKEMDB cHAmhGa Congruent left correct Normal 735.9993
508 85 LeftSmaller PercCBPrac Prime_4A Target_1N HKBDCIj MHkDgdl Congruent right error Normal 775.1707
508 86 LeftSmaller PercCBPrac Prime_4A Target_4N iGEeLhD DgmcahM Congruent right error Normal 1260.467
508 87 LeftSmaller PercCBPrac Prime_9A Target_6A MBLiFhE biMIBCk Congruent left correct Normal 599.0515
508 88 LeftSmaller PercCBPrac Prime_1A Target_4N idCgIED LaCIlKE Congruent right error Normal 665.7861
508 89 LeftSmaller PercCBPrac Prime_9N Target_1A hbiMFHD EhDCkiJ Incongruent right correct Normal 1056.983
508 90 LeftSmaller PercCBPrac Prime_1A Target_6N AiIHlbd BgfJHDM Incongruent left error Normal 916.6836
508 91 LeftSmaller PercCBPrac Prime_1A Target_9N DKbCkGI dmiAHLl Incongruent right correct Normal 1139.827
508 92 LeftSmaller PercCBPrac Prime_6A Target_9A MABIgGb LhjKiDc Congruent left correct Normal 355.3606
508 93 LeftSmaller PercCBPrac Prime_1A Target_1N GAJMIbC hCDmeMl Congruent right error Normal 435.3297
508 94 LeftSmaller PercCBPrac Prime_1A Target_9A mMGiCeB bgalGIJ Incongruent right correct Normal 717.243
508 95 LeftSmaller PercCBPrac Prime_6A Target_6N kFjGhAK aIlkbhF Congruent left correct Normal 569.6151
508 96 LeftSmaller PercCBPrac Prime_9N Target_4A lafgEhk DLcFaig Incongruent right correct Normal 1034.564
508 97 LeftSmaller PercCBExp1 Prime_9A Target_9N fbFBGAe MmHFJDG Congruent left correct Normal 1003.925
508 98 LeftSmaller PercCBExp1 Prime_1N Target_9A dGajELC leDLEjg Incongruent right correct Normal 443.168
508 99 LeftSmaller PercCBExp1 Prime_1N Target_6N HGIgFjK lHLkDgd Incongruent right correct Normal 517.951
508 100 LeftSmaller PercCBExp1 Prime_9A Target_6N EGiFKkc HKifbCj Congruent left correct Normal 829.2883
508 101 LeftSmaller PercCBExp1 Prime_1N Target_9N mAaLEBj ILHgjlc Incongruent right correct Normal 862.4679
508 102 LeftSmaller PercCBExp1 Prime_1A Target_6A lEckeKj lKMCBGb Incongruent left error Normal 763.6332
508 103 LeftSmaller PercCBExp1 Prime_1A Target_1N DBHbcei ghfmeGb Congruent right error Normal 786.9875
508 104 LeftSmaller PercCBExp1 Prime_6N Target_6N JAEdble GlmFheI Congruent left correct Normal 746.9829
508 105 LeftSmaller PercCBExp1 Prime_6A Target_9A emLDHKa cikhCAa Congruent right error Normal 964.0777
508 106 LeftSmaller PercCBExp1 Prime_4N Target_6N gDFaCEL CEDMAFj Incongruent left error Normal 391.1468
508 107 LeftSmaller PercCBExp1 Prime_9A Target_9A feFDkla MldcjEb Congruent right error Normal 600.4388
508 108 LeftSmaller PercCBExp1 Prime_6N Target_9A IKBAhMG ahKjILB Congruent right error Normal 409.6214
508 109 LeftSmaller PercCBExp1 Prime_6A Target_9N GiMkAlI AjcHdBE Congruent left correct Normal 383.3835
508 110 LeftSmaller PercCBExp1 Prime_6N Target_9N FKBhleH HEgDFca Congruent right error Early 2.882175
508 111 LeftSmaller PercCBExp1 Prime_1N Target_1A hgbDEFB ecGJaIi Congruent right error Normal 1180.828
508 112 LeftSmaller PercCBExp1 Prime_1N Target_4N iAlFKfD dFmbjaI Congruent left correct Normal 957.7514
508 113 LeftSmaller PercCBExp1 Prime_6A Target_1N EbLeAaF GieLbBC Incongruent left error Normal 769.2982
508 114 LeftSmaller PercCBExp1 Prime_6N Target_1N aKMbckg bElIKka Incongruent right correct Normal 872.9382
508 115 LeftSmaller PercCBExp1 Prime_4A Target_9A IiGDmha fIEGelH Incongruent right correct Normal 1108.535
508 116 LeftSmaller PercCBExp1 Prime_6N Target_4N IdEbfcl fKClGIe Incongruent left error Normal 725.2453
508 117 LeftSmaller PercCBExp1 Prime_4A Target_4A hLcMBfd lfMHAmc Congruent right error Normal 1097.881
508 118 LeftSmaller PercCBExp1 Prime_9N Target_4N kAHCiBj fIcMiBd Incongruent left error Normal 568.185
508 119 LeftSmaller PercCBExp1 Prime_1A Target_9N cEFeAJD ckFjMBA Incongruent left error Normal 1407.907
508 120 LeftSmaller PercCBExp1 Prime_6A Target_6N EmgkAaC CAfHkcG Congruent right error Normal 877.3941
508 121 LeftSmaller PercCBExp1 Prime_4A Target_1N hMgGECd gfEFdJe Congruent right error Normal 1230.833
508 122 LeftSmaller PercCBExp1 Prime_9N Target_4A GImdAJM HlLGEMj Incongruent left error Normal 527.4489
508 123 LeftSmaller PercCBExp1 Prime_6N Target_4A ILjFHGM hBalLjF Incongruent right correct Normal 643.9089
508 124 LeftSmaller PercCBExp1 Prime_9N Target_9N JADiKfC kBJLMGl Congruent left correct Normal 367.9753
508 125 LeftSmaller PercCBExp1 Prime_1A Target_4A ckCjfDE FcKIBEf Congruent right error Normal 134.3798
508 126 LeftSmaller PercCBExp1 Prime_4N Target_9A LKCefFd aFgldfC Incongruent right correct Normal 1331.392
508 127 LeftSmaller PercCBExp1 Prime_4N Target_4N GemLDHi IBCDliA Congruent left correct Normal 555.0938
508 128 LeftSmaller PercCBExp1 Prime_1A Target_6N HdJIjBK AfJClGg Incongruent right correct Normal 890.2667
508 129 LeftSmaller PercCBExp1 Prime_6A Target_1A hMGJAcH EkCIHBL Incongruent left error Normal 776.1849
508 130 LeftSmaller PercCBExp1 Prime_4N Target_1A jeMcblC BgjkibH Congruent left correct Normal 707.8636
508 131 LeftSmaller PercCBExp1 Prime_9N Target_6N bDmFKGA KbmBFke Congruent left correct Normal 1283.516
508 132 LeftSmaller PercCBExp1 Prime_4N Target_4A eEAKhJl fMdakAJ Congruent left correct Normal 933.5703
508 133 LeftSmaller PercCBExp1 Prime_4A Target_6A KieIHbm MDhCcAK Incongruent right correct Normal 1158.272
508 134 LeftSmaller PercCBExp1 Prime_4A Target_1A IgkmBLA HIGBKei Congruent left correct Normal 1603.01
508 135 LeftSmaller PercCBExp1 Prime_9N Target_1N LfGgaMD aJGKHlI Incongruent left error Normal 1354.619
508 136 LeftSmaller PercCBExp1 Prime_4A Target_6N DBlIgLi FHBibCc Incongruent left error Normal 963.5306
508 137 LeftSmaller PercCBExp1 Prime_1A Target_1A GjFcAIK edjHCcD Congruent right error Normal 1478.089
508 138 LeftSmaller PercCBExp1 Prime_9A Target_1N MFmKkdj aBFeJmc Incongruent right correct Normal 785.4058
508 139 LeftSmaller PercCBExp1 Prime_4N Target_6A hImCAfK IClJegi Incongruent left error Normal 891.7619
508 140 LeftSmaller PercCBExp1 Prime_6A Target_6A hIgHJiB BFKciad Congruent right error Normal 1077.211
508 141 LeftSmaller PercCBExp1 Prime_1N Target_4A IJBEeMA DIMiFfc Congruent left correct Normal 1429.172
508 142 LeftSmaller PercCBExp1 Prime_6A Target_4A gljidDc MFGEiaI Incongruent right correct Normal 1201.249
508 143 LeftSmaller PercCBExp1 Prime_6N Target_1A eBfAJcm IdBMEcb Incongruent left error Normal 1762.077
508 144 LeftSmaller PercCBExp1 Prime_9A Target_1A mebBLDh hBIcFLH Incongruent right correct Normal 355.6335
508 145 LeftSmaller PercCBExp1 Prime_1N Target_1N aiEMHIL BLmagkJ Congruent right error Normal 783.3164
508 146 LeftSmaller PercCBExp1 Prime_9A Target_6A IhkGcia ibchDMg Congruent right error Normal 1070.081
508 147 LeftSmaller PercCBExp1 Prime_9N Target_9A ELFImbh JlMIfmg Congruent right error Normal 1459.867
508 148 LeftSmaller PercCBExp1 Prime_1A Target_4N LdjKlck bDhacIB Congruent left correct Normal 981.3427
508 149 LeftSmaller PercCBExp1 Prime_9A Target_4N gikMhcC dMlcabF Incongruent right correct Normal 919.5988
508 150 LeftSmaller PercCBExp1 Prime_1A Target_9A jDgAEal DEfLbml Incongruent left error Normal 1227.02
508 151 LeftSmaller PercCBExp1 Prime_4N Target_1N IcdjeCg IemMadF Congruent left correct Normal 1248.95
508 152 LeftSmaller PercCBExp1 Prime_9A Target_4A aFMJKfl dhcaFmA Incongruent right correct Normal 660.4678
508 153 LeftSmaller PercCBExp1 Prime_6N Target_6A mBfehgk IEMaFKh Congruent left correct Normal 421.5734
508 154 LeftSmaller PercCBExp1 Prime_4A Target_9N jAECHDd FGCjLBA Incongruent right correct Early 2.933934
508 155 LeftSmaller PercCBExp1 Prime_9N Target_1A mGDdlJf gILmbjG Incongruent right correct Normal 739.2414
508 156 LeftSmaller PercCBExp1 Prime_9N Target_6A BHafKFA fHIdAlc Congruent left correct Normal 992.8284
508 157 LeftSmaller PercCBExp1 Prime_6A Target_4N GldBkjK KgakdjB Incongruent left error Normal 1244.476
508 158 LeftSmaller PercCBExp1 Prime_1N Target_6A JDMiecg BIhmgac Incongruent right correct Normal 1133.434
508 159 LeftSmaller PercCBExp1 Prime_4N Target_9N DlHBFeJ ijJGMdL Incongruent left error Normal 1321.319
508 160 LeftSmaller PercCBExp1 Prime_4A Target_4N jHdKJmC fgeBmAL Congruent left correct Normal 1020.465
509 1 LeftLarger PercCAPrac Prime_1A Target_9N BdJgiIe cMjgDhC Incongruent right error Normal 1639.09
509 2 LeftLarger PercCAPrac Prime_6A Target_1N KgGeDck dMILHgB Incongruent left correct Normal 1567.271
509 3 LeftLarger PercCAPrac Prime_1N Target_6A CbGfIMd cAHDEMJ Incongruent left correct Normal 1567.459
509 4 LeftLarger PercCAPrac Prime_6A Target_1A kJbCHDI JkMaDhf Incongruent left correct Normal 976.4031
509 5 LeftLarger PercCAPrac Prime_6A Target_9N CEAcKGb JdAFjLB Congruent right correct Normal 1896.796
509 6 LeftLarger PercCAPrac Prime_1A Target_4A MKdJbGa CGifkDF Congruent right correct Normal 1503.712
509 7 LeftLarger PercCAPrac Prime_6A Target_4A ijGmADf LaGkDcb Incongruent left correct Normal 795.4599
509 8 LeftLarger PercCAPrac Prime_6N Target_9A KcdifEk cbjHhCK Congruent right correct Normal 661.7499
509 9 LeftLarger PercCAPrac Prime_6A Target_4N HMajbke HJhmCeE Incongruent right error Normal 1357.126
509 10 LeftLarger PercCAPrac Prime_4N Target_6A ifCFhgK KAcJdDI Incongruent right error Normal 2309.527
509 11 LeftLarger PercCAPrac Prime_1A Target_6N HDcKgJE cBIDhAg Incongruent right error Normal 1475.898
509 12 LeftLarger PercCAPrac Prime_1A Target_1N KBhLMmC jbBfcDL Congruent left error Normal 447.7406
509 13 LeftLarger PercCAPrac Prime_4N Target_9N aBemjlL CJbgHcM Incongruent right error Normal 522.7876
509 14 LeftLarger PercCAPrac Prime_9A Target_4A GMgmhAL MJKdklE Incongruent left correct Normal 492.0789
509 15 LeftLarger PercCAPrac Prime_4A Target_9N IelEkFJ eIlkJMj Incongruent right error Normal 1848.715
509 16 LeftLarger PercCAPrac Prime_9N Target_9A jkeALHa Ccimkdh Congruent right correct Normal 1198.039
509 17 LeftLarger PercCAExp1 Prime_4N Target_6N BLJKlHh JjmIdkG Incongruent right error Normal 664.1271
509 18 LeftLarger PercCAExp1 Prime_9N Target_4N AFHdBJG dlaIcMe Incongruent left correct Normal 265.8067
509 19 LeftLarger PercCAExp1 Prime_6N Target_4N haeFjcD GKhefcE Incongruent right error Normal 515.8363
509 20 LeftLarger PercCAExp1 Prime_1A Target_9N lLiAEGF cdmFiCa Incongruent left correct Normal 412.0203
509 21 LeftLarger PercCAExp1 Prime_4A Target_4N BhAgFKd CjgHeJF Congruent right correct Normal 602.1602
509 22 LeftLarger PercCAExp1 Prime_4N Target_1A ilkMeDd ILFaEAH Congruent left error Normal 514.2036
509 23 LeftLarger PercCAExp1 Prime_4N Target_9N CLckiBH LAFEIBC Incongruent right error Normal 361.2772
509 24 LeftLarger PercCAExp1 Prime_6N Target_6A ELFCmek fGMJFkE Congruent right correct Normal 1249.611
509 25 LeftLarger PercCAExp1 Prime_6A Target_9N gaBkLde kclfLFa Congruent right correct Normal 1172.194
509 26 LeftLarger PercCAExp1 Prime_1A Target_9A DGHLhbf HgiaMEG Incongruent left correct Normal 1778.355
509 27 LeftLarger PercCAExp1 Prime_9A Target_1A laFKCeg kfeMDgl Incongruent right error Normal 108.358
509 28 LeftLarger PercCAExp1 Prime_9N Target_9N AIckJfi AmcMhfB Congruent right correct Normal 315.5033
509 29 LeftLarger PercCAExp1 Prime_4A Target_6N lcgJehA dIKelEa Incongruent left correct Early 2.996764
509 30 LeftLarger PercCAExp1 Prime_9A Target_6N hlfBJEe lkEaGMg Congruent right correct Normal 801.1163
509 31 LeftLarger PercCAExp1 Prime_4A Target_1N dECFehb dHfljFh Congruent right correct Normal 306.9987
509 32 LeftLarger PercCAExp1 Prime_4A Target_9A mbCkGHB IFEegDA Incongruent left correct Normal 131.3794
509 33 LeftLarger PercCAExp1 Prime_1N Target_9N HlBmAfd LkcdDCE Incongruent right error Early 89.33031
509 34 LeftLarger PercCAExp1 Prime_4N Target_6A HeKCGBJ fiDdGcH Incongruent right error Normal 392.2316
509 35 LeftLarger PercCAExp1 Prime_9A Target_6A KAIfjcF GgJbdKf Congruent right correct Normal 412.64
509 36 LeftLarger PercCAExp1 Prime_4N Target_4N kjEKhgm JKkBEaF Congruent right correct Normal 3174.294
509 37 LeftLarger PercCAExp1 Prime_9A Target_4N kcMGHlf BbJgKkC Incongruent left correct Normal 835.3473
509 38 LeftLarger PercCAExp1 Prime_9N Target_1N mlFedaM AGEJFDm Incongruent right error Normal 1061.442
509 39 LeftLarger PercCAExp1 Prime_1A Target_1N mbHBGgi bijCGgH Congruent left error Normal 1680.489
509 40 LeftLarger PercCAExp1 Prime_4A Target_1A AHLMCdb hjeBJbF Congruent left error Normal 937.557
509 41 LeftLarger PercCAExp1 Prime_6A Target_9A kjgaBDd AhEKHgC Congruent left error Normal 793.8658
509 42 LeftLarger PercCAExp1 Prime_1N Target_9A efjHdcL bEBlcDG Incongruent right error Normal 663.7819
509 43 LeftLarger PercCAExp1 Prime_9N Target_1A cJDbEFM EjKmlbF Incongruent left correct Normal 1445.743
509 44 LeftLarger PercCAExp1 Prime_6A Target_1A LkIhDgF jJFLmIB Incongruent right error Normal 1322.624
509 45 LeftLarger PercCAExp1 Prime_4A Target_9N KhCmjBE jcHkhlL Incongruent left correct Normal 1504.683
509 46 LeftLarger PercCAExp1 Prime_9N Target_6N LAkIfch MeIckHd Congruent right correct Normal 972.3237
509 47 LeftLarger PercCAExp1 Prime_6N Target_9A IaMdlFA jFKAmMJ Congruent right correct Normal 603.7556
509 48 LeftLarger PercCAExp1 Prime_9A Target_1N hjeMCFi hgEfFLi Incongruent left correct Normal 404.336
509 49 LeftLarger PercCAExp1 Prime_4N Target_1N iecJhHg lebAgCK Congruent right correct Early 2.908206
509 50 LeftLarger PercCAExp1 Prime_9A Target_9A IkiEFhG LGFEkfd Congruent left error Normal 217.5448
509 51 LeftLarger PercCAExp1 Prime_6N Target_1N gflhmjD lDjFKJL Incongruent right error Normal 181.5901
509 52 LeftLarger PercCAExp1 Prime_6A Target_6N MEBaACF kchJaHA Congruent right correct Normal 245.7305
509 53 LeftLarger PercCAExp1 Prime_9N Target_4A FAHaLme lJFcjeG Incongruent left correct Normal 186.6425
509 54 LeftLarger PercCAExp1 Prime_4N Target_9A clGIehH AKfGjMm Incongruent right error Early 2.903145
509 55 LeftLarger PercCAExp1 Prime_1N Target_4N jfCBkie GHhAbIa Congruent right correct Normal 3485.561
509 56 LeftLarger PercCAExp1 Prime_1A Target_4A aDiBLFK jblacJM Congruent left error Normal 513.4311
509 57 LeftLarger PercCAExp1 Prime_9N Target_6A bAlBIkj MDfAgmG Congruent right correct Normal 285.4035
509 58 LeftLarger PercCAExp1 Prime_4N Target_4A hFefBCl acdhgbD Congruent right correct Normal 373.8937
509 59 LeftLarger PercCAExp1 Prime_9A Target_9N DAegClb LfMjcCG Congruent left error Normal 3200.416
509 60 LeftLarger PercCAExp1 Prime_6N Target_4A Blihfjk kiblLGD Incongruent right error Normal 227.4034
509 61 LeftLarger PercCAExp1 Prime_6N Target_1A cHfeFCg laFjMKc Incongruent left correct Normal 202.2628
509 62 LeftLarger PercCAExp1 Prime_9A Target_4A bFdJmiC abgCGfM Incongruent left correct Normal 249.2918
509 63 LeftLarger PercCAExp1 Prime_1A Target_4N CIBibEL jekbEID Congruent right correct Early 2.858861
509 64 LeftLarger PercCAExp1 Prime_6A Target_1N BdEHKmg FdBLfIK Incongruent right error Normal 800.5604
509 65 LeftLarger PercCAExp1 Prime_1N Target_4A lFKAakj LiBKFlj Congruent left error Late 6065.246
509 66 LeftLarger PercCAExp1 Prime_1A Target_6A dLIcKjF ldfmDIJ Incongruent left correct Normal 561.2443
509 67 LeftLarger PercCAExp1 Prime_4A Target_6A Badbhgj IimLKCb Incongruent left correct Normal 216.2873
509 68 LeftLarger PercCAExp1 Prime_9N Target_9A JlEchjD efHCkhl Congruent right correct Normal 425.4376
509 69 LeftLarger PercCAExp1 Prime_6A Target_4N HBhGiaF HjbFeGJ Incongruent left correct Normal 335.7162
509 70 LeftLarger PercCAExp1 Prime_1N Target_6N MkiIAhH ahGKCkl Incongruent left correct Early 27.91864
509 71 LeftLarger PercCAExp1 Prime_1N Target_1A DFfLkHg imADkMa Congruent left error Normal 240.9397
509 72 LeftLarger PercCAExp1 Prime_1N Target_6A HdKmgGk GcJMBLk Incongruent right error Normal 192.2092
509 73 LeftLarger PercCAExp1 Prime_1A Target_6N IEJHbFk kJEmdAj Incongruent left correct Normal 138.628
509 74 LeftLarger PercCAExp1 Prime_6A Target_6A HimeJCg BJdGKFD Congruent right correct Early 6.972827
509 75 LeftLarger PercCAExp1 Prime_6N Target_6N CfIEjme MGDaAbc Congruent right correct Normal 368.325
509 76 LeftLarger PercCAExp1 Prime_6A Target_4A dDILcaj lEeHDfd Incongruent right error Early 28.95373
509 77 LeftLarger PercCAExp1 Prime_1A Target_1A ECBdIJk dGIDbgE Congruent left error Normal 2473.758
509 78 LeftLarger PercCAExp1 Prime_1N Target_1N iehBdHk CJDHjgE Congruent right correct Normal 150.5709
509 79 LeftLarger PercCAExp1 Prime_4A Target_4A CbEGhFB GDmMkIE Congruent left error Normal 232.4969
509 80 LeftLarger PercCAExp1 Prime_6N Target_9N BDiGMbF aiGIKbA Congruent left error Normal 236.4093
509 81 LeftSmaller PercCBPrac Prime_6N Target_4A lgdbkDC bdDKcaI Incongruent left error Normal 109.2885
509 82 LeftSmaller PercCBPrac Prime_4N Target_4A aEJLDgB hgHeKDb Congruent left correct Early 57.72025
509 83 LeftSmaller PercCBPrac Prime_6N Target_4N fHGIgFC jkBIJDd Incongruent right correct Normal 156.7275
509 84 LeftSmaller PercCBPrac Prime_4A Target_6A EdLhHAF ELlKHIf Incongruent left error Early 56.66588
509 85 LeftSmaller PercCBPrac Prime_9N Target_6A JgiKIbA dAHlMBb Congruent right error Early 2.99529
509 86 LeftSmaller PercCBPrac Prime_4N Target_1A JhFGKgE KkcahEA Congruent right error Normal 2181.443
509 87 LeftSmaller PercCBPrac Prime_1N Target_6N mjbKhEk kIGeLEJ Incongruent left error Normal 245.6464
509 88 LeftSmaller PercCBPrac Prime_9N Target_9N dhkGcmD MfiDjEK Congruent right error Early 31.97354
509 89 LeftSmaller PercCBPrac Prime_1N Target_4N AhHmgef aDkdgiF Congruent left correct Normal 283.394
509 90 LeftSmaller PercCBPrac Prime_9N Target_6N cAigfBI BifGhJA Congruent left correct Early 58.79454
509 91 LeftSmaller PercCBPrac Prime_4N Target_6A MaeGALl FbMDfhK Incongruent left error Early 91.7853
509 92 LeftSmaller PercCBPrac Prime_1A Target_1N dAjEIkB FhjlKHa Congruent left correct Normal 187.5837
509 93 LeftSmaller PercCBPrac Prime_1A Target_1A gjIAlLC fBmHbdD Congruent right error Normal 158.3783
509 94 LeftSmaller PercCBPrac Prime_1A Target_4N hdjGDlE BbGKEgl Congruent left correct Normal 160.662
509 95 LeftSmaller PercCBPrac Prime_9A Target_6N flFEekM EihBjCH Congruent right error Normal 266.7067
509 96 LeftSmaller PercCBPrac Prime_6N Target_1N kmJDgec DMKlmHc Incongruent left error Normal 114.8677
509 97 LeftSmaller PercCBExp1 Prime_6N Target_9N chlHBGF defABDG Congruent right error Normal 231.2485
509 98 LeftSmaller PercCBExp1 Prime_4N Target_6N aKMEifm GagdAHf Incongruent right correct Normal 151.3098
509 99 LeftSmaller PercCBExp1 Prime_6A Target_4N hEHiICB jLHMAli Incongruent right correct Early 34.07562
509 100 LeftSmaller PercCBExp1 Prime_4N Target_4A CDhmcaF KegcbGM Congruent right error Early 55.66052
509 101 LeftSmaller PercCBExp1 Prime_9N Target_6N ekiaKCL BIkLAGF Congruent left correct Early 3.011561
509 102 LeftSmaller PercCBExp1 Prime_1A Target_6A dkLFehi lDEhBHk Incongruent left error Early 47.38833
509 103 LeftSmaller PercCBExp1 Prime_4N Target_9N djleDka fkmDhMj Incongruent left error Normal 144.0595
509 104 LeftSmaller PercCBExp1 Prime_1A Target_4N dIabBmf dkjELAC Congruent right error Normal 549.7747
509 105 LeftSmaller PercCBExp1 Prime_6N Target_1N DCGiebg EkMHBJe Incongruent left error Normal 157.969
509 106 LeftSmaller PercCBExp1 Prime_9N Target_1N MECkceI DlmhGgk Incongruent right correct Normal 108.5832
509 107 LeftSmaller PercCBExp1 Prime_4A Target_9N HLfEcJC kjDaeJd Incongruent left error Normal 202.2395
509 108 LeftSmaller PercCBExp1 Prime_6N Target_4N jLHGaFb amjiKfl Incongruent right correct Normal 2065.311
509 109 LeftSmaller PercCBExp1 Prime_9N Target_4A iKhMDdH LBfhckM Incongruent right correct Normal 382.3724
509 110 LeftSmaller PercCBExp1 Prime_4A Target_1A mHhJcfF JLIiCmM Congruent left correct Normal 1063.044
509 111 LeftSmaller PercCBExp1 Prime_9N Target_9N DAeHfhC emDclEg Congruent right error Normal 133.973
509 112 LeftSmaller PercCBExp1 Prime_9N Target_4N ElIGbhC jeDcaiJ Incongruent left error Normal 317.3753
509 113 LeftSmaller PercCBExp1 Prime_4A Target_9A AKFjfkC jAFmHlk Incongruent right correct Normal 264.5614
509 114 LeftSmaller PercCBExp1 Prime_4N Target_1N hdiGCLH hmkMEJa Congruent left correct Normal 109.6236
509 115 LeftSmaller PercCBExp1 Prime_4N Target_4N AEglbHL gbjceFi Congruent right error Early 85.19929
509 116 LeftSmaller PercCBExp1 Prime_4A Target_1N cGDIBhK kCAMeKD Congruent left correct Normal 141.3995
509 117 LeftSmaller PercCBExp1 Prime_1N Target_4A JMgLfGk HBkbCeL Congruent right error Early 29.54124
509 118 LeftSmaller PercCBExp1 Prime_1N Target_9A laIAcDJ kLADGiM Incongruent left error Early 2.920873
509 119 LeftSmaller PercCBExp1 Prime_6A Target_6N meHigJf dAiMHef Congruent left correct Normal 505.5807
509 120 LeftSmaller PercCBExp1 Prime_9A Target_9A GafcJFm FKehHDM Congruent right error Normal 114.0412
509 121 LeftSmaller PercCBExp1 Prime_1A Target_6N aCifDBh GjiMeAc Incongruent left error Normal 345.9368
509 122 LeftSmaller PercCBExp1 Prime_1N Target_6N dliIFDk caBAJDG Incongruent right correct Normal 333.2614
509 123 LeftSmaller PercCBExp1 Prime_6A Target_6A aGclbgI gACdaBE Congruent left correct Normal 275.6709
509 124 LeftSmaller PercCBExp1 Prime_1A Target_4A JlILHcF AcgMkiG Congruent left correct Normal 138.9597
509 125 LeftSmaller PercCBExp1 Prime_9N Target_1A iEgabhj GHfhEgF Incongruent right correct Normal 396.1015
509 126 LeftSmaller PercCBExp1 Prime_9A Target_1A MKiLbHf lGfHeaj Incongruent left error Normal 543.7167
509 127 LeftSmaller PercCBExp1 Prime_4N Target_9A hjmLbEf BkmaIGh Incongruent left error Normal 460.1925
509 128 LeftSmaller PercCBExp1 Prime_1A Target_1N MdKFGbi fiDdkHe Congruent right error Normal 441.6255
509 129 LeftSmaller PercCBExp1 Prime_6N Target_6N mLidFbh MJhIDdK Congruent left correct Early 70.2603
509 130 LeftSmaller PercCBExp1 Prime_9N Target_6A ImMlebC dfeMjbE Congruent right error Normal 479.1755
509 131 LeftSmaller PercCBExp1 Prime_1N Target_1N lafELjB IJAjkCH Congruent left correct Normal 374.5671
509 132 LeftSmaller PercCBExp1 Prime_6A Target_1A GgkljAc kiCbKMJ Incongruent right correct Normal 140.2673
509 133 LeftSmaller PercCBExp1 Prime_9A Target_4N ABgaEfi cbBMdJK Incongruent right correct Normal 182.5462
509 134 LeftSmaller PercCBExp1 Prime_6A Target_9N GDgIMLi LJbeKhl Congruent left correct Normal 474.7125
509 135 LeftSmaller PercCBExp1 Prime_4A Target_6A cHimfjb JIBAhfL Incongruent left error Normal 193.6288
509 136 LeftSmaller PercCBExp1 Prime_4A Target_6N cCJDilh HgcfkAB Incongruent right correct Normal 1405.352
509 137 LeftSmaller PercCBExp1 Prime_6A Target_1N akeMiKB FCafIDm Incongruent left error Early 44.99051
509 138 LeftSmaller PercCBExp1 Prime_4N Target_1A MCgEhIB FgmGJIl Congruent right error Normal 908.3785
509 139 LeftSmaller PercCBExp1 Prime_6N Target_6A ibedfIC LfIJDjl Congruent left correct Normal 296.8984
509 140 LeftSmaller PercCBExp1 Prime_1A Target_9A jBMKiEh AEKcCiF Incongruent right correct Normal 175.839
509 141 LeftSmaller PercCBExp1 Prime_4A Target_4N JfFMLHl jdfLhkb Congruent left correct Normal 3211.359
509 142 LeftSmaller PercCBExp1 Prime_1N Target_9N ejaLIMi GkFgBhI Incongruent right correct Normal 281.345
509 143 LeftSmaller PercCBExp1 Prime_9A Target_9N GfhMjba JejlMkF Congruent right error Normal 288.1378
509 144 LeftSmaller PercCBExp1 Prime_9A Target_6N edKEMhA FBcGLhk Congruent right error Normal 524.1556
509 145 LeftSmaller PercCBExp1 Prime_6N Target_9A JMHFfGL CblKIak Congruent left correct Normal 192.8275
509 146 LeftSmaller PercCBExp1 Prime_9A Target_1N hCDeKGF ebaMALl Incongruent left error Normal 374.7513
509 147 LeftSmaller PercCBExp1 Prime_1N Target_4N fFDEmCh JIfKElg Congruent left correct Normal 108.4831
509 148 LeftSmaller PercCBExp1 Prime_1A Target_9N imFaIKG BFkLmCe Incongruent right correct Early 34.10214
509 149 LeftSmaller PercCBExp1 Prime_9A Target_6A fLeIgEJ DhgGjeJ Congruent left correct Normal 215.4787
509 150 LeftSmaller PercCBExp1 Prime_6A Target_9A FafEMGK KkdbhGg Congruent left correct Normal 388.6658
509 151 LeftSmaller PercCBExp1 Prime_6A Target_4A HhfCGIk mklcMja Incongruent left error Normal 212.5716
509 152 LeftSmaller PercCBExp1 Prime_4N Target_6A CMBALkG egCiAEl Incongruent right correct Normal 408.7111
509 153 LeftSmaller PercCBExp1 Prime_6N Target_1A dfJjaDh JMfmIhb Incongruent right correct Normal 433.4351
509 154 LeftSmaller PercCBExp1 Prime_9N Target_9A giHMJIl eDLAfEI Congruent left correct Early 99.42758
509 155 LeftSmaller PercCBExp1 Prime_1A Target_1A dkfbiaA LhEakAI Congruent right error Early 51.18601
509 156 LeftSmaller PercCBExp1 Prime_6N Target_4A GmJDbgd FgmKafL Incongruent left error Normal 4706.196
509 157 LeftSmaller PercCBExp1 Prime_1N Target_1A hldgIeb ajDmkFf Congruent right error Early 39.75977
509 158 LeftSmaller PercCBExp1 Prime_9A Target_4A GMlafhC IKGjdMc Incongruent left error Normal 3643.123
