sub trial_no group_type block_type prime target mask1 mask2 congruency key_press key_error time_error RT
111 1 LeftLarger PercIAPrac Prime_1N Target_9A JkDgLHb dABIifM Incongruent left error Normal 820.4572
111 2 LeftLarger PercIAPrac Prime_4N Target_4A BEFelAg edljFmb Congruent left error Normal 590.256
111 3 LeftLarger PercIAPrac Prime_6N Target_6A idcCEkg AMIechL Congruent left correct Normal 529.283
111 4 LeftLarger PercIAPrac Prime_1N Target_1N kFHJmgd cHjhgld Congruent right correct Normal 725.4477
111 5 LeftLarger PercIAPrac Prime_1N Target_1A CLMaDhl dMjahmE Congruent right correct Normal 914.1342
111 6 LeftLarger PercIAPrac Prime_9N Target_6N mAGgIJb CAKGIkh Congruent left correct Normal 1019.63
111 7 LeftLarger PercIAPrac Prime_1A Target_6A aLBgMlb gcMHhFj Incongruent left error Normal 1211.054
111 8 LeftLarger PercIAPrac Prime_6N Target_1A JLiEFkC fBCEimc Incongruent right error Normal 793.0968
111 9 LeftLarger PercIAPrac Prime_6N Target_4A gBdDfhl CFMDfLJ Incongruent right error Normal 880.7088
111 10 LeftLarger PercIAPrac Prime_4N Target_1A FjIlemB fCMJaIL Congruent left error Normal 968.8929
111 11 LeftLarger PercIAPrac Prime_1A Target_9A EMABIfl fLEidce Incongruent right correct Normal 1180.288
111 12 LeftLarger PercIAPrac Prime_6A Target_4N GiedgJC hFmlEdK Incongruent right error Normal 737.9576
111 13 LeftLarger PercIAPrac Prime_9N Target_4A GlJAdDK FiKIdDc Incongruent right error Normal 713.8896
111 14 LeftLarger PercIAPrac Prime_9A Target_1A JDFBglC cJdfeMK Incongruent left correct Normal 398.0724
111 15 LeftLarger PercIAPrac Prime_1N Target_4N beFlCBA kJcfdab Congruent right correct Normal 774.0976
111 16 LeftLarger PercIAPrac Prime_9A Target_9A BAiLfgh mJDibGH Congruent right error Normal 679.1539
111 17 LeftLarger PercIAExp1 Prime_1A Target_9N mLAckMh iJAEaLI Incongruent right correct Normal 641.608
111 18 LeftLarger PercIAExp1 Prime_4N Target_9N LHaJKmb HCGEahd Incongruent left error Normal 915.7116
111 19 LeftLarger PercIAExp1 Prime_9N Target_1A FajbdIg LejBcFl Incongruent right error Normal 798.0078
111 20 LeftLarger PercIAExp1 Prime_4A Target_1N LGBMfIa DLBMdlc Congruent left error Normal 653.8607
111 21 LeftLarger PercIAExp1 Prime_4N Target_6N AIGKEML jIFAfbM Incongruent left error Normal 770.2134
111 22 LeftLarger PercIAExp1 Prime_1N Target_4A cbEledK gIbiBfD Congruent left error Normal 229.392
111 23 LeftLarger PercIAExp1 Prime_4A Target_9N AbdKJjm eFCILKf Incongruent right correct Normal 269.9431
111 24 LeftLarger PercIAExp1 Prime_9N Target_4N BkcjKif aDkMBbK Incongruent right error Normal 319.1315
111 25 LeftLarger PercIAExp1 Prime_1N Target_9N dDjkcai IFldjga Incongruent left error Normal 301.5389
111 26 LeftLarger PercIAExp1 Prime_1N Target_6N mfGhLDi jcLgBGA Incongruent left error Normal 451.0693
111 27 LeftLarger PercIAExp1 Prime_9A Target_9N JCBFbgj jMdLcgl Congruent right error Normal 312.2205
111 28 LeftLarger PercIAExp1 Prime_1A Target_6N JjELlIm LijdekM Incongruent right correct Normal 470.9684
111 29 LeftLarger PercIAExp1 Prime_6N Target_9N kjBMEmd JEHhClI Congruent left correct Normal 346.9209
111 30 LeftLarger PercIAExp1 Prime_9N Target_4A jbiHCDJ BdmAkJD Incongruent right error Normal 248.4301
111 31 LeftLarger PercIAExp1 Prime_1A Target_6A lBbkeDG AcmDgJh Incongruent left error Normal 248.6891
111 32 LeftLarger PercIAExp1 Prime_6A Target_4A mlGLHib HJifDjM Incongruent left correct Normal 232.033
111 33 LeftLarger PercIAExp1 Prime_1N Target_4N eAcJEif EAefbgD Congruent right correct Normal 207.4607
111 34 LeftLarger PercIAExp1 Prime_9N Target_9A BhKmGLc cKfgkhM Congruent left correct Normal 404.2173
111 35 LeftLarger PercIAExp1 Prime_9N Target_6A GcbFALe bcAkgfa Congruent right error Normal 757.6393
111 36 LeftLarger PercIAExp1 Prime_4A Target_4N IikgjdC Bimbdch Congruent left error Normal 544.4834
111 37 LeftLarger PercIAExp1 Prime_1N Target_1N kiBIeAG bKkfGLF Congruent right correct Normal 406.2193
111 38 LeftLarger PercIAExp1 Prime_1A Target_4A MEGFekB EICbmHe Congruent left error Normal 400.2713
111 39 LeftLarger PercIAExp1 Prime_6A Target_1N GjLHbIa CBclIea Incongruent left correct Normal 376.3182
111 40 LeftLarger PercIAExp1 Prime_9A Target_6A mIMBjki bEmJBDF Congruent left correct Normal 406.4665
111 41 LeftLarger PercIAExp1 Prime_9A Target_4N LBlCDAH JgikEKC Incongruent right error Normal 345.7601
111 42 LeftLarger PercIAExp1 Prime_4A Target_6A DHLkham GHLedEa Incongruent left error Normal 195.168
111 43 LeftLarger PercIAExp1 Prime_6N Target_6N KHgDAlj gjAHKGD Congruent right error Normal 404.69
111 44 LeftLarger PercIAExp1 Prime_6A Target_1A jeFEGLd CALlJMf Incongruent left correct Normal 431.6857
111 45 LeftLarger PercIAExp1 Prime_4N Target_9A gBflKFi ldkbJeC Incongruent right correct Normal 318.8847
111 46 LeftLarger PercIAExp1 Prime_4N Target_6A bFJcMCi ChcAEHJ Incongruent left error Normal 287.0312
111 47 LeftLarger PercIAExp1 Prime_6N Target_4A alkjfcG DCJKEMG Incongruent right error Normal 340.9997
111 48 LeftLarger PercIAExp1 Prime_1A Target_1N DhEIiGK iCHmceM Congruent left error Normal 430.646
111 49 LeftLarger PercIAExp1 Prime_4A Target_1A fkHjbBg eKijCMl Congruent left error Normal 294.0524
111 50 LeftLarger PercIAExp1 Prime_9A Target_1N DbcfJlL MFCjGhd Incongruent left correct Normal 526.2246
111 51 LeftLarger PercIAExp1 Prime_6N Target_4N kFMIdKj aIhldFH Incongruent right error Normal 467.6452
111 52 LeftLarger PercIAExp1 Prime_6N Target_1N CBDfHFI HIlmfLb Incongruent right error Normal 560.8053
111 53 LeftLarger PercIAExp1 Prime_1N Target_1A FlCmBHG fDBAlEb Congruent left error Normal 275.3087
111 54 LeftLarger PercIAExp1 Prime_6A Target_9N KimFgfI fhalGjJ Congruent right error Normal 721.8835
111 55 LeftLarger PercIAExp1 Prime_6A Target_4N bkDCeIK bMfDFEJ Incongruent left correct Normal 362.0828
111 56 LeftLarger PercIAExp1 Prime_9N Target_1N ILAikmc KhLlicI Incongruent right error Normal 378.1106
111 57 LeftLarger PercIAExp1 Prime_4N Target_4A ChMiKaL hgdjAEi Congruent left error Normal 436.9652
111 58 LeftLarger PercIAExp1 Prime_6A Target_6A mDiACJc BacfKil Congruent left correct Normal 416.7904
111 59 LeftLarger PercIAExp1 Prime_4N Target_1N IcgaBjD GDmhaeK Congruent right correct Normal 236.714
111 60 LeftLarger PercIAExp1 Prime_9N Target_9N bIiaJDC JafCbjA Congruent left correct Normal 269.992
111 61 LeftLarger PercIAExp1 Prime_9A Target_4A lDCmBcI LmCEaKI Incongruent right error Normal 300.1609
111 62 LeftLarger PercIAExp1 Prime_4A Target_4A ImJcEKb mLDaBfg Congruent right correct Normal 312.6174
111 63 LeftLarger PercIAExp1 Prime_1N Target_6A bimCJGd JHDCaKm Incongruent left error Normal 310.8206
111 64 LeftLarger PercIAExp1 Prime_6A Target_6N AaCJchf BaELIfA Congruent left correct Normal 320.1562
111 65 LeftLarger PercIAExp1 Prime_6N Target_6A gKaAfeH fIajbKG Congruent left correct Normal 354.7
111 66 LeftLarger PercIAExp1 Prime_1A Target_1A bKJGLfi aCJFIDe Congruent left error Normal 521.9629
111 67 LeftLarger PercIAExp1 Prime_6N Target_1A gLbkADi cgLjhmk Incongruent right error Normal 299.8874
111 68 LeftLarger PercIAExp1 Prime_4A Target_9A AdgamHC AeJICfc Incongruent right correct Normal 267.5296
111 69 LeftLarger PercIAExp1 Prime_4A Target_6N jIMJFKG djBJlfK Incongruent right correct Normal 221.3377
111 70 LeftLarger PercIAExp1 Prime_9A Target_6N GJdDfcb JLKMfHj Congruent right error Normal 457.1041
111 71 LeftLarger PercIAExp1 Prime_4N Target_4N eJHCklF iEMDKCA Congruent left error Normal 270.2769
111 72 LeftLarger PercIAExp1 Prime_6A Target_9A mHdcElG cIfDedF Congruent left correct Normal 238.6923
111 73 LeftLarger PercIAExp1 Prime_1A Target_9A JIcibmA JEFlDKh Incongruent right correct Normal 176.6021
111 74 LeftLarger PercIAExp1 Prime_6N Target_9A HkleBfh hfDabMB Congruent left correct Normal 285.0299
111 75 LeftLarger PercIAExp1 Prime_9N Target_6N LIBJeMH khaFjCd Congruent right error Normal 310.1832
111 76 LeftLarger PercIAExp1 Prime_9A Target_9A bmCGgKf iBeGLjb Congruent left correct Normal 156.6991
111 77 LeftLarger PercIAExp1 Prime_1A Target_4N gKhFmfc dJcbfFM Congruent right correct Normal 109.6318
111 78 LeftLarger PercIAExp1 Prime_1N Target_9A HMFfbAJ jBDACad Incongruent left error Normal 138.0821
111 79 LeftLarger PercIAExp1 Prime_9A Target_1A MEkFhCg gLEjFcA Incongruent right error Early 72.59318
111 80 LeftLarger PercIAExp1 Prime_4N Target_1A IHjCkdK elIaEBJ Congruent left error Normal 122.1261
111 81 LeftSmaller PercIBPrac Prime_9N Target_6N febIGdJ JgGkACB Congruent left error Normal 518.1779
111 82 LeftSmaller PercIBPrac Prime_4A Target_1N GimhEKA mMFEdAK Congruent right error Normal 415.4758
111 83 LeftSmaller PercIBPrac Prime_4N Target_1N HlabEFk cHaIikF Congruent left correct Normal 294.0036
111 84 LeftSmaller PercIBPrac Prime_4N Target_9A IgJCefH kcKfJhG Incongruent left correct Normal 248.9231
111 85 LeftSmaller PercIBPrac Prime_9N Target_9N LiDmbEA cLeHdiB Congruent right correct Normal 202.4826
111 86 LeftSmaller PercIBPrac Prime_9A Target_6N JeFDgiB iMKeafB Congruent left error Normal 181.9979
111 87 LeftSmaller PercIBPrac Prime_9N Target_6A ahfbIEH bJMBafA Congruent right correct Normal 192.6256
111 88 LeftSmaller PercIBPrac Prime_9N Target_9A gKEmkBH CLfiFAk Congruent left error Normal 164.4438
111 89 LeftSmaller PercIBPrac Prime_1N Target_9N FGldhji imkKGMC Incongruent right error Normal 108.5003
111 90 LeftSmaller PercIBPrac Prime_4A Target_6A LEBacki mhcAbBl Incongruent left correct Normal 183.6333
111 91 LeftSmaller PercIBPrac Prime_4N Target_9N bHcJCkh bAeCKEL Incongruent right error Normal 258.1652
111 92 LeftSmaller PercIBPrac Prime_1N Target_6A BleighE BbdiMEA Incongruent right error Normal 337.5849
111 93 LeftSmaller PercIBPrac Prime_9A Target_6A jMfbeai fLakBGJ Congruent left error Normal 168.7589
111 94 LeftSmaller PercIBPrac Prime_6A Target_9N FiGfBIm IeGLFdj Congruent right correct Normal 202.412
111 95 LeftSmaller PercIBPrac Prime_4N Target_4N acDHAdG CcJjkgE Congruent left correct Normal 121.3271
111 96 LeftSmaller PercIBPrac Prime_1A Target_6N FKMCJkg CklLeAc Incongruent left correct Normal 207.4975
111 97 LeftSmaller PercIBExp1 Prime_4N Target_9A GgecmjM IhEAgFk Incongruent left correct Normal 308.5168
111 98 LeftSmaller PercIBExp1 Prime_9A Target_1A FfmeCcj fDaedJL Incongruent right correct Normal 205.9128
111 99 LeftSmaller PercIBExp1 Prime_6N Target_4N DCKEHiL DmAiadh Incongruent left error Normal 278.8265
111 100 LeftSmaller PercIBExp1 Prime_4N Target_4A JGiIclC FIKcimG Congruent left correct Normal 139.6931
111 101 LeftSmaller PercIBExp1 Prime_9N Target_1N IBbcDKh FDCBMLj Incongruent right correct Normal 141.3974
111 102 LeftSmaller PercIBExp1 Prime_1N Target_6A jlCMDai gDlebFd Incongruent left correct Normal 115.7118
111 103 LeftSmaller PercIBExp1 Prime_9A Target_6N kBhEFIH hmfgIGD Congruent right correct Early 89.27327
111 104 LeftSmaller PercIBExp1 Prime_9N Target_4N AEmJCie HghJcmj Incongruent left error Early 91.88176
111 105 LeftSmaller PercIBExp1 Prime_9A Target_6A kKGDcbF jfkgleA Congruent right correct Normal 262.7834
111 106 LeftSmaller PercIBExp1 Prime_1A Target_1A EIcLBAg iIbBGce Congruent right error Normal 224.7018
111 107 LeftSmaller PercIBExp1 Prime_9N Target_9N aCJjgAd KfcIEDe Congruent left error Normal 185.1355
111 108 LeftSmaller PercIBExp1 Prime_6N Target_1N lELbJIc cdIlMDF Incongruent left error Normal 215.8512
111 109 LeftSmaller PercIBExp1 Prime_6A Target_6A cdAhbCG fjGaCbB Congruent right correct Normal 177.8947
111 110 LeftSmaller PercIBExp1 Prime_4A Target_6N fcIjDAk GfejAgM Incongruent left correct Normal 175.487
111 111 LeftSmaller PercIBExp1 Prime_9N Target_1A DkGIacg BdmkLif Incongruent right correct Normal 126.2133
111 112 LeftSmaller PercIBExp1 Prime_6N Target_9N bJGjiBA mGlCedI Congruent left error Normal 195.2258
111 113 LeftSmaller PercIBExp1 Prime_1A Target_9N KIHDEcf akHGejJ Incongruent left correct Normal 216.44
111 114 LeftSmaller PercIBExp1 Prime_1A Target_4A AKgldeD FMAhlfj Congruent right error Normal 274.8089
111 115 LeftSmaller PercIBExp1 Prime_4A Target_1A aLjlMJC DHbgKAJ Congruent left correct Normal 210.8547
111 116 LeftSmaller PercIBExp1 Prime_4N Target_1N hGdgEab iAdDIlC Congruent right error Normal 147.6936
111 117 LeftSmaller PercIBExp1 Prime_1N Target_1A mEMHfal IMgEeck Congruent left correct Early 90.50492
111 118 LeftSmaller PercIBExp1 Prime_9A Target_1N BilDheA FaiKkCB Incongruent right correct Normal 104.7758
111 119 LeftSmaller PercIBExp1 Prime_4A Target_9N aeMbmDL eMDFmdi Incongruent left correct Early 28.26762
111 120 LeftSmaller PercIBExp1 Prime_4A Target_9A cEkeHbK AkcMLHm Incongruent right error Early 43.69787
111 121 LeftSmaller PercIBExp1 Prime_6A Target_4N iKlaGcm KIjdAgB Incongruent left error Early 6.957395
111 122 LeftSmaller PercIBExp1 Prime_9A Target_9N LgAciDE KCkbcdm Congruent right correct Early 51.51031
111 123 LeftSmaller PercIBExp1 Prime_1N Target_4A jKEfAkG IFbGJAf Congruent left correct Early 43.46369
111 124 LeftSmaller PercIBExp1 Prime_1N Target_9A aLeBCdg jgACHkh Incongruent left correct Normal 223.1014
111 125 LeftSmaller PercIBExp1 Prime_6A Target_4A cgldDhf CGgeLdk Incongruent right correct Normal 234.3226
111 126 LeftSmaller PercIBExp1 Prime_1A Target_6A bjLMcCK KCEdDLl Incongruent left correct Normal 123.0432
111 127 LeftSmaller PercIBExp1 Prime_9A Target_4A EMklIjg eaGDifC Incongruent left error Normal 181.3894
111 128 LeftSmaller PercIBExp1 Prime_9A Target_9A jLkBbfa eHgfDJF Congruent right correct Early 90.36144
111 129 LeftSmaller PercIBExp1 Prime_1A Target_9A lkceEIg kCbiLIj Incongruent left correct Early 50.44741
111 130 LeftSmaller PercIBExp1 Prime_6N Target_1A khGcBLb aAgMfeL Incongruent right correct Early 77.90775
111 131 LeftSmaller PercIBExp1 Prime_6N Target_9A FhBlIaM GBDKcka Congruent left error Early 73.02776
111 132 LeftSmaller PercIBExp1 Prime_1A Target_1N ejhBbJM kCJFGKa Congruent left correct Early 70.98751
111 133 LeftSmaller PercIBExp1 Prime_4N Target_6N jcdhgkm AFljeIE Incongruent right error Early 28.46222
111 134 LeftSmaller PercIBExp1 Prime_4A Target_4A emgjFhE aIBbGmE Congruent left correct Early 41.12295
111 135 LeftSmaller PercIBExp1 Prime_1N Target_4N bFIkmAK fgijDLm Congruent right error Early 61.11236
111 136 LeftSmaller PercIBExp1 Prime_1N Target_6N dcJIagA BfjAhal Incongruent left correct Early 55.73712
111 137 LeftSmaller PercIBExp1 Prime_4N Target_9N DdhalHJ kiJgFDB Incongruent right error Early 68.00606
111 138 LeftSmaller PercIBExp1 Prime_6N Target_4A AbJIEKa CGcKgbD Incongruent right correct Normal 165.8251
111 139 LeftSmaller PercIBExp1 Prime_1N Target_9N IKkJjbL HmbLJdA Incongruent right error Early 76.15038
111 140 LeftSmaller PercIBExp1 Prime_4N Target_1A lmDIhKJ HhEgiaC Congruent left correct Early 72.14345
111 141 LeftSmaller PercIBExp1 Prime_4N Target_6A DaIjKmb lBLHahJ Incongruent right error Early 54.50827
111 142 LeftSmaller PercIBExp1 Prime_4A Target_6A KikdBJH keGiBfE Incongruent right error Normal 204.0979
111 143 LeftSmaller PercIBExp1 Prime_1A Target_6N DKdaBkl AdIKHic Incongruent left correct Normal 279.2498
111 144 LeftSmaller PercIBExp1 Prime_6A Target_1N EmHKfkh BFiMfEb Incongruent right correct Normal 125.6829
111 145 LeftSmaller PercIBExp1 Prime_1A Target_4N LgIDeKl jEiKbLh Congruent left correct Early 95.81021
111 146 LeftSmaller PercIBExp1 Prime_4A Target_1N gKjedJm mDaAfGB Congruent right error Early 68.29625
111 147 LeftSmaller PercIBExp1 Prime_6A Target_9A HLEbfBj ADljfgm Congruent right correct Normal 170.6404
111 148 LeftSmaller PercIBExp1 Prime_4A Target_4N hjDkcFl MelaAbk Congruent left correct Early 70.05356
111 149 LeftSmaller PercIBExp1 Prime_9N Target_4A CgEaimh hKCMAFi Incongruent left error Early 89.47176
111 150 LeftSmaller PercIBExp1 Prime_6A Target_6N gBkLidm LbFGAha Congruent right correct Early 35.16643
111 151 LeftSmaller PercIBExp1 Prime_1N Target_1N eKJmBLD hMLBDlk Congruent left correct Early 2.752415
111 152 LeftSmaller PercIBExp1 Prime_9A Target_4N FbHIEGg GjkHFei Incongruent right correct Early 43.74898
111 153 LeftSmaller PercIBExp1 Prime_9N Target_6A DcLKGeJ McDKGig Congruent left error Early 13.05465
111 154 LeftSmaller PercIBExp1 Prime_9N Target_9A lEbgimd kaBfMGd Congruent right correct Early 98.76431
111 155 LeftSmaller PercIBExp1 Prime_6N Target_6A iMIhBAC LjIMGBe Congruent right correct Normal 169.2903
111 156 LeftSmaller PercIBExp1 Prime_6N Target_6N JDhifgb MBbLadj Congruent left error Early 71.95589
111 157 LeftSmaller PercIBExp1 Prime_6A Target_9N cjCmDkd aAdlGiI Congruent right correct Early 72.13489
111 158 LeftSmaller PercIBExp1 Prime_9N Target_6N egGDdIm KmhlDMC Congruent left error Early 84.92351
111 159 LeftSmaller PercIBExp1 Prime_6A Target_1A AgKLheG LciaHAB Incongruent right correct Early 61.16239
111 160 LeftSmaller PercIBExp1 Prime_4N Target_4N lkdKmbe BMlaGkH Congruent left correct Early 3.049896
112 1 LeftSmaller PercIAPrac Prime_4A Target_9N hkdmGLe BJElfdc Incongruent right error Normal 931.5325
112 2 LeftSmaller PercIAPrac Prime_4N Target_1A IFHGmbK afJHdlI Congruent left correct Normal 406.4168
112 3 LeftSmaller PercIAPrac Prime_9N Target_1A kahLEDl ebJcmHC Incongruent right correct Normal 694.96
112 4 LeftSmaller PercIAPrac Prime_6N Target_9A JIDMjCd leadMIF Congruent right correct Normal 763.6426
112 5 LeftSmaller PercIAPrac Prime_1N Target_9N ElmGAjB ehDCdkK Incongruent left correct Normal 697.7917
112 6 LeftSmaller PercIAPrac Prime_1A Target_1A BFCjAca mehIfHD Congruent right error Normal 1119.115
112 7 LeftSmaller PercIAPrac Prime_6A Target_6A hICGHjf IHCJclF Congruent left error Normal 590.7028
112 8 LeftSmaller PercIAPrac Prime_9N Target_9N JbDjKfl BCEbkDh Congruent left error Normal 461.8702
112 9 LeftSmaller PercIAPrac Prime_6A Target_9N LgHaMeE HjeABkM Congruent right correct Normal 490.6128
112 10 LeftSmaller PercIAPrac Prime_6A Target_4A hIiHkbd DBGLkih Incongruent right correct Normal 510.775
112 11 LeftSmaller PercIAPrac Prime_4N Target_6N KMgGiac GhmKbMg Incongruent left correct Normal 607.7936
112 12 LeftSmaller PercIAPrac Prime_9N Target_6A cAJhIGE AJleakm Congruent right correct Normal 1080.395
112 13 LeftSmaller PercIAPrac Prime_9N Target_1N JkaHhLD gfDMkmh Incongruent right correct Normal 780.4355
112 14 LeftSmaller PercIAPrac Prime_9A Target_1A jECBdFG LBGHblD Incongruent left error Normal 548.011
112 15 LeftSmaller PercIAPrac Prime_1N Target_1N CGklecH bfEgCac Congruent right error Normal 776.4343
112 16 LeftSmaller PercIAPrac Prime_1A Target_4N HAIfEgk kfhCJId Congruent right error Normal 615.4726
112 17 LeftSmaller PercIAExp1 Prime_6N Target_9N aBeAGFC GEgIJmh Congruent right correct Normal 627.4123
112 18 LeftSmaller PercIAExp1 Prime_9A Target_6A gibBGhd BGHjfFJ Congruent left error Normal 570.6137
112 19 LeftSmaller PercIAExp1 Prime_1N Target_4N bmfFadG bBLdFEk Congruent right error Normal 615.9239
112 20 LeftSmaller PercIAExp1 Prime_6A Target_1N KCfBiEg gbdcMLJ Incongruent right correct Normal 574.5249
112 21 LeftSmaller PercIAExp1 Prime_9N Target_6N ifDcagH jhfFeiD Congruent left error Normal 569.7993
112 22 LeftSmaller PercIAExp1 Prime_1N Target_6N MhHcamf ClFiKkB Incongruent right error Normal 775.4251
112 23 LeftSmaller PercIAExp1 Prime_9A Target_6N hCDabFL AlgIdCf Congruent right correct Normal 1188.409
112 24 LeftSmaller PercIAExp1 Prime_4N Target_1A ieKfFCI bclmkDJ Congruent left correct Normal 568.431
112 25 LeftSmaller PercIAExp1 Prime_1N Target_1N egmhDGE cKdlMbe Congruent left correct Normal 652.7203
112 26 LeftSmaller PercIAExp1 Prime_9N Target_1N aMmHDIE iLBFcAl Incongruent right correct Normal 811.2523
112 27 LeftSmaller PercIAExp1 Prime_4A Target_9A mAjCKif dKAgbEB Incongruent right error Normal 1004.673
112 28 LeftSmaller PercIAExp1 Prime_6A Target_4N bCFJLHK dlbDHCf Incongruent left error Normal 549.3936
112 29 LeftSmaller PercIAExp1 Prime_1A Target_6N DMjHIag JjieALa Incongruent right error Normal 811.5708
112 30 LeftSmaller PercIAExp1 Prime_1N Target_6A fadHjgM IakgFlM Incongruent left correct Normal 757.9038
112 31 LeftSmaller PercIAExp1 Prime_6N Target_9A eGhaicJ fhdBHJm Congruent right correct Normal 776.2236
112 32 LeftSmaller PercIAExp1 Prime_4N Target_1N mCbiJHa MaIAmCf Congruent right error Normal 933.2592
112 33 LeftSmaller PercIAExp1 Prime_6A Target_9N hEmLGjg aKmeFAH Congruent right correct Normal 733.3238
112 34 LeftSmaller PercIAExp1 Prime_6N Target_4A GAEbcMm BDkMlcC Incongruent right correct Normal 957.137
112 35 LeftSmaller PercIAExp1 Prime_4A Target_1A AJChmek hHalIDC Congruent left correct Normal 896.4345
112 36 LeftSmaller PercIAExp1 Prime_9N Target_4A HhBMAfd EmGLCbl Incongruent right correct Normal 672.6033
112 37 LeftSmaller PercIAExp1 Prime_9N Target_4N kCHdGhB kChdbfi Incongruent right correct Normal 682.7786
112 38 LeftSmaller PercIAExp1 Prime_4N Target_9N KlaDCcb AgjFhBI Incongruent left correct Normal 1166.186
112 39 LeftSmaller PercIAExp1 Prime_9A Target_4A MIGAEHf LleIaKf Incongruent right correct Normal 773.9986
112 40 LeftSmaller PercIAExp1 Prime_4A Target_6N MEealBK filGjBc Incongruent left correct Normal 876.3099
112 41 LeftSmaller PercIAExp1 Prime_1A Target_1A HdJhCmE dmDKciJ Congruent left correct Normal 858.6053
112 42 LeftSmaller PercIAExp1 Prime_6A Target_4A fkGHiEA cgfLHmI Incongruent right correct Normal 830.5018
112 43 LeftSmaller PercIAExp1 Prime_4N Target_6N kgailFI CDHgIaL Incongruent right error Normal 797.0472
112 44 LeftSmaller PercIAExp1 Prime_1A Target_4N aGedhkB lgDFaHE Congruent right error Normal 606.5183
112 45 LeftSmaller PercIAExp1 Prime_9A Target_1N hCiJbEA iGICbDK Incongruent left error Normal 809.2585
112 46 LeftSmaller PercIAExp1 Prime_4N Target_4A iKHDFfk EIceJgk Congruent left correct Normal 803.9262
112 47 LeftSmaller PercIAExp1 Prime_1A Target_9A CgMiKHF ifAlFdm Incongruent right error Normal 593.8732
112 48 LeftSmaller PercIAExp1 Prime_6A Target_1A ECGmeIk ibcemEf Incongruent right correct Normal 702.3917
112 49 LeftSmaller PercIAExp1 Prime_6A Target_9A HEcMIgf MdHEflJ Congruent left error Normal 616.0875
112 50 LeftSmaller PercIAExp1 Prime_9A Target_9A IfALKiE IBJjkaF Congruent left error Normal 987.4818
112 51 LeftSmaller PercIAExp1 Prime_9N Target_6A DedHIiK JLBjIdi Congruent right correct Normal 745.4351
112 52 LeftSmaller PercIAExp1 Prime_4N Target_9A iHFfbBD eLHdMlk Incongruent left correct Normal 538.3571
112 53 LeftSmaller PercIAExp1 Prime_1N Target_9A cKikBCj DigEfhF Incongruent left correct Normal 693.0195
112 54 LeftSmaller PercIAExp1 Prime_4N Target_6A melfgGi bELIMKf Incongruent left correct Normal 613.4935
112 55 LeftSmaller PercIAExp1 Prime_9A Target_1A afJehIE mMHBfKL Incongruent right correct Normal 1071.815
112 56 LeftSmaller PercIAExp1 Prime_9N Target_9A lMBcamJ jgcBHbD Congruent right correct Normal 795.399
112 57 LeftSmaller PercIAExp1 Prime_1A Target_1N dLcbfHJ ECKLGgd Congruent right error Normal 802.3292
112 58 LeftSmaller PercIAExp1 Prime_4A Target_9N LJAMFKe KFGjMdm Incongruent left correct Normal 643.1176
112 59 LeftSmaller PercIAExp1 Prime_6A Target_6N EijchDF hIGlDkd Congruent left error Normal 931.3096
112 60 LeftSmaller PercIAExp1 Prime_6N Target_4N lfBbKAM KdGiIAf Incongruent right correct Normal 778.8319
112 61 LeftSmaller PercIAExp1 Prime_1N Target_4A IDmCbGA FBGhEHI Congruent right error Normal 808.2435
112 62 LeftSmaller PercIAExp1 Prime_4A Target_6A DiMKCde fAGaljC Incongruent right error Normal 907.9128
112 63 LeftSmaller PercIAExp1 Prime_6N Target_1N MiDdaLE AkeiMEb Incongruent left error Normal 584.1622
112 64 LeftSmaller PercIAExp1 Prime_9A Target_9N jcIBalf jMgmILG Congruent left error Normal 857.4564
112 65 LeftSmaller PercIAExp1 Prime_4N Target_4N KgEDGbB abEJCjB Congruent left correct Normal 807.068
112 66 LeftSmaller PercIAExp1 Prime_4A Target_4N MlBICHb gmCdJhM Congruent right error Normal 808.8309
112 67 LeftSmaller PercIAExp1 Prime_1A Target_6A kagGJbe DcEALGj Incongruent right error Normal 769.8073
112 68 LeftSmaller PercIAExp1 Prime_6N Target_6N IefMckA EGicFAB Congruent left error Normal 713.5861
112 69 LeftSmaller PercIAExp1 Prime_4A Target_1N CBAgIde ifECMFD Congruent left correct Normal 628.904
112 70 LeftSmaller PercIAExp1 Prime_1A Target_9N fkgiCLH FgMCdej Incongruent right error Normal 729.5065
112 71 LeftSmaller PercIAExp1 Prime_1N Target_1A fLHJkIF gdKHAiG Congruent right error Normal 791.0812
112 72 LeftSmaller PercIAExp1 Prime_6N Target_1A IHdcJha eHmaDhf Incongruent right correct Normal 852.5036
112 73 LeftSmaller PercIAExp1 Prime_9N Target_1A jCfALJd HkGfLAm Incongruent right correct Normal 859.5735
112 74 LeftSmaller PercIAExp1 Prime_9N Target_9N MfGcgie IlcgDma Congruent left error Normal 1063.107
112 75 LeftSmaller PercIAExp1 Prime_6N Target_6A amJDbge KGjMdIc Congruent left error Normal 744.8938
112 76 LeftSmaller PercIAExp1 Prime_1A Target_4A BCFgAeM ADGBHmM Congruent right error Normal 954.7509
112 77 LeftSmaller PercIAExp1 Prime_6A Target_6A HaigIlh dKlBAbI Congruent right correct Normal 771.6149
112 78 LeftSmaller PercIAExp1 Prime_1N Target_9N dlFbcKM ckhjLaH Incongruent right error Normal 881.8344
112 79 LeftSmaller PercIAExp1 Prime_4A Target_4A BKhEmcJ MIFiKmk Congruent left correct Normal 710.9454
112 80 LeftSmaller PercIAExp1 Prime_9A Target_4N cAFmbDa GgefLBJ Incongruent right correct Normal 567.743
112 81 LeftLarger PercIBPrac Prime_6A Target_9A hKHmFEd cFjJiLC Congruent left correct Normal 1007.87
112 82 LeftLarger PercIBPrac Prime_4N Target_9A hIfEdHF IdCmahK Incongruent left error Normal 888.0707
112 83 LeftLarger PercIBPrac Prime_9N Target_6N eCBLJac LKlhBcm Congruent right error Normal 767.909
112 84 LeftLarger PercIBPrac Prime_9A Target_6A cCeJMAG FmGgLaK Congruent right error Normal 958.0883
112 85 LeftLarger PercIBPrac Prime_9A Target_9N kjeaHGI CDHjAbe Congruent left correct Normal 898.7443
112 86 LeftLarger PercIBPrac Prime_1N Target_9A AhMglLG kMadFGJ Incongruent left error Normal 1210.54
112 87 LeftLarger PercIBPrac Prime_1N Target_6A EhIfbBa cGDKFMh Incongruent left error Normal 1051.613
112 88 LeftLarger PercIBPrac Prime_4N Target_6A kHJeFMl GgIBEHl Incongruent right correct Normal 887.9193
112 89 LeftLarger PercIBPrac Prime_1A Target_6N FadjMiA JgAckDj Incongruent left error Normal 1449.591
112 90 LeftLarger PercIBPrac Prime_4N Target_6N bBjFJLC KCkELBI Incongruent right correct Normal 888.9037
112 91 LeftLarger PercIBPrac Prime_1A Target_9A jLIACki CkMaGlg Incongruent right correct Normal 926.4513
112 92 LeftLarger PercIBPrac Prime_1N Target_6N eGkBjbD eEhGlgF Incongruent right correct Normal 1283.594
112 93 LeftLarger PercIBPrac Prime_6A Target_1A GlcjAiK hDFAfag Incongruent left correct Normal 958.0305
112 94 LeftLarger PercIBPrac Prime_6A Target_4A KHDdgaJ cKHjGIB Incongruent left correct Normal 1132.2
112 95 LeftLarger PercIBPrac Prime_1A Target_4N mdLCAGc HbAKfgL Congruent left error Normal 1170.72
112 96 LeftLarger PercIBPrac Prime_9A Target_9A EjIDHBc hJBjamA Congruent right error Normal 985.8006
112 97 LeftLarger PercIBExp1 Prime_9N Target_4A fgCkMbL KHhBGFL Incongruent left correct Normal 1238.28
112 98 LeftLarger PercIBExp1 Prime_1A Target_9N DkifhEG eiMbBkE Incongruent right correct Normal 874.06
112 99 LeftLarger PercIBExp1 Prime_6N Target_6A IiMALmj jGaBLlM Congruent right error Normal 848.7492
112 100 LeftLarger PercIBExp1 Prime_6N Target_9A aKLDgkG dADMChk Congruent left correct Normal 1304.655
112 101 LeftLarger PercIBExp1 Prime_6N Target_6N KIijHbM ghkleEG Congruent right error Normal 987.3479
112 102 LeftLarger PercIBExp1 Prime_6A Target_4N GecCmMK dFbeDgc Incongruent left correct Normal 1075.715
112 103 LeftLarger PercIBExp1 Prime_6N Target_9N BGCkIJL HMmIJhk Congruent left correct Normal 1553.453
112 104 LeftLarger PercIBExp1 Prime_9A Target_9A KmIacDM ILGgEfH Congruent right error Normal 742.3259
112 105 LeftLarger PercIBExp1 Prime_4N Target_1A LDBIemj aegblEj Congruent right correct Normal 1041.923
112 106 LeftLarger PercIBExp1 Prime_6A Target_9N GHajIfB hjBbKkE Congruent left correct Normal 997.984
112 107 LeftLarger PercIBExp1 Prime_9A Target_9N cHlbhEC GkgKfcJ Congruent right error Normal 1213.403
112 108 LeftLarger PercIBExp1 Prime_1A Target_6N EcgJkjF BfFEIlM Incongruent right correct Normal 1153.722
112 109 LeftLarger PercIBExp1 Prime_9A Target_4N HbdhkMJ HKIGdJf Incongruent left correct Normal 1017.76
112 110 LeftLarger PercIBExp1 Prime_9A Target_6A DKafCBE amhbMjA Congruent left correct Normal 771.9077
112 111 LeftLarger PercIBExp1 Prime_9N Target_6N mCJiKEd HkflJgL Congruent right error Normal 914.6859
112 112 LeftLarger PercIBExp1 Prime_1N Target_9N iGfKIaj dHbfhIK Incongruent right correct Normal 1094.654
112 113 LeftLarger PercIBExp1 Prime_6N Target_1A eiMCdcA CFaeDdJ Incongruent left correct Normal 1482.315
112 114 LeftLarger PercIBExp1 Prime_4A Target_6A EKFLCeA gKmIBLj Incongruent left error Normal 988.263
112 115 LeftLarger PercIBExp1 Prime_4N Target_9A eCdicAB ieHgmIj Incongruent right correct Normal 875.0676
112 116 LeftLarger PercIBExp1 Prime_4A Target_4A KJcEkhL CfMGLiJ Congruent left error Normal 951.4796
112 117 LeftLarger PercIBExp1 Prime_6A Target_1N bmHdBel AIBLFdc Incongruent left correct Normal 1460.304
112 118 LeftLarger PercIBExp1 Prime_9N Target_6A kEmMGLI dAaCHei Congruent left correct Normal 1279.298
112 119 LeftLarger PercIBExp1 Prime_4N Target_1N BbckJDa dmFCabI Congruent right correct Normal 661.9086
112 120 LeftLarger PercIBExp1 Prime_1A Target_6A BJGLeaD HAecbEi Incongruent right correct Normal 758.0651
112 121 LeftLarger PercIBExp1 Prime_6N Target_4A LHeihfa hbDJKae Incongruent left correct Normal 990.3707
112 122 LeftLarger PercIBExp1 Prime_6N Target_1N bBMCFKe LhejECb Incongruent left correct Normal 1032.539
112 123 LeftLarger PercIBExp1 Prime_1A Target_1N CDGkhJj dBEIcJC Congruent right correct Normal 698.4604
112 124 LeftLarger PercIBExp1 Prime_1N Target_4A BAIadil EMIKLJe Congruent left error Normal 993.0147
112 125 LeftLarger PercIBExp1 Prime_1A Target_4A lkcCIEg mKLafjc Congruent left error Normal 741.6749
112 126 LeftLarger PercIBExp1 Prime_1N Target_1N giFJeaL jIJDdFh Congruent right correct Normal 902.344
112 127 LeftLarger PercIBExp1 Prime_9N Target_1N aBGAbfl LKjMhme Incongruent left correct Normal 717.8454
112 128 LeftLarger PercIBExp1 Prime_4A Target_9A gMFCJBH IGLbMlj Incongruent left error Normal 877.0285
112 129 LeftLarger PercIBExp1 Prime_1N Target_6N DJEMClG ImeHJBg Incongruent right correct Normal 507.5061
112 130 LeftLarger PercIBExp1 Prime_9N Target_4N fLCbHAD mLeiJMB Incongruent right error Normal 919.8048
112 131 LeftLarger PercIBExp1 Prime_9A Target_4A KHFABED LfgABHi Incongruent left correct Normal 625.7822
112 132 LeftLarger PercIBExp1 Prime_4A Target_6N iFeJfjH dcBGaAf Incongruent right correct Normal 866.4963
112 133 LeftLarger PercIBExp1 Prime_1N Target_9A lgmdFKB mdLAfcM Incongruent right correct Normal 758.5574
112 134 LeftLarger PercIBExp1 Prime_1N Target_6A flCeIaH fiheJcH Incongruent left error Normal 1287.585
112 135 LeftLarger PercIBExp1 Prime_4N Target_4A glbkGKC MgkFafd Congruent right correct Normal 1813.608
112 136 LeftLarger PercIBExp1 Prime_6A Target_6A cCkeKbJ hjKfCDM Congruent left correct Normal 1053.222
112 137 LeftLarger PercIBExp1 Prime_4N Target_4N LGheIEg cHAabhF Congruent right correct Normal 1411.956
112 138 LeftLarger PercIBExp1 Prime_9N Target_9N HLbkgId KkGLmFj Congruent left correct Normal 1721.679
112 139 LeftLarger PercIBExp1 Prime_1A Target_9A JFfjmeg KaDAMld Incongruent left error Normal 1999.113
112 140 LeftLarger PercIBExp1 Prime_4N Target_6N AKdkIBg KDfkMbA Incongruent right correct Normal 1624.318
112 141 LeftLarger PercIBExp1 Prime_9A Target_6N eaFdMlH MkbAiFj Congruent left correct Normal 1999.534
112 142 LeftLarger PercIBExp1 Prime_6A Target_1A MLDEmla GeLbFEI Incongruent right error Normal 2183.414
112 143 LeftLarger PercIBExp1 Prime_1A Target_4N dFkGCiA KchBHEM Congruent left error Normal 1309.509
112 144 LeftLarger PercIBExp1 Prime_6A Target_6N fHlckLe LhaDkbJ Congruent right error Normal 1779.934
112 145 LeftLarger PercIBExp1 Prime_6N Target_4N aMAedfC HgmebhJ Incongruent right error Normal 1484.631
112 146 LeftLarger PercIBExp1 Prime_6A Target_9A eLlgfIi mDlKLhA Congruent left correct Normal 1290.575
112 147 LeftLarger PercIBExp1 Prime_4A Target_1A JmFhegj ibCJLaK Congruent left error Normal 1143.759
112 148 LeftLarger PercIBExp1 Prime_6A Target_4A FGAKdfi cJIMdBE Incongruent left correct Normal 2351.042
112 149 LeftLarger PercIBExp1 Prime_9N Target_1A lBEHikD bdMGjHc Incongruent right error Normal 879.3874
112 150 LeftLarger PercIBExp1 Prime_1N Target_4N kKJLgam cAKhDia Congruent right correct Normal 1293.818
112 151 LeftLarger PercIBExp1 Prime_4N Target_6A JDiFIGL mBihkbH Incongruent left error Normal 995.2502
112 152 LeftLarger PercIBExp1 Prime_4A Target_9N AKaLMEJ bEkejDM Incongruent right correct Normal 1583.361
112 153 LeftLarger PercIBExp1 Prime_1N Target_1A GIdlBbm KMDgdAa Congruent left error Normal 1130.587
112 154 LeftLarger PercIBExp1 Prime_4A Target_4N hgdKFEi gmBKICe Congruent left error Normal 1374.77
112 155 LeftLarger PercIBExp1 Prime_9N Target_9A gkAicEd kLHcgAm Congruent right error Normal 1665.536
112 156 LeftLarger PercIBExp1 Prime_4N Target_9N KdlBCeM ihFCljI Incongruent left error Normal 1667.999
112 157 LeftLarger PercIBExp1 Prime_9A Target_1A jlICdif MBGDLHd Incongruent right error Normal 1127.196
112 158 LeftLarger PercIBExp1 Prime_1A Target_1A emgDiGa dmEckJj Congruent right correct Normal 1280.114
112 159 LeftLarger PercIBExp1 Prime_4A Target_1N LCkjdDe LDBkcFi Congruent left error Normal 873.0513
112 160 LeftLarger PercIBExp1 Prime_9A Target_1N DMiAEfh acFMheL Incongruent right error Normal 1194.461
113 1 LeftSmaller PercIAPrac Prime_6N Target_4A idfmkML GhmAcfE Incongruent left error Normal 864.5039
113 2 LeftSmaller PercIAPrac Prime_9N Target_4N ilIkJcH mjGhfaJ Incongruent left error Normal 1631.405
113 3 LeftSmaller PercIAPrac Prime_1A Target_4N jFDbdag JlKEFCM Congruent right error Normal 1272.368
113 4 LeftSmaller PercIAPrac Prime_1N Target_6A jhBDdaL CFAjEKl Incongruent left correct Normal 753.7894
113 5 LeftSmaller PercIAPrac Prime_9A Target_1A hJBcDCF aeAhgMG Incongruent right correct Normal 1577.311
113 6 LeftSmaller PercIAPrac Prime_1A Target_9N ElKCLgM eBDEHal Incongruent left correct Normal 2354.624
113 7 LeftSmaller PercIAPrac Prime_1A Target_9A jcakeDE diFJjkA Incongruent left correct Normal 1573.535
113 8 LeftSmaller PercIAPrac Prime_9A Target_4N mbcleah cGmDieI Incongruent left error Normal 1911.419
113 9 LeftSmaller PercIAPrac Prime_4N Target_4A AhamMGF chakdLK Congruent right error Normal 1430.714
113 10 LeftSmaller PercIAPrac Prime_4A Target_9N jmBMlDk KEiDdMB Incongruent left correct Normal 1804.761
113 11 LeftSmaller PercIAPrac Prime_6N Target_1A BcajhDd GBFKhLk Incongruent left error Normal 1669.081
113 12 LeftSmaller PercIAPrac Prime_9A Target_1N mfijJCL JGlMdgH Incongruent right correct Normal 812.8918
113 13 LeftSmaller PercIAPrac Prime_4A Target_1N kLlMHdi lfacKme Congruent left correct Normal 1234.073
113 14 LeftSmaller PercIAPrac Prime_4A Target_6A kFAhIDe eMmajAH Incongruent right error Normal 1051.762
113 15 LeftSmaller PercIAPrac Prime_9A Target_6A EIbjaei kgdChfF Congruent right correct Normal 1085.522
113 16 LeftSmaller PercIAPrac Prime_6A Target_6A EFfHmlc DaheJBf Congruent right correct Normal 1219.84
113 17 LeftSmaller PercIAExp1 Prime_9A Target_9N gLDJeId beagcmC Congruent left error Normal 774.723
113 18 LeftSmaller PercIAExp1 Prime_1A Target_6A IjmHfCA DhbCaMG Incongruent right error Normal 953.8851
113 19 LeftSmaller PercIAExp1 Prime_4A Target_4A ijMbfCh AKHCEkj Congruent left correct Normal 631.1802
113 20 LeftSmaller PercIAExp1 Prime_1N Target_4A EiIAckl CKdeAic Congruent right error Normal 807.8544
113 21 LeftSmaller PercIAExp1 Prime_1A Target_4N JdEegaF bGKBcmh Congruent right error Normal 1098.901
113 22 LeftSmaller PercIAExp1 Prime_9A Target_1N KGgMHmL ifbkHeG Incongruent right correct Normal 1147.667
113 23 LeftSmaller PercIAExp1 Prime_9A Target_4A eBabMiG jbFhigl Incongruent left error Normal 1243.949
113 24 LeftSmaller PercIAExp1 Prime_6N Target_4N BiAblEh IFbackh Incongruent right correct Normal 1234.039
113 25 LeftSmaller PercIAExp1 Prime_6A Target_9N hdeHLMG gfiFEJa Congruent left error Normal 1633.421
113 26 LeftSmaller PercIAExp1 Prime_4N Target_4N gGABHKk AGlmfCL Congruent right error Normal 996.9161
113 27 LeftSmaller PercIAExp1 Prime_6A Target_1N fHlGhKe fhAKbdg Incongruent left error Normal 1838.211
113 28 LeftSmaller PercIAExp1 Prime_4N Target_4A Mgcbhml AkGhfaL Congruent right error Normal 1267.129
113 29 LeftSmaller PercIAExp1 Prime_9N Target_9A cFeajCE caGMdBK Congruent left error Normal 1234.714
113 30 LeftSmaller PercIAExp1 Prime_9A Target_6N CEHciJh fFGiEgB Congruent right correct Normal 1943.264
113 31 LeftSmaller PercIAExp1 Prime_4A Target_6N dbBmgeE agHAFcB Incongruent right error Normal 1582.657
113 32 LeftSmaller PercIAExp1 Prime_1N Target_9A CFaJkIK LMkbjfD Incongruent right error Normal 1058.145
113 33 LeftSmaller PercIAExp1 Prime_1N Target_6N JHKIMbE aeEcJgI Incongruent left correct Normal 914.8162
113 34 LeftSmaller PercIAExp1 Prime_6N Target_9N MLAJjka DHJMLjk Congruent right correct Normal 1268.101
113 35 LeftSmaller PercIAExp1 Prime_4N Target_1A aIMiHhE cBKFjJg Congruent left correct Normal 1588.409
113 36 LeftSmaller PercIAExp1 Prime_1N Target_9N eijlcgL jDkAIBF Incongruent left correct Normal 1179.947
113 37 LeftSmaller PercIAExp1 Prime_6N Target_1N fGIKabd icbMKHd Incongruent right correct Normal 1056.397
113 38 LeftSmaller PercIAExp1 Prime_6N Target_9A JEbCFaI CBhieDk Congruent right correct Normal 1306.553
113 39 LeftSmaller PercIAExp1 Prime_6N Target_6A hgEiaHB AMlJfDe Congruent left error Normal 1248.434
113 40 LeftSmaller PercIAExp1 Prime_9N Target_6N DAmHaFL FLcikgM Congruent left error Normal 1683.563
113 41 LeftSmaller PercIAExp1 Prime_4A Target_9A Falbkgd kiBagCd Incongruent right error Normal 1182.088
113 42 LeftSmaller PercIAExp1 Prime_9N Target_1A CFKaJeA GLMehIf Incongruent right correct Normal 1362.918
113 43 LeftSmaller PercIAExp1 Prime_4N Target_6N fedJhIM JeGbEFA Incongruent right error Normal 1109.108
113 44 LeftSmaller PercIAExp1 Prime_1N Target_1A bcMLdgB gEHeiBD Congruent left correct Normal 1595.758
113 45 LeftSmaller PercIAExp1 Prime_1N Target_4N eHJAdFk IaiejCL Congruent right error Normal 1117.609
113 46 LeftSmaller PercIAExp1 Prime_9N Target_9N JhelKfB iBHdFMK Congruent right correct Normal 927.5407
113 47 LeftSmaller PercIAExp1 Prime_6A Target_6N AKICBcd dEaACfb Congruent right correct Normal 1497.306
113 48 LeftSmaller PercIAExp1 Prime_1A Target_6N lDLaEbM KMIGhEg Incongruent left correct Normal 920.2702
113 49 LeftSmaller PercIAExp1 Prime_6N Target_6N kaGfedE DjbKeIB Congruent right correct Normal 1282.754
113 50 LeftSmaller PercIAExp1 Prime_1N Target_6A MGkcFCD bBMhiEl Incongruent left correct Normal 847.6366
113 51 LeftSmaller PercIAExp1 Prime_6N Target_4A Ilfmhkj khBdMHe Incongruent left error Normal 674.1532
113 52 LeftSmaller PercIAExp1 Prime_1A Target_9A MhBbiaj idMkjLA Incongruent right error Normal 896.5818
113 53 LeftSmaller PercIAExp1 Prime_1A Target_4A kDBMIjg hGgMfHj Congruent right error Normal 1336.115
113 54 LeftSmaller PercIAExp1 Prime_9A Target_1A fhKkeCM EgLFkDC Incongruent left error Normal 1435.55
113 55 LeftSmaller PercIAExp1 Prime_9N Target_4N BefDjiG HMbLimd Incongruent right correct Normal 1373.728
113 56 LeftSmaller PercIAExp1 Prime_6N Target_1A kclmJaD EgeHCDa Incongruent left error Normal 836.7859
113 57 LeftSmaller PercIAExp1 Prime_9A Target_6A AedMEgf BiMKagf Congruent right correct Normal 1072.574
113 58 LeftSmaller PercIAExp1 Prime_9A Target_9A HMClmhL dBjCEKg Congruent left error Normal 1389.839
113 59 LeftSmaller PercIAExp1 Prime_4N Target_6A FgdjKac JlbHBdm Incongruent right error Normal 1361.314
113 60 LeftSmaller PercIAExp1 Prime_4A Target_1A JBLdkcb BIlfLaH Congruent left correct Normal 1304.626
113 61 LeftSmaller PercIAExp1 Prime_6A Target_4N HjLciDb agJMiAD Incongruent right correct Normal 960.8056
113 62 LeftSmaller PercIAExp1 Prime_4A Target_6A cfihkDm BHGAlmI Incongruent right error Normal 1706.67
113 63 LeftSmaller PercIAExp1 Prime_6A Target_9A MblBdHI GhDcfCm Congruent left error Normal 1133.042
113 64 LeftSmaller PercIAExp1 Prime_1A Target_1N gGacLCj gkaJFHK Congruent right error Normal 1153.338
113 65 LeftSmaller PercIAExp1 Prime_9N Target_6A icgCJbA MEFeLHl Congruent left error Normal 1065.643
113 66 LeftSmaller PercIAExp1 Prime_1N Target_1N kcHeAfh aEfFLdg Congruent right error Normal 1394.698
113 67 LeftSmaller PercIAExp1 Prime_1A Target_9N dbamLiA FgdELBf Incongruent left correct Normal 940.3925
113 68 LeftSmaller PercIAExp1 Prime_1A Target_1A FDeEijh FbBMjEA Congruent left correct Normal 1245.047
113 69 LeftSmaller PercIAExp1 Prime_9A Target_4N AfhDeBc GlLaHcI Incongruent right correct Normal 988.8797
113 70 LeftSmaller PercIAExp1 Prime_6A Target_4A dfGcEKF cDdfbaH Incongruent right correct Normal 1524.025
113 71 LeftSmaller PercIAExp1 Prime_9N Target_4A aKcghjD jfMJHag Incongruent left error Normal 708.7209
113 72 LeftSmaller PercIAExp1 Prime_4A Target_1N igLJjbH CijIfba Congruent right error Normal 866.2642
113 73 LeftSmaller PercIAExp1 Prime_4N Target_9A HIeFaJc GmhbkIH Incongruent right error Normal 1789.562
113 74 LeftSmaller PercIAExp1 Prime_4A Target_9N ibeaDAl cJDBkfb Incongruent left correct Normal 781.0972
113 75 LeftSmaller PercIAExp1 Prime_9N Target_1N FjfeIgK kdgKDEC Incongruent right correct Normal 1091.799
113 76 LeftSmaller PercIAExp1 Prime_6A Target_1A fmKHeiD gCihAGH Incongruent right correct Normal 1188.853
113 77 LeftSmaller PercIAExp1 Prime_4N Target_9N EacIDKg aBMAihF Incongruent right error Normal 1274.747
113 78 LeftSmaller PercIAExp1 Prime_4A Target_4N LAcgJil BChKgiF Congruent left correct Normal 1281.202
113 79 LeftSmaller PercIAExp1 Prime_4N Target_1N lhKcFID FICkame Congruent right error Normal 1428.236
113 80 LeftSmaller PercIAExp1 Prime_6A Target_6A hAgHEFD EFbiAKd Congruent left error Normal 1114.549
113 81 LeftLarger PercIBPrac Prime_4A Target_9N ejEHKGd LAaCIGe Incongruent right correct Normal 1516.577
113 82 LeftLarger PercIBPrac Prime_1N Target_9N hAbMmLD mhekGLd Incongruent right correct Normal 970.5931
113 83 LeftLarger PercIBPrac Prime_6N Target_6A FakeKAf ADjlfcJ Congruent right error Normal 831.3338
113 84 LeftLarger PercIBPrac Prime_6A Target_1A LBdHKGI eIFMjag Incongruent left correct Normal 983.9843
113 85 LeftLarger PercIBPrac Prime_1A Target_9A DLeFdIc liAKagD Incongruent right correct Normal 1016.439
113 86 LeftLarger PercIBPrac Prime_4N Target_4A fFCIDEl eicbldB Congruent right correct Normal 2108.402
113 87 LeftLarger PercIBPrac Prime_6N Target_4N DHGiCcE IieJFLB Incongruent right error Normal 839.1733
113 88 LeftLarger PercIBPrac Prime_1N Target_4A jAFahmD FjIMkLf Congruent right correct Normal 1920.593
113 89 LeftLarger PercIBPrac Prime_9A Target_1N JjgBCFm HiLfCgM Incongruent left correct Normal 1622.979
113 90 LeftLarger PercIBPrac Prime_4A Target_4A KDkgFeH MLCdFHI Congruent right correct Normal 1322.83
113 91 LeftLarger PercIBPrac Prime_6A Target_9N BLkDciK dIFDljf Congruent left correct Normal 1863.185
113 92 LeftLarger PercIBPrac Prime_9N Target_6A JfIaBlF gbBLfCk Congruent left correct Normal 1738.355
113 93 LeftLarger PercIBPrac Prime_4N Target_6N MCLHKfJ jFefdcJ Incongruent right correct Normal 1033.406
113 94 LeftLarger PercIBPrac Prime_9A Target_6A IicCLDe CAdKeJi Congruent right error Normal 1671.697
113 95 LeftLarger PercIBPrac Prime_4N Target_4N hHABEim fDHMGKi Congruent left error Normal 680.2514
113 96 LeftLarger PercIBPrac Prime_6N Target_1N FAdJiBg GLlhmkC Incongruent left correct Normal 1685.918
113 97 LeftLarger PercIBExp1 Prime_9A Target_9A ceihAdD acKkgAd Congruent left correct Normal 720.9793
113 98 LeftLarger PercIBExp1 Prime_9A Target_4N FflIkLa MHihjGA Incongruent left correct Normal 919.826
113 99 LeftLarger PercIBExp1 Prime_9A Target_1N hcgldMG KjamLfM Incongruent right error Normal 677.7021
113 100 LeftLarger PercIBExp1 Prime_4N Target_4N BGjlgdC fEdAHkB Congruent left error Normal 630.5193
113 101 LeftLarger PercIBExp1 Prime_4N Target_9A ilKGEHf BbGaijF Incongruent left error Normal 1026.568
113 102 LeftLarger PercIBExp1 Prime_1A Target_6A HCfeiBl ELkjgMI Incongruent left error Normal 958.9845
113 103 LeftLarger PercIBExp1 Prime_1A Target_9A iJBFHbl igHAkKI Incongruent right correct Normal 997.0348
113 104 LeftLarger PercIBExp1 Prime_6A Target_9N LgiKfcj hlfImHK Congruent right error Normal 1618.543
113 105 LeftLarger PercIBExp1 Prime_6N Target_9A jHbhlGk IcBCDAl Congruent left correct Normal 461.2654
113 106 LeftLarger PercIBExp1 Prime_6A Target_1A cfbEAJi FjBHACi Incongruent left correct Normal 1173.691
113 107 LeftLarger PercIBExp1 Prime_6N Target_1N gHBFelE EAIdMKk Incongruent left correct Normal 860.1402
113 108 LeftLarger PercIBExp1 Prime_6A Target_4N DCgKfGh BAbhDck Incongruent right error Normal 697.1609
113 109 LeftLarger PercIBExp1 Prime_9A Target_6A eBHKEFf kfcmeKM Congruent right error Normal 1592.092
113 110 LeftLarger PercIBExp1 Prime_6N Target_4N flaCGbA dHMGehg Incongruent left correct Normal 1153.929
113 111 LeftLarger PercIBExp1 Prime_1A Target_9N hIAdlMB jkfKLmD Incongruent left error Normal 960.3115
113 112 LeftLarger PercIBExp1 Prime_1A Target_4N DGfIjMg JFCIcAb Congruent left error Normal 972.985
113 113 LeftLarger PercIBExp1 Prime_6N Target_9N JiBMmlg KLiBJAd Congruent right error Normal 928.5125
113 114 LeftLarger PercIBExp1 Prime_6N Target_6N FDiIeMB FehLmBf Congruent left correct Normal 908.817
113 115 LeftLarger PercIBExp1 Prime_9N Target_6A kHKJjcD EGLbIFB Congruent left correct Normal 1785.501
113 116 LeftLarger PercIBExp1 Prime_9A Target_4A JGjIAFf djAJbLg Incongruent right error Normal 1120.711
113 117 LeftLarger PercIBExp1 Prime_4N Target_6N EGemkhF BCALHiD Incongruent left error Normal 1266.766
113 118 LeftLarger PercIBExp1 Prime_6A Target_1N gcJMIad bHBMagJ Incongruent right error Normal 1098.181
113 119 LeftLarger PercIBExp1 Prime_9N Target_1A hglGKji JBhakHe Incongruent left correct Normal 1038.748
113 120 LeftLarger PercIBExp1 Prime_1N Target_1N gFeEAak LJEGcKm Congruent left error Normal 1165.15
113 121 LeftLarger PercIBExp1 Prime_1N Target_4N jGBcild gbdhaif Congruent left error Normal 1012.298
113 122 LeftLarger PercIBExp1 Prime_4A Target_1N dFjkaDe aCmLFfb Congruent right correct Normal 911.8943
113 123 LeftLarger PercIBExp1 Prime_6N Target_6A AfGBKbj giJeCaL Congruent right error Normal 786.4358
113 124 LeftLarger PercIBExp1 Prime_1A Target_4A LlAhCcD DlAEBId Congruent left error Normal 437.1071
113 125 LeftLarger PercIBExp1 Prime_1N Target_4A JkCihHc lMiJgIh Congruent left error Normal 1090
113 126 LeftLarger PercIBExp1 Prime_4N Target_1A BeiKJbj bAaJkFI Congruent left error Normal 1532.449
113 127 LeftLarger PercIBExp1 Prime_4A Target_6A dMBefhK JibAKkc Incongruent right correct Normal 1074.879
113 128 LeftLarger PercIBExp1 Prime_6N Target_1A EIeBdfM kbEBCFd Incongruent left correct Normal 1002.206
113 129 LeftLarger PercIBExp1 Prime_9N Target_9N KLFlgfD mcHKlFJ Congruent left correct Normal 1584.474
113 130 LeftLarger PercIBExp1 Prime_6A Target_6N ejFGDhi CDHbBEK Congruent left correct Normal 1120.282
113 131 LeftLarger PercIBExp1 Prime_4N Target_1N DAFKBbG hKcgGmd Congruent right correct Normal 387.3236
113 132 LeftLarger PercIBExp1 Prime_1N Target_9A HBhCFLf kFMgBld Incongruent right correct Normal 514.9043
113 133 LeftLarger PercIBExp1 Prime_1A Target_1N DGjmBke HJdkMmK Congruent right correct Normal 909.3055
113 134 LeftLarger PercIBExp1 Prime_4A Target_4N bDAlaEc bLeHkKh Congruent right correct Normal 653.3663
113 135 LeftLarger PercIBExp1 Prime_1A Target_6N GldIaEL BicHELg Incongruent left error Normal 967.7613
113 136 LeftLarger PercIBExp1 Prime_6A Target_6A eBMFLbD klcBFCm Congruent left correct Normal 580.5745
113 137 LeftLarger PercIBExp1 Prime_1A Target_1A djHKgBC GgLfhmD Congruent left error Normal 826.3362
113 138 LeftLarger PercIBExp1 Prime_9A Target_6N eFjCAbc lmdEcDh Congruent right error Normal 882.6279
113 139 LeftLarger PercIBExp1 Prime_4A Target_9A bIdhiGL EKFeLmI Incongruent right correct Normal 784.9547
113 140 LeftLarger PercIBExp1 Prime_6N Target_4A IJhHjAE dLfDKIB Incongruent right error Normal 777.0409
113 141 LeftLarger PercIBExp1 Prime_4N Target_6A AICflDc bimLcCM Incongruent left error Normal 1068.807
113 142 LeftLarger PercIBExp1 Prime_4N Target_9N ljBKGIM idBIHhm Incongruent right correct Normal 940.0923
113 143 LeftLarger PercIBExp1 Prime_4A Target_9N bBjHICg kfGdjah Incongruent left error Normal 1319.397
113 144 LeftLarger PercIBExp1 Prime_6A Target_9A DfGkKcj mJdeFlL Congruent left correct Normal 1893.779
113 145 LeftLarger PercIBExp1 Prime_9A Target_1A MFLeKJI bIjkAEh Incongruent right error Normal 1240.102
113 146 LeftLarger PercIBExp1 Prime_9N Target_4N EHCahjk AICcgeM Incongruent right error Normal 1405.81
113 147 LeftLarger PercIBExp1 Prime_4A Target_1A MhGEgBd LgdaGDb Congruent left error Normal 1529.608
113 148 LeftLarger PercIBExp1 Prime_6A Target_4A kCJbdMG MJlHmdj Incongruent right error Normal 672.0652
113 149 LeftLarger PercIBExp1 Prime_4A Target_6N dgIhjaG lAGmhIk Incongruent left error Normal 936.1135
113 150 LeftLarger PercIBExp1 Prime_1N Target_9N BhdbFfI GfdmJjb Incongruent left error Normal 1095.521
113 151 LeftLarger PercIBExp1 Prime_4A Target_4A mhgljId DeFdbfK Congruent right correct Normal 1271.461
113 152 LeftLarger PercIBExp1 Prime_9N Target_4A flcLbiE kFBHKcm Incongruent right error Normal 1112.321
113 153 LeftLarger PercIBExp1 Prime_9N Target_9A HEBmafg GaMmkij Congruent left correct Normal 941.3057
113 154 LeftLarger PercIBExp1 Prime_1N Target_6N DacfbLl DbchklE Incongruent left error Normal 1313.608
113 155 LeftLarger PercIBExp1 Prime_9N Target_1N FaKCBjJ FmcaDAH Incongruent left correct Normal 992.2887
113 156 LeftLarger PercIBExp1 Prime_4N Target_4A HAdFfIi fiHCcem Congruent left error Normal 1158.211
113 157 LeftLarger PercIBExp1 Prime_9A Target_9N IlBFHEM FjJGMlh Congruent right error Normal 946.3851
113 158 LeftLarger PercIBExp1 Prime_9N Target_6N blkFjIM JgAjbIK Congruent right error Normal 1631.001
113 159 LeftLarger PercIBExp1 Prime_1N Target_1A eKdLlaI dKgBLAH Congruent left error Normal 1144.638
113 160 LeftLarger PercIBExp1 Prime_1N Target_6A hdIKEGL FfkLmBE Incongruent left error Normal 1041.204
114 1 LeftLarger PercIAPrac Prime_9N Target_4N ilmdcFI CmIbeFM Incongruent left correct Normal 391.9627
114 2 LeftLarger PercIAPrac Prime_1A Target_6N GBdCaeM deDCGMk Incongruent right correct Normal 1407.711
114 3 LeftLarger PercIAPrac Prime_1N Target_9N keFABHl lChfJAc Incongruent right correct Normal 1549.81
114 4 LeftLarger PercIAPrac Prime_9N Target_6A iIHjClE kfdgKmj Congruent left correct Normal 1134.863
114 5 LeftLarger PercIAPrac Prime_1A Target_4A labKEIj HELclja Congruent left error Normal 2210.025
114 6 LeftLarger PercIAPrac Prime_6A Target_9N fbaeGAD gEabkcI Congruent right error Normal 1051.833
114 7 LeftLarger PercIAPrac Prime_9N Target_1N jeJIbBg hkDAlHL Incongruent left correct Normal 1178.53
114 8 LeftLarger PercIAPrac Prime_9A Target_9N KMDHBFg KfgBjik Congruent right error Normal 991.5812
114 9 LeftLarger PercIAPrac Prime_1N Target_6N cehEkiL kGJLDId Incongruent left error Normal 1143.252
114 10 LeftLarger PercIAPrac Prime_6A Target_9A aMkliEI hCeEmgk Congruent left correct Normal 1925.59
114 11 LeftLarger PercIAPrac Prime_6A Target_4A limHhbJ CFHmDEJ Incongruent right error Normal 1128.814
114 12 LeftLarger PercIAPrac Prime_6N Target_6N DIHaiCK kfGcMHI Congruent right error Normal 1260.178
114 13 LeftLarger PercIAPrac Prime_9N Target_9A IKigjFk fMLGDjK Congruent left correct Normal 603.5881
114 14 LeftLarger PercIAPrac Prime_6N Target_4A fFCiHjm JeKhIDj Incongruent right error Normal 1287.424
114 15 LeftLarger PercIAPrac Prime_1A Target_9N JlhCDHi DihlHIE Incongruent right correct Normal 1109.957
114 16 LeftLarger PercIAPrac Prime_6N Target_4N EgcmJHb IKkHBLg Incongruent right error Normal 367.6145
114 17 LeftLarger PercIAExp1 Prime_9N Target_1A KkHMICL fAhgDkI Incongruent left correct Normal 377.8984
114 18 LeftLarger PercIAExp1 Prime_4A Target_4A ilKbfgL kclehFd Congruent left error Normal 1186.045
114 19 LeftLarger PercIAExp1 Prime_6N Target_9A mbLIBaf BAgFHiL Congruent right error Normal 633.3614
114 20 LeftLarger PercIAExp1 Prime_9A Target_6N LKiCaDj LdIHJbM Congruent left correct Normal 288.3913
114 21 LeftLarger PercIAExp1 Prime_1N Target_6N dAGgcjB FjfDJHh Incongruent left error Normal 988.2316
114 22 LeftLarger PercIAExp1 Prime_9N Target_9A BdEfFJi LdBkcfG Congruent right error Normal 514.8443
114 23 LeftLarger PercIAExp1 Prime_4N Target_1N HMBgCbl LGJlBIi Congruent left error Normal 375.7493
114 24 LeftLarger PercIAExp1 Prime_4N Target_6A LmFjdKA BldAbfM Incongruent right correct Normal 229.1716
114 25 LeftLarger PercIAExp1 Prime_4N Target_6N LMGeDla DJCbKkj Incongruent left error Normal 750.4485
114 26 LeftLarger PercIAExp1 Prime_1N Target_1N cHmBCEK gMLdmEj Congruent right correct Normal 800.3762
114 27 LeftLarger PercIAExp1 Prime_9A Target_1A MAldiaH JfcMGmD Incongruent left correct Normal 1398.175
114 28 LeftLarger PercIAExp1 Prime_9A Target_1N GhejDFi ICgaDBc Incongruent left correct Normal 384.9956
114 29 LeftLarger PercIAExp1 Prime_6A Target_4N BhKaAdI jBhDMiI Incongruent right error Normal 905.2859
114 30 LeftLarger PercIAExp1 Prime_4N Target_1A AfhGlFm afLhJDE Congruent left error Normal 1315.438
114 31 LeftLarger PercIAExp1 Prime_1N Target_4A DAKaMdc jflgbic Congruent right correct Normal 898.9961
114 32 LeftLarger PercIAExp1 Prime_1N Target_4N LbfBEhj jamJMKl Congruent left error Normal 891.2758
114 33 LeftLarger PercIAExp1 Prime_9N Target_6A AKJCcdg FhCGifH Congruent right error Normal 1087.337
114 34 LeftLarger PercIAExp1 Prime_6N Target_4N mGdLHia hEbdCgc Incongruent right error Normal 1747.754
114 35 LeftLarger PercIAExp1 Prime_6A Target_1N BhKJbmD CBAFLgb Incongruent left correct Normal 340.7263
114 36 LeftLarger PercIAExp1 Prime_9N Target_1N bKEiahm IcGFCfM Incongruent right error Normal 590.3651
114 37 LeftLarger PercIAExp1 Prime_4A Target_4N aeBFdjb gdmHkiC Congruent right correct Normal 1137.669
114 38 LeftLarger PercIAExp1 Prime_4A Target_6N meaLbih AIgDEGh Incongruent left error Normal 940.0738
114 39 LeftLarger PercIAExp1 Prime_6A Target_4A FcKLigH cDheabC Incongruent right error Normal 1131.121
114 40 LeftLarger PercIAExp1 Prime_4A Target_9N ebGlkfh AECLBiJ Incongruent left error Normal 1049.319
114 41 LeftLarger PercIAExp1 Prime_9N Target_4A HbeLjJl kCbLDmi Incongruent right error Normal 1305.485
114 42 LeftLarger PercIAExp1 Prime_6N Target_9N DjceCLd KJCAEij Congruent left correct Normal 1291.79
114 43 LeftLarger PercIAExp1 Prime_9A Target_4N CDigJHE blJDEaA Incongruent left correct Normal 1178.974
114 44 LeftLarger PercIAExp1 Prime_9A Target_9N gAmMCkI KdIjBMm Congruent right error Normal 764.8699
114 45 LeftLarger PercIAExp1 Prime_4A Target_9A AFmGIJj mkAlEhj Incongruent left error Normal 663.4607
114 46 LeftLarger PercIAExp1 Prime_4N Target_9N JgCEjAi KFfIcEa Incongruent right correct Normal 1253.728
114 47 LeftLarger PercIAExp1 Prime_9A Target_9A chkEgbM BbgdcKl Congruent left correct Normal 1338.52
114 48 LeftLarger PercIAExp1 Prime_1A Target_1A GHgBhdj eACfikF Congruent right correct Normal 690.7015
114 49 LeftLarger PercIAExp1 Prime_6N Target_6A AjdblFH DcdFGhf Congruent left correct Normal 931.5365
114 50 LeftLarger PercIAExp1 Prime_1A Target_6N GDKlFBc kJMKCAG Incongruent right correct Normal 1016.912
114 51 LeftLarger PercIAExp1 Prime_1A Target_6A kHgjalL klajFLC Incongruent left error Normal 727.7457
114 52 LeftLarger PercIAExp1 Prime_9N Target_6N LhBimJd mfJLlDA Congruent right error Normal 797.9146
114 53 LeftLarger PercIAExp1 Prime_1A Target_4A MmjIHGe ekMiHgb Congruent right correct Normal 1282.07
114 54 LeftLarger PercIAExp1 Prime_6A Target_9N KIMEdBl bckJAGe Congruent left correct Normal 977.9726
114 55 LeftLarger PercIAExp1 Prime_6N Target_1A chJkbDj gAGflhi Incongruent right error Normal 858.0333
114 56 LeftLarger PercIAExp1 Prime_9A Target_4A iHFAgJf cIebfaD Incongruent left correct Normal 1290.975
114 57 LeftLarger PercIAExp1 Prime_6N Target_4A mCJFAgc EbmHCjF Incongruent left correct Normal 1544.788
114 58 LeftLarger PercIAExp1 Prime_6N Target_6N HIfKAdC JFheCbB Congruent left correct Normal 1082.831
114 59 LeftLarger PercIAExp1 Prime_9A Target_6A aehFkBl kKcMlgf Congruent right error Normal 1121.259
114 60 LeftLarger PercIAExp1 Prime_4N Target_9A MgbIHjm MijHABK Incongruent left error Normal 810.5614
114 61 LeftLarger PercIAExp1 Prime_4A Target_1N FhjilLe DMkdAGa Congruent left error Normal 947.859
114 62 LeftLarger PercIAExp1 Prime_6A Target_1A kmGhbBd meCjAMF Incongruent left correct Normal 1493.661
114 63 LeftLarger PercIAExp1 Prime_6A Target_6N IamCkeh jChJfHK Congruent right error Normal 1117.457
114 64 LeftLarger PercIAExp1 Prime_4N Target_4N EmcBgCA gELjihd Congruent left error Normal 890.8091
114 65 LeftLarger PercIAExp1 Prime_1N Target_9N khHbLla jeMahgK Incongruent right correct Normal 814.2816
114 66 LeftLarger PercIAExp1 Prime_1A Target_4N gEjlLCF eAGFLgK Congruent left error Normal 946.6139
114 67 LeftLarger PercIAExp1 Prime_1N Target_6A HkhJgMi kBDlgLi Incongruent right correct Normal 852.1812
114 68 LeftLarger PercIAExp1 Prime_1A Target_9N dHKCMhD JfcldIa Incongruent left error Normal 697.0916
114 69 LeftLarger PercIAExp1 Prime_4A Target_1A FBCEAKd BeMcaEl Congruent right correct Normal 753.5115
114 70 LeftLarger PercIAExp1 Prime_6A Target_6A JcjbClD lMbHfGe Congruent left correct Normal 930.1284
114 71 LeftLarger PercIAExp1 Prime_4A Target_6A fgacdDH cDKhGHA Incongruent left error Normal 796.4588
114 72 LeftLarger PercIAExp1 Prime_6A Target_9A HGgKdAF gamfLJl Congruent right error Normal 579.1414
114 73 LeftLarger PercIAExp1 Prime_9N Target_9N mFEGMIj KjlEIMm Congruent left correct Normal 697.208
114 74 LeftLarger PercIAExp1 Prime_1N Target_1A mklfFea gIBFliL Congruent right correct Normal 659.9739
114 75 LeftLarger PercIAExp1 Prime_9N Target_4N LfjeFIi JejFaml Incongruent right error Normal 815.6535
114 76 LeftLarger PercIAExp1 Prime_4N Target_4A dMILGEK LJmEfKj Congruent left error Normal 790.9321
114 77 LeftLarger PercIAExp1 Prime_1A Target_9A gDJmehM eDFMkcf Incongruent left error Normal 891.7508
114 78 LeftLarger PercIAExp1 Prime_1A Target_1N KdgCLbG bIBdLFD Congruent right correct Normal 1101.41
114 79 LeftLarger PercIAExp1 Prime_1N Target_9A KcDLdAF hFKaCdk Incongruent left error Normal 637.3295
114 80 LeftLarger PercIAExp1 Prime_6N Target_1N LgbAhmi eMHBdbI Incongruent right error Normal 581.3896
114 81 LeftSmaller PercIBPrac Prime_9A Target_1N mAlHfcg fgDCecE Incongruent left error Normal 822.4662
114 82 LeftSmaller PercIBPrac Prime_9N Target_6A IDhFEkM klbABmd Congruent right correct Normal 662.5148
114 83 LeftSmaller PercIBPrac Prime_1A Target_4N GcJkEAM Afbjgac Congruent right error Normal 1158.177
114 84 LeftSmaller PercIBPrac Prime_1N Target_6A hmDFKCI LAEbdlK Incongruent left correct Normal 636.2067
114 85 LeftSmaller PercIBPrac Prime_9N Target_9A CHDklLF KAHiGaj Congruent right correct Normal 745.1393
114 86 LeftSmaller PercIBPrac Prime_9A Target_9N dlBHIKg hgFHmlj Congruent left error Normal 602.9099
114 87 LeftSmaller PercIBPrac Prime_4N Target_9N dJabEFD AdCGeBL Incongruent right error Normal 836.2441
114 88 LeftSmaller PercIBPrac Prime_1A Target_9N gJCFkGj HcEDbFC Incongruent left correct Normal 565.6495
114 89 LeftSmaller PercIBPrac Prime_9A Target_6A LlIAagk CkFDhHA Congruent right correct Normal 608.9345
114 90 LeftSmaller PercIBPrac Prime_6N Target_9N EDahIbd ICBfaDF Congruent right correct Normal 970.581
114 91 LeftSmaller PercIBPrac Prime_9A Target_9A DifGElK GBCfbEi Congruent left error Normal 515.2682
114 92 LeftSmaller PercIBPrac Prime_6N Target_9A hfLjEeH mkhHbIC Congruent right correct Normal 409.6325
114 93 LeftSmaller PercIBPrac Prime_4A Target_1N hceDHgA fJHKEcF Congruent right error Normal 658.607
114 94 LeftSmaller PercIBPrac Prime_6A Target_6N bMJiDEg kmCcAfH Congruent left error Normal 385.2554
114 95 LeftSmaller PercIBPrac Prime_9N Target_1A JMEKbgc BKegmhf Incongruent right correct Normal 782.945
114 96 LeftSmaller PercIBPrac Prime_4N Target_4A HDMemkg DgCldGJ Congruent right error Normal 542.9946
114 97 LeftSmaller PercIBExp1 Prime_9A Target_1N LcAFiBH BJLIDkm Incongruent left error Normal 634.1636
114 98 LeftSmaller PercIBExp1 Prime_9N Target_1N GfIiDaH eigcFam Incongruent right correct Normal 396.2041
114 99 LeftSmaller PercIBExp1 Prime_6A Target_6A MJIHfCg fLeFlDb Congruent right correct Normal 604.8381
114 100 LeftSmaller PercIBExp1 Prime_6N Target_4N BMFfmjD GlhAFIK Incongruent left error Normal 751.1679
114 101 LeftSmaller PercIBExp1 Prime_1N Target_9N dGIkegi cekJHlL Incongruent left correct Normal 456.5993
114 102 LeftSmaller PercIBExp1 Prime_9A Target_4N HIkjMlJ mDEMgdG Incongruent left error Normal 668.1848
114 103 LeftSmaller PercIBExp1 Prime_4A Target_4A hfAIecG DeFJMIh Congruent right error Normal 835.483
114 104 LeftSmaller PercIBExp1 Prime_4A Target_1N glEaCBF elmdKJh Congruent right error Normal 796.663
114 105 LeftSmaller PercIBExp1 Prime_4N Target_1A kAgJDaI bFfDigh Congruent left correct Normal 860.6616
114 106 LeftSmaller PercIBExp1 Prime_9A Target_6N IhMAkdl HAagEMk Congruent right correct Normal 753.3068
114 107 LeftSmaller PercIBExp1 Prime_6A Target_1A FfJHkbI eHFKAai Incongruent right correct Normal 685.1258
114 108 LeftSmaller PercIBExp1 Prime_9A Target_4A BkCcbGF JhKBCIf Incongruent left error Normal 383.4378
114 109 LeftSmaller PercIBExp1 Prime_9A Target_9N KChbgFf iEfabKI Congruent right correct Normal 442.8115
114 110 LeftSmaller PercIBExp1 Prime_4A Target_9N EeCIfac jeaMlDk Incongruent left correct Normal 770.4833
114 111 LeftSmaller PercIBExp1 Prime_9N Target_9N mdGkKfA AefHbFl Congruent right correct Normal 460.6304
114 112 LeftSmaller PercIBExp1 Prime_9N Target_1A gGejfah MKkIbEf Incongruent left error Normal 591.8277
114 113 LeftSmaller PercIBExp1 Prime_6N Target_4A mJfBKEa jdgEGmi Incongruent left error Normal 771.5857
114 114 LeftSmaller PercIBExp1 Prime_1A Target_6A KiFMmCE IdfLMma Incongruent right error Normal 591.2888
114 115 LeftSmaller PercIBExp1 Prime_6A Target_1N hEHdFgj gdMGHkL Incongruent left error Normal 368.9468
114 116 LeftSmaller PercIBExp1 Prime_9N Target_9A DafMGkd dCjDLmc Congruent right correct Normal 853.921
114 117 LeftSmaller PercIBExp1 Prime_4N Target_9N FKBjmLd fdakHij Incongruent left correct Normal 860.9666
114 118 LeftSmaller PercIBExp1 Prime_4A Target_6N GmMhJel lBjGbdc Incongruent right error Normal 818.1754
114 119 LeftSmaller PercIBExp1 Prime_4N Target_6N JDMKiaf AFfcheB Incongruent left correct Normal 484.7276
114 120 LeftSmaller PercIBExp1 Prime_1N Target_6A DEchGHk beHdgaC Incongruent right error Normal 597.9048
114 121 LeftSmaller PercIBExp1 Prime_1N Target_6N CHGBdcA FLahkED Incongruent left correct Normal 568.4396
114 122 LeftSmaller PercIBExp1 Prime_1A Target_9N HKJAgmC KMdAlgc Incongruent right error Normal 603.3558
114 123 LeftSmaller PercIBExp1 Prime_6A Target_9N FgJdHcE LkCclJA Congruent right correct Normal 614.5268
114 124 LeftSmaller PercIBExp1 Prime_6A Target_4N hjgHaDL MHdJAel Incongruent left error Normal 1007.951
114 125 LeftSmaller PercIBExp1 Prime_9N Target_6N DjlMcFg aCLHIjm Congruent right correct Normal 952.9749
114 126 LeftSmaller PercIBExp1 Prime_6N Target_9A AjcHkMb fLBcFAH Congruent right correct Normal 818.7571
114 127 LeftSmaller PercIBExp1 Prime_6N Target_6A aHMKmlj IMamDcG Congruent left error Normal 616.962
114 128 LeftSmaller PercIBExp1 Prime_4A Target_1A lIHcbLa lhFaAKe Congruent left correct Normal 793.1436
114 129 LeftSmaller PercIBExp1 Prime_6N Target_6N GHlEiba lAFBkmg Congruent left error Normal 1109.612
114 130 LeftSmaller PercIBExp1 Prime_1N Target_1N bCdgKHB FeiJblC Congruent right error Normal 1185.418
114 131 LeftSmaller PercIBExp1 Prime_1N Target_1A ijHFgbm JDafdeF Congruent right error Normal 648.501
114 132 LeftSmaller PercIBExp1 Prime_9N Target_6A GidAFEj deCGKfF Congruent left error Normal 967.3383
114 133 LeftSmaller PercIBExp1 Prime_6A Target_9A GCcbeAI ifdCgKF Congruent right correct Normal 771.6432
114 134 LeftSmaller PercIBExp1 Prime_4N Target_1N jiaABHm dDaClBj Congruent left correct Normal 562.1421
114 135 LeftSmaller PercIBExp1 Prime_4N Target_6A jceHEBM MblJAjH Incongruent left correct Normal 700.7088
114 136 LeftSmaller PercIBExp1 Prime_6N Target_1N kGLdmCE BElaAeF Incongruent left error Normal 835.0105
114 137 LeftSmaller PercIBExp1 Prime_1A Target_1N cKifJbl KDcCfMg Congruent left correct Normal 692.1719
114 138 LeftSmaller PercIBExp1 Prime_9A Target_9A biCldGj aFeldhI Congruent right correct Normal 881.7298
114 139 LeftSmaller PercIBExp1 Prime_6A Target_4A LjAgDMl BCimkIM Incongruent left error Normal 710.8862
114 140 LeftSmaller PercIBExp1 Prime_4N Target_9A DjmLlMg CkhdcDm Incongruent right error Normal 1448.06
114 141 LeftSmaller PercIBExp1 Prime_6N Target_1A dFEGDMB JlKIaCb Incongruent left error Normal 1351.847
114 142 LeftSmaller PercIBExp1 Prime_1A Target_1A HAkEGDc jMCcFIE Congruent right error Normal 826.3062
114 143 LeftSmaller PercIBExp1 Prime_4N Target_4N BMICEmL IklJACa Congruent right error Normal 990.7208
114 144 LeftSmaller PercIBExp1 Prime_1A Target_4N JLBDlmd hgHKiJI Congruent left correct Normal 1000.877
114 145 LeftSmaller PercIBExp1 Prime_4A Target_9A GjhBLed ADHcdmg Incongruent right error Normal 1518.803
114 146 LeftSmaller PercIBExp1 Prime_1N Target_4N LJljiHM GFmeCKD Congruent right error Normal 1284.7
114 147 LeftSmaller PercIBExp1 Prime_1N Target_9A IkjmiJb LkFjlIA Incongruent right error Normal 973.6767
114 148 LeftSmaller PercIBExp1 Prime_4A Target_6A laCDeFM CGMeIHa Incongruent left correct Normal 822.9549
114 149 LeftSmaller PercIBExp1 Prime_1A Target_6N MlLKcif lMbhdiH Incongruent right error Normal 541.0987
114 150 LeftSmaller PercIBExp1 Prime_1A Target_9A HBleiKA fbhGHlk Incongruent right error Normal 1023.189
114 151 LeftSmaller PercIBExp1 Prime_9N Target_4A caBLMCK GmeMdED Incongruent left error Normal 717.589
114 152 LeftSmaller PercIBExp1 Prime_4N Target_4A eEKaLgA hMfLIHd Congruent right error Normal 691.2811
114 153 LeftSmaller PercIBExp1 Prime_6N Target_9N FflIgDd LMKEDbm Congruent left error Normal 530.0343
114 154 LeftSmaller PercIBExp1 Prime_9A Target_6A jhemfiE iCJMdLD Congruent right correct Normal 300.4868
114 155 LeftSmaller PercIBExp1 Prime_1N Target_4A gjGDAcd GeMLclj Congruent left correct Normal 733.0332
114 156 LeftSmaller PercIBExp1 Prime_9N Target_4N IcDBefg EFlaegG Incongruent right correct Normal 889.8054
114 157 LeftSmaller PercIBExp1 Prime_1A Target_4A cIeABgD efbdLKI Congruent right error Normal 974.7048
114 158 LeftSmaller PercIBExp1 Prime_4A Target_4N CLmcEIj HaiGKmh Congruent left correct Normal 883.793
114 159 LeftSmaller PercIBExp1 Prime_9A Target_1A KlDeLJh BhjaIAm Incongruent right correct Normal 596.7287
114 160 LeftSmaller PercIBExp1 Prime_6A Target_6N GaDJkIM ldiEeMB Congruent left error Normal 1332.986
115 1 LeftLarger PercIAPrac Prime_4A Target_1N GBMbmHf MmFBgda Congruent right correct Normal 1588.64
115 2 LeftLarger PercIAPrac Prime_4N Target_4N eidIjbJ eKabkim Congruent right correct Normal 1494.197
115 3 LeftLarger PercIAPrac Prime_4A Target_6A lmLJaGA mKchLBf Incongruent left error Normal 2563.821
115 4 LeftLarger PercIAPrac Prime_6A Target_9A bBfHAhD BaHcMim Congruent right error Normal 1962.706
115 5 LeftLarger PercIAPrac Prime_4A Target_4A KcBbIJL iCFdcbl Congruent right correct Normal 1307.164
115 6 LeftLarger PercIAPrac Prime_9A Target_1A cigAdBM jFEhIBa Incongruent left correct Normal 1283.319
115 7 LeftLarger PercIAPrac Prime_1A Target_4N DMjCabG bfAHKdF Congruent right correct Normal 1781.819
115 8 LeftLarger PercIAPrac Prime_4N Target_6A gDcLEbi JcGHiBF Incongruent right correct Normal 2414.008
115 9 LeftLarger PercIAPrac Prime_9A Target_9N mikAGjc MLjbFhf Congruent right error Normal 1426.494
115 10 LeftLarger PercIAPrac Prime_1A Target_6N IjCEiag CjKFDEI Incongruent right correct Normal 3145.924
115 11 LeftLarger PercIAPrac Prime_9N Target_6N CclAHBF MAFafcb Congruent right error Normal 2099.111
115 12 LeftLarger PercIAPrac Prime_6A Target_6N ailgLfG jeIFikc Congruent right error Normal 2143.601
115 13 LeftLarger PercIAPrac Prime_4A Target_1A gAIKDBe gEbiDCA Congruent left error Normal 1304.3
115 14 LeftLarger PercIAPrac Prime_4A Target_4N hCfcKjJ CMcmdHD Congruent left error Normal 1881.101
115 15 LeftLarger PercIAPrac Prime_6A Target_1N EgdFaKA GIfMHgb Incongruent left correct Normal 2562.903
115 16 LeftLarger PercIAPrac Prime_4N Target_9A JFilELg EhckmKF Incongruent left error Normal 2008.992
115 17 LeftLarger PercIAExp1 Prime_6A Target_4N EiaJLGj dfGLKFH Incongruent right error Normal 2848.89
115 18 LeftLarger PercIAExp1 Prime_9N Target_1N jIgKBEm EgdheFG Incongruent right error Normal 1166.869
115 19 LeftLarger PercIAExp1 Prime_9N Target_4A HmljLcB hCmbfAj Incongruent right error Normal 1730.937
115 20 LeftLarger PercIAExp1 Prime_9A Target_6N GmLjlHa DlfEagJ Congruent right error Normal 1100.081
115 21 LeftLarger PercIAExp1 Prime_9A Target_4A AjHJfha LcfDkBh Incongruent left correct Normal 1293.233
115 22 LeftLarger PercIAExp1 Prime_1N Target_4N FJMlLBa dIKBJhk Congruent right correct Normal 2023.485
115 23 LeftLarger PercIAExp1 Prime_9N Target_4N cjFbBHg jgmkIlA Incongruent right error Normal 1538.286
115 24 LeftLarger PercIAExp1 Prime_4N Target_6N bjheDLa acLbjdG Incongruent right correct Normal 1197.915
115 25 LeftLarger PercIAExp1 Prime_4N Target_1N bLMhdCc GgdflkD Congruent right correct Normal 954.2721
115 26 LeftLarger PercIAExp1 Prime_4N Target_9N ebIiLHA KlBAfIk Incongruent left error Normal 1226.925
115 27 LeftLarger PercIAExp1 Prime_6A Target_6N kimHaLE aDJjGEB Congruent right error Normal 2147.11
115 28 LeftLarger PercIAExp1 Prime_4N Target_4A mjaILKh lFheMiI Congruent right correct Normal 1987.682
115 29 LeftLarger PercIAExp1 Prime_9A Target_1N mGCBAFc CdBKIel Incongruent right error Normal 1592.895
115 30 LeftLarger PercIAExp1 Prime_4N Target_9A IDgekmC HKkJCFB Incongruent right correct Normal 1698.572
115 31 LeftLarger PercIAExp1 Prime_4N Target_4N bamEHGl blImeiJ Congruent right correct Normal 1580.985
115 32 LeftLarger PercIAExp1 Prime_9A Target_9N jJHEGfm iAgLIMc Congruent left correct Normal 934.3079
115 33 LeftLarger PercIAExp1 Prime_1N Target_6A MfHJDLm haHMKbF Incongruent right correct Normal 1521.496
115 34 LeftLarger PercIAExp1 Prime_9N Target_6N JIkhMmF klgIBKA Congruent right error Normal 1333.052
115 35 LeftLarger PercIAExp1 Prime_6N Target_6N edlcgFJ McDGeLj Congruent right error Normal 2754.21
115 36 LeftLarger PercIAExp1 Prime_4A Target_6N melHdiA AacmGDj Incongruent right correct Normal 1753.554
115 37 LeftLarger PercIAExp1 Prime_9N Target_1A kMFlifb HbIMjca Incongruent right error Normal 1528.069
115 38 LeftLarger PercIAExp1 Prime_6A Target_9N bLhgCDH kBFhegL Congruent right error Normal 2206.033
115 39 LeftLarger PercIAExp1 Prime_6N Target_9N MHkgKFl aFbhCkD Congruent right error Normal 1499.361
115 40 LeftLarger PercIAExp1 Prime_1N Target_9A KMdGhil JhCfdMe Incongruent left error Normal 885.1818
115 41 LeftLarger PercIAExp1 Prime_4A Target_9A jfEiFGM hjHaeCD Incongruent left error Normal 2938.977
115 42 LeftLarger PercIAExp1 Prime_1A Target_1N HlLjikF ikbgdhB Congruent left error Normal 1741.059
115 43 LeftLarger PercIAExp1 Prime_4A Target_6A mfkHAlB ikHfDjC Incongruent right correct Normal 1142.678
115 44 LeftLarger PercIAExp1 Prime_1A Target_9A jKkeEDl kJbAGIf Incongruent right correct Normal 2203
115 45 LeftLarger PercIAExp1 Prime_1N Target_6N gLBjceE KilFECG Incongruent right correct Normal 1821.369
115 46 LeftLarger PercIAExp1 Prime_4A Target_4N iMdDCIH jJEDHKb Congruent right correct Normal 1187.065
115 47 LeftLarger PercIAExp1 Prime_1A Target_1A dbfaDmI bBJFHGA Congruent left error Normal 2772.358
115 48 LeftLarger PercIAExp1 Prime_4N Target_6A eEgbjdi JFBlLKI Incongruent left error Normal 1706.433
115 49 LeftLarger PercIAExp1 Prime_6A Target_9A gBIcalM kJibGlC Congruent right error Normal 1739.704
115 50 LeftLarger PercIAExp1 Prime_1A Target_6N ahGCcjB HeLdfDC Incongruent right correct Normal 2013.067
115 51 LeftLarger PercIAExp1 Prime_4A Target_9N gJmEIlG JjaMeCd Incongruent left error Normal 1273.831
115 52 LeftLarger PercIAExp1 Prime_9A Target_1A ahFGLKd beHhflD Incongruent right error Normal 1204.559
115 53 LeftLarger PercIAExp1 Prime_6N Target_1A iCfMJdE jmedgcC Incongruent left correct Normal 1534.363
115 54 LeftLarger PercIAExp1 Prime_9N Target_9N dgGjiIB fmIJlDh Congruent right error Normal 1629.739
115 55 LeftLarger PercIAExp1 Prime_6N Target_4A HLjlcCE kBFDIgl Incongruent right error Normal 2438.468
115 56 LeftLarger PercIAExp1 Prime_1N Target_1N giDJLeh AJdKmLE Congruent left error Normal 1489.43
115 57 LeftLarger PercIAExp1 Prime_9N Target_9A ImgelKc mIjhEMk Congruent right error Normal 1628.883
115 58 LeftLarger PercIAExp1 Prime_9N Target_6A geDmhLB HBIeclC Congruent right error Normal 1420.301
115 59 LeftLarger PercIAExp1 Prime_6N Target_1N ElHdhBK dbfeEjA Incongruent left correct Normal 1558.918
115 60 LeftLarger PercIAExp1 Prime_6N Target_9A MJFeHAl GijdDef Congruent left correct Normal 1233.729
115 61 LeftLarger PercIAExp1 Prime_9A Target_4N CagFmkE HgCLfjD Incongruent left correct Normal 2293.726
115 62 LeftLarger PercIAExp1 Prime_1A Target_4A gGMalbI cIfHJBh Congruent left error Normal 1364.179
115 63 LeftLarger PercIAExp1 Prime_4A Target_4A MJgAKdi MeiLCKJ Congruent left error Normal 1802.49
115 64 LeftLarger PercIAExp1 Prime_4A Target_1N kjCcgHl lGKEhdb Congruent right correct Normal 1240.797
115 65 LeftLarger PercIAExp1 Prime_1A Target_4N GheagfM mELAFab Congruent right correct Normal 2469.822
115 66 LeftLarger PercIAExp1 Prime_1A Target_9N ieFBfJa BMligCG Incongruent right correct Normal 2853.29
115 67 LeftLarger PercIAExp1 Prime_6A Target_6A iJclmgb KJDGLjf Congruent left correct Normal 1318.148
115 68 LeftLarger PercIAExp1 Prime_6A Target_1N LIDimKk dFCHGkb Incongruent left correct Normal 2427.408
115 69 LeftLarger PercIAExp1 Prime_6A Target_1A ibmgEMG bgAdfji Incongruent left correct Normal 2383.265
115 70 LeftLarger PercIAExp1 Prime_4N Target_1A LAdbehM FdIaclL Congruent right correct Normal 1244.802
115 71 LeftLarger PercIAExp1 Prime_6N Target_4N KEmdlcD clEeBFk Incongruent right error Normal 2142.88
115 72 LeftLarger PercIAExp1 Prime_1N Target_1A gGDHJca GmjeiBH Congruent left error Normal 2401.562
115 73 LeftLarger PercIAExp1 Prime_6N Target_6A lIgjbiB GbagkhL Congruent right error Normal 3400.857
115 74 LeftLarger PercIAExp1 Prime_1N Target_4A BmGeaLd hCLDkcK Congruent right correct Normal 1567.513
115 75 LeftLarger PercIAExp1 Prime_9A Target_6A aAhCjiF JaCihjb Congruent right error Normal 1858.94
115 76 LeftLarger PercIAExp1 Prime_1N Target_9N dAHlBiG hbFAleE Incongruent left error Normal 2370.875
115 77 LeftLarger PercIAExp1 Prime_9A Target_9A BfHCeDd IBeCgEc Congruent right error Normal 1431.335
115 78 LeftLarger PercIAExp1 Prime_6A Target_4A KCIfcme EClMdAH Incongruent left correct Normal 2660.606
115 79 LeftLarger PercIAExp1 Prime_4A Target_1A AdLhCEg IefCaGF Congruent right correct Normal 3200.317
115 80 LeftLarger PercIAExp1 Prime_1A Target_6A lDLiHJk IKdLmAh Incongruent right correct Normal 1764.788
115 81 LeftSmaller PercIBPrac Prime_1N Target_4N FeCBhiE biLBheD Congruent left correct Normal 2796.549
115 82 LeftSmaller PercIBPrac Prime_6N Target_6A FKBkldm JmKBhfe Congruent left error Normal 1208.77
115 83 LeftSmaller PercIBPrac Prime_1A Target_4N MCkFBcD hBeAkDG Congruent left correct Normal 1038.95
115 84 LeftSmaller PercIBPrac Prime_1A Target_1N JjfHmFc MbaFDHl Congruent right error Normal 1138.262
115 85 LeftSmaller PercIBPrac Prime_1N Target_1A ElbkGdB jDAKJlh Congruent left correct Normal 2142.536
115 86 LeftSmaller PercIBPrac Prime_4A Target_9A MJckiaE KFGAmaC Incongruent left correct Normal 834.3135
115 87 LeftSmaller PercIBPrac Prime_6A Target_6A DAmfgaJ JkbeGjc Congruent left error Normal 601.7154
115 88 LeftSmaller PercIBPrac Prime_6A Target_1N kEcIglM efDbIhM Incongruent right correct Normal 746.9575
115 89 LeftSmaller PercIBPrac Prime_9N Target_4N Ijldmgi JBiDhcj Incongruent left error Normal 1128.364
115 90 LeftSmaller PercIBPrac Prime_6A Target_9A EFBlJfb CDAceBb Congruent left error Normal 1181.882
115 91 LeftSmaller PercIBPrac Prime_1N Target_9A fgkijDH MfbjCil Incongruent left correct Normal 1514.542
115 92 LeftSmaller PercIBPrac Prime_1N Target_1N AMmJFBG DLmfcdA Congruent right error Normal 1462.452
115 93 LeftSmaller PercIBPrac Prime_6A Target_9N AiHIfGa fImGHJl Congruent left error Normal 1343.666
115 94 LeftSmaller PercIBPrac Prime_9A Target_6N KikhgFG clAdhjK Congruent right correct Normal 1255.281
115 95 LeftSmaller PercIBPrac Prime_9A Target_4N JmCjdfL jcdIgmC Incongruent right correct Normal 1706.277
115 96 LeftSmaller PercIBPrac Prime_1N Target_9N fLMhjig BDiIKfF Incongruent left correct Normal 1760.427
115 97 LeftSmaller PercIBExp1 Prime_4N Target_9N CgaGIKF HALBKEd Incongruent left correct Normal 1918.141
115 98 LeftSmaller PercIBExp1 Prime_6A Target_1N iHECmIA kFcGahI Incongruent left error Normal 1531.599
115 99 LeftSmaller PercIBExp1 Prime_9N Target_1A hMAElmD eAChgEI Incongruent left error Normal 2378.306
115 100 LeftSmaller PercIBExp1 Prime_1A Target_1A KbAfEik fJmheci Congruent right error Normal 1017.989
115 101 LeftSmaller PercIBExp1 Prime_6N Target_4N bGKLgBj mMKJELG Incongruent right correct Normal 1426.246
115 102 LeftSmaller PercIBExp1 Prime_6A Target_4N gbjCMEF McKlbEm Incongruent left error Normal 1286.254
115 103 LeftSmaller PercIBExp1 Prime_9A Target_4N baLHmGA DcgmiLG Incongruent left error Normal 1319.439
115 104 LeftSmaller PercIBExp1 Prime_6N Target_1A kjGBFKA ifGHmjD Incongruent left error Normal 1467.267
115 105 LeftSmaller PercIBExp1 Prime_4A Target_1A FkaedJl gcjmiAd Congruent left correct Normal 1286.156
115 106 LeftSmaller PercIBExp1 Prime_1A Target_1N jAJdMGF HJgCMhL Congruent right error Normal 1878.875
115 107 LeftSmaller PercIBExp1 Prime_4A Target_9N FclhmCJ IbhMBmk Incongruent right error Normal 1185.934
115 108 LeftSmaller PercIBExp1 Prime_4A Target_4N iCAedmE MCedLAf Congruent left correct Normal 1174.922
115 109 LeftSmaller PercIBExp1 Prime_1N Target_4N jKBglmL DCkIaJK Congruent left correct Normal 1256.228
115 110 LeftSmaller PercIBExp1 Prime_9A Target_9N BdlEkGC HeiEAID Congruent left error Normal 2022.206
115 111 LeftSmaller PercIBExp1 Prime_6N Target_6A jlImEhD MimGaLE Congruent left error Normal 1924.764
115 112 LeftSmaller PercIBExp1 Prime_1A Target_6A aBgFMEH cKdHfkG Incongruent left correct Normal 1886.466
115 113 LeftSmaller PercIBExp1 Prime_1N Target_1N IkdMjBH HBhJiGe Congruent left correct Normal 2806.247
115 114 LeftSmaller PercIBExp1 Prime_6A Target_6N ajMmcgB KEclFig Congruent left error Normal 1382.989
115 115 LeftSmaller PercIBExp1 Prime_4A Target_6N KmlHDkB FDlmjHh Incongruent left correct Normal 1348.773
115 116 LeftSmaller PercIBExp1 Prime_9N Target_6A jMdhbKg jfFLMEa Congruent right correct Normal 1775.271
115 117 LeftSmaller PercIBExp1 Prime_9A Target_6N dfBJMEL MfEhIGK Congruent left error Normal 1838.91
115 118 LeftSmaller PercIBExp1 Prime_9A Target_4A gLFbdhB BdhAIFk Incongruent left error Normal 1462.987
115 119 LeftSmaller PercIBExp1 Prime_4A Target_9A MGemABD mgfIjaA Incongruent left correct Normal 1115.282
115 120 LeftSmaller PercIBExp1 Prime_1A Target_4A edDMEJH gFjJHIk Congruent left correct Normal 1005.001
115 121 LeftSmaller PercIBExp1 Prime_4N Target_4N cgJibDd imhkHaG Congruent right error Normal 1094.522
115 122 LeftSmaller PercIBExp1 Prime_1N Target_6N gcGKDaM kDmedHi Incongruent left correct Normal 1071.226
115 123 LeftSmaller PercIBExp1 Prime_9N Target_1N aKAjklG mihGLbj Incongruent left error Normal 844.8618
115 124 LeftSmaller PercIBExp1 Prime_9A Target_9A agAbkLC fEchbDi Congruent right correct Normal 2093.972
115 125 LeftSmaller PercIBExp1 Prime_6N Target_9N IkBdAha JemlEiG Congruent left error Normal 896.0828
115 126 LeftSmaller PercIBExp1 Prime_4A Target_4A dbFEgLB KMHJFiE Congruent left correct Normal 1745.895
115 127 LeftSmaller PercIBExp1 Prime_9N Target_9A LjbAcaf mhldMfC Congruent right correct Normal 1853.981
115 128 LeftSmaller PercIBExp1 Prime_1A Target_4N KIMBDeb CEfhKAk Congruent left correct Normal 886.5354
115 129 LeftSmaller PercIBExp1 Prime_1A Target_6N GHehDKJ KAJMdBI Incongruent left correct Normal 773.578
115 130 LeftSmaller PercIBExp1 Prime_6A Target_9A CgAbmGI jAJkLgF Congruent left error Normal 968.639
115 131 LeftSmaller PercIBExp1 Prime_6A Target_9N GHkaCjJ kGDdIMl Congruent right correct Normal 1334.927
115 132 LeftSmaller PercIBExp1 Prime_9A Target_1N MEjadek gJKIMGL Incongruent left error Normal 1117.688
115 133 LeftSmaller PercIBExp1 Prime_1N Target_4A ecmAEDf BACbKej Congruent right error Normal 3038.391
115 134 LeftSmaller PercIBExp1 Prime_6A Target_1A KMLkBcG ejmhfCE Incongruent right correct Normal 1037.86
115 135 LeftSmaller PercIBExp1 Prime_1A Target_9A eKDAfLl AigEdIk Incongruent left correct Normal 1827.781
115 136 LeftSmaller PercIBExp1 Prime_9N Target_4N aBeDAbg iHDIbaA Incongruent left error Normal 786.6988
115 137 LeftSmaller PercIBExp1 Prime_9A Target_6A HLikaJm ijeMkgf Congruent left error Normal 1586.401
115 138 LeftSmaller PercIBExp1 Prime_9N Target_4A aIDCkKh ChBdFAi Incongruent left error Normal 993.7178
115 139 LeftSmaller PercIBExp1 Prime_4N Target_9A FCGkEBJ gBDjLHk Incongruent right error Normal 1103.012
115 140 LeftSmaller PercIBExp1 Prime_1A Target_9N jMFfEhD DbdMjLC Incongruent left correct Normal 1304.201
115 141 LeftSmaller PercIBExp1 Prime_6N Target_6N HfFkgIm JLcFMHG Congruent left error Normal 1761.246
115 142 LeftSmaller PercIBExp1 Prime_4N Target_6A ebakFlg chLDFEa Incongruent left correct Normal 1101.319
115 143 LeftSmaller PercIBExp1 Prime_6N Target_9A lkDKLdM iGajlfM Congruent right correct Normal 912.855
115 144 LeftSmaller PercIBExp1 Prime_1N Target_6A LaHMmBJ megaIGA Incongruent right error Normal 1473.661
115 145 LeftSmaller PercIBExp1 Prime_4N Target_4A KICfmHB LJblCBa Congruent left correct Normal 1372.559
115 146 LeftSmaller PercIBExp1 Prime_4A Target_1N bjkAGHD dhLflkF Congruent left correct Normal 1197.28
115 147 LeftSmaller PercIBExp1 Prime_1N Target_1A gmaCMAL GafieJK Congruent right error Normal 2656.426
115 148 LeftSmaller PercIBExp1 Prime_6N Target_4A iDFBkIm cKfdABD Incongruent left error Normal 1807.9
115 149 LeftSmaller PercIBExp1 Prime_6N Target_1N BHFAgbD EhJkdbm Incongruent left error Normal 2187.809
115 150 LeftSmaller PercIBExp1 Prime_1N Target_9N DkIEbGC dDmAciL Incongruent left correct Normal 1475.869
115 151 LeftSmaller PercIBExp1 Prime_6A Target_6A DejcEAf dmhkLKF Congruent right correct Normal 1119.838
115 152 LeftSmaller PercIBExp1 Prime_9N Target_9N giMbmca HlBMcmE Congruent left error Normal 1156.475
115 153 LeftSmaller PercIBExp1 Prime_6A Target_4A hEBClDg lBDaeIb Incongruent left error Normal 2461.171
115 154 LeftSmaller PercIBExp1 Prime_1N Target_9A bCMIicJ CjadFeE Incongruent right error Normal 1269.801
115 155 LeftSmaller PercIBExp1 Prime_4A Target_6A AelDdhK MaELlGc Incongruent right error Normal 1771.084
115 156 LeftSmaller PercIBExp1 Prime_4N Target_1A GCedFJH BJLfHCi Congruent left correct Normal 3425.459
115 157 LeftSmaller PercIBExp1 Prime_4N Target_1N eJhcKMk ADGFgJH Congruent right error Normal 2578.437
115 158 LeftSmaller PercIBExp1 Prime_9A Target_1A LIcJdhb bdJgiFG Incongruent right correct Normal 1757.69
115 159 LeftSmaller PercIBExp1 Prime_4N Target_6N BicdKlb bJDkajf Incongruent right error Normal 1400.74
115 160 LeftSmaller PercIBExp1 Prime_9N Target_6N bDgkHjL iLAjldG Congruent right correct Normal 1399.927
116 1 LeftLarger PercIAPrac Prime_6N Target_1N GIaKkLD icHLFEj Incongruent left correct Normal 2106.474
116 2 LeftLarger PercIAPrac Prime_1A Target_9N cDCKdjl GgcIDBb Incongruent left error Normal 1055.657
116 3 LeftLarger PercIAPrac Prime_4N Target_6N fJdbMKL cMhjBed Incongruent right correct Normal 713.8511
116 4 LeftLarger PercIAPrac Prime_6A Target_4A FBEbLjG FHCdlbK Incongruent right error Normal 1040.274
116 5 LeftLarger PercIAPrac Prime_9A Target_4A ilKhCfI gfKBJlD Incongruent left correct Normal 1478.028
116 6 LeftLarger PercIAPrac Prime_1N Target_1N AIeaHDm jIEGbeM Congruent left error Normal 792.8902
116 7 LeftLarger PercIAPrac Prime_6N Target_6N hdafbKj ICGMAgK Congruent right error Normal 1227.045
116 8 LeftLarger PercIAPrac Prime_6A Target_6A iglFGmB fgLAjaK Congruent right error Normal 732.7062
116 9 LeftLarger PercIAPrac Prime_9A Target_6N jeKhEAc JiILKGC Congruent right error Normal 323.5359
116 10 LeftLarger PercIAPrac Prime_1A Target_6A mlKCEcj FlABhJI Incongruent right correct Normal 500.3243
116 11 LeftLarger PercIAPrac Prime_6A Target_1N bLBIiFd fDBFKIH Incongruent left correct Normal 373.6135
116 12 LeftLarger PercIAPrac Prime_4A Target_6N KkMdjCA IJjimgF Incongruent left error Normal 907.2419
116 13 LeftLarger PercIAPrac Prime_6N Target_6A kLhbMji JiMEHmj Congruent left correct Normal 515.688
116 14 LeftLarger PercIAPrac Prime_1N Target_9N ihblkAa ljkemMc Incongruent left error Normal 636.492
116 15 LeftLarger PercIAPrac Prime_6A Target_9N lCadMce imJjEhg Congruent right error Normal 434.0318
116 16 LeftLarger PercIAPrac Prime_1A Target_4N HjCicdJ fcCIHkE Congruent right correct Normal 499.0537
116 17 LeftLarger PercIAExp1 Prime_1A Target_9N DFmALHh hKmaiLJ Incongruent right correct Normal 471.1879
116 18 LeftLarger PercIAExp1 Prime_1N Target_9N MiBEaCm lFeMABD Incongruent right correct Normal 284.1019
116 19 LeftLarger PercIAExp1 Prime_1A Target_4N ALBfmie cLbgMJm Congruent right correct Normal 538.397
116 20 LeftLarger PercIAExp1 Prime_1A Target_6N LMcBgJl BilKbhD Incongruent left error Normal 285.3196
116 21 LeftLarger PercIAExp1 Prime_9A Target_1N kCHgafj FDegCGE Incongruent left correct Normal 309.1981
116 22 LeftLarger PercIAExp1 Prime_9N Target_6N KMdicbm AGjCBbI Congruent left correct Normal 374.8775
116 23 LeftLarger PercIAExp1 Prime_9A Target_9A AMDjLde hiADCLd Congruent right error Normal 345.3052
116 24 LeftLarger PercIAExp1 Prime_6N Target_4N BdeJfKM LFfJABE Incongruent right error Normal 248.6669
116 25 LeftLarger PercIAExp1 Prime_4A Target_1A GLfjCKe FmEibKd Congruent right correct Normal 394.9836
116 26 LeftLarger PercIAExp1 Prime_9N Target_1A IjABhek KhaJEMl Incongruent right error Normal 313.4042
116 27 LeftLarger PercIAExp1 Prime_6N Target_9N hJgamkA lDbAFhc Congruent left correct Normal 381.8281
116 28 LeftLarger PercIAExp1 Prime_1N Target_9A icJfgAB fKcglmj Incongruent left error Normal 547.6196
116 29 LeftLarger PercIAExp1 Prime_6A Target_9A eLIdgjh gAdFJGi Congruent left correct Normal 271.2257
116 30 LeftLarger PercIAExp1 Prime_4N Target_9N AgjBGeE lFDCicb Incongruent right correct Normal 226.1726
116 31 LeftLarger PercIAExp1 Prime_9A Target_6A eIcMgJd adFgGEk Congruent left correct Normal 292.2106
116 32 LeftLarger PercIAExp1 Prime_9A Target_6N HcLeKjM FmDlgJL Congruent left correct Normal 236.1299
116 33 LeftLarger PercIAExp1 Prime_1N Target_4A ikjHEbf KJEjhCG Congruent right correct Normal 237.0404
116 34 LeftLarger PercIAExp1 Prime_6N Target_9A BEdgjiD fMdbJLa Congruent right error Early 82.13252
116 35 LeftLarger PercIAExp1 Prime_1N Target_4N lDjkmAg LaHgICi Congruent right correct Early 34.28077
116 36 LeftLarger PercIAExp1 Prime_4N Target_6N gHDGmeb kMEldhb Incongruent right correct Normal 187.1377
116 37 LeftLarger PercIAExp1 Prime_4A Target_4A ebdgMBK faFdlMC Congruent left error Normal 156.1729
116 38 LeftLarger PercIAExp1 Prime_1N Target_6N EGjfAKH ihgHaLD Incongruent left error Normal 168.4582
116 39 LeftLarger PercIAExp1 Prime_9A Target_4N cCAMigD MdCaKel Incongruent right error Early 95.70912
116 40 LeftLarger PercIAExp1 Prime_4N Target_4A ClHDgGb BgfaDKi Congruent right correct Normal 126.2945
116 41 LeftLarger PercIAExp1 Prime_6A Target_1A BLkgEcM fGIHheM Incongruent right error Normal 266.6999
116 42 LeftLarger PercIAExp1 Prime_4A Target_9A hJDdGEm AhCDjim Incongruent right correct Normal 335.7399
116 43 LeftLarger PercIAExp1 Prime_1N Target_6A AmJcehb JGcKaeg Incongruent left error Normal 243.4606
116 44 LeftLarger PercIAExp1 Prime_9A Target_1A gadJHfE ackJDfC Incongruent right error Early 90.18305
116 45 LeftLarger PercIAExp1 Prime_9N Target_9A efKcFMd bHmhjiC Congruent right error Normal 172.4731
116 46 LeftLarger PercIAExp1 Prime_6N Target_4A McbmlIj bIEiHDh Incongruent right error Normal 124.6396
116 47 LeftLarger PercIAExp1 Prime_4N Target_6A MEAdfeb mGgHkjD Incongruent left error Normal 182.987
116 48 LeftLarger PercIAExp1 Prime_6A Target_4N iFGAlem AmMDJbH Incongruent left correct Normal 265.3206
116 49 LeftLarger PercIAExp1 Prime_9N Target_4A jlDCFEM LGJmhlC Incongruent right error Early 63.862
116 50 LeftLarger PercIAExp1 Prime_6N Target_1A CiDhIAj icgJkMd Incongruent right error Normal 131.5008
116 51 LeftLarger PercIAExp1 Prime_4A Target_4N bEeFdfH HhaDcgE Congruent right correct Normal 222.3153
116 52 LeftLarger PercIAExp1 Prime_6N Target_1N DbAChcd eBlhDaE Incongruent left correct Normal 151.2078
116 53 LeftLarger PercIAExp1 Prime_4A Target_9N ajLgMJk mifIHga Incongruent right correct Normal 105.6299
116 54 LeftLarger PercIAExp1 Prime_1A Target_1A AFmcKeE fgkAMDm Congruent right correct Normal 140.7864
116 55 LeftLarger PercIAExp1 Prime_4N Target_1N cCGHMDd mieJGMI Congruent left error Normal 112.4398
116 56 LeftLarger PercIAExp1 Prime_6A Target_1N cGJgkKb BemKDLb Incongruent left correct Normal 202.4237
116 57 LeftLarger PercIAExp1 Prime_1N Target_1A cbjkFAe gjeCiLb Congruent left error Early 56.06701
116 58 LeftLarger PercIAExp1 Prime_9N Target_1N cGBdFaK MlKDJAk Incongruent left correct Early 32.202
116 59 LeftLarger PercIAExp1 Prime_9N Target_4N mbJIBFK AaCGEbk Incongruent left correct Normal 234.9041
116 60 LeftLarger PercIAExp1 Prime_1A Target_6A lkCemLj jGcgeik Incongruent left error Normal 219.6328
116 61 LeftLarger PercIAExp1 Prime_6A Target_9N JijALdC DfEMaiG Congruent right error Normal 148.1605
116 62 LeftLarger PercIAExp1 Prime_6A Target_6N EcdCfKG dIkLHDM Congruent left correct Normal 160.9406
116 63 LeftLarger PercIAExp1 Prime_4A Target_6N ebkBmah ALcDbeK Incongruent right correct Normal 112.9616
116 64 LeftLarger PercIAExp1 Prime_9A Target_9N cAKLlbJ FCDAmLc Congruent right error Normal 114.331
116 65 LeftLarger PercIAExp1 Prime_9N Target_9N aEbDcif DIHkFCc Congruent left correct Early 86.16303
116 66 LeftLarger PercIAExp1 Prime_4A Target_6A HecCmIj aihcbHf Incongruent left error Normal 106.1971
116 67 LeftLarger PercIAExp1 Prime_4A Target_1N GlDLBFM IDkcJad Congruent left error Normal 221.3769
116 68 LeftLarger PercIAExp1 Prime_9N Target_6A CAebfBk jLMFfCc Congruent right error Early 24.9956
116 69 LeftLarger PercIAExp1 Prime_6N Target_6N hgcFmJa efkEcgh Congruent right error Normal 143.5677
116 70 LeftLarger PercIAExp1 Prime_6A Target_6A keahicj KhmJDEI Congruent right error Normal 158.8373
116 71 LeftLarger PercIAExp1 Prime_9A Target_4A jEeKJGa IjmgMJK Incongruent right error Early 50.38784
116 72 LeftLarger PercIAExp1 Prime_1A Target_9A HLBIaEC EJAdGkL Incongruent left error Normal 112.1547
116 73 LeftLarger PercIAExp1 Prime_1N Target_1N ALcEjDM JFIBfEM Congruent right correct Early 34.0915
116 74 LeftLarger PercIAExp1 Prime_4N Target_1A IAGefaL bLCheGl Congruent right correct Early 79.18075
116 75 LeftLarger PercIAExp1 Prime_4N Target_4N LBCKJAM ckjBmiE Congruent right correct Normal 311.1548
116 76 LeftLarger PercIAExp1 Prime_4N Target_9A HjKifbg jfICmbL Incongruent right correct Normal 171.913
116 77 LeftLarger PercIAExp1 Prime_1A Target_1N ChfMABc GfBkghK Congruent right correct Normal 146.2404
116 78 LeftLarger PercIAExp1 Prime_1A Target_4A dBbCLKf mhBAEjF Congruent left error Early 4.94721
116 79 LeftLarger PercIAExp1 Prime_6N Target_6A IHiBAdk kMgdicA Congruent right error Early 83.16442
116 80 LeftLarger PercIAExp1 Prime_6A Target_4A mHfCjDG cDmeKdG Incongruent left correct Normal 130.5882
116 81 LeftSmaller PercIBPrac Prime_9N Target_1A jmJKbeG cbIFHfK Incongruent right correct Normal 385.6227
116 82 LeftSmaller PercIBPrac Prime_4N Target_9A beMHmaC EklFcjD Incongruent right error Normal 156.7484
116 83 LeftSmaller PercIBPrac Prime_6N Target_6N AKjFhcM CLiajmK Congruent left error Normal 250.5273
116 84 LeftSmaller PercIBPrac Prime_6N Target_4A GgbaMmD lMJHhjB Incongruent left error Normal 230.8549
116 85 LeftSmaller PercIBPrac Prime_9A Target_9N FCGAagj DEmBcdG Congruent left error Normal 382.104
116 86 LeftSmaller PercIBPrac Prime_1A Target_1N kAKiEHc ALFdhkC Congruent left correct Normal 182.2711
116 87 LeftSmaller PercIBPrac Prime_6A Target_1N hABJcbe aAGlKhM Incongruent right correct Early 95.98479
116 88 LeftSmaller PercIBPrac Prime_1A Target_6A gFGAHDC ElHeBmC Incongruent right error Early 4.889012
116 89 LeftSmaller PercIBPrac Prime_1N Target_9N CJMgekD fghMDjd Incongruent right error Normal 102.7532
116 90 LeftSmaller PercIBPrac Prime_9A Target_4A jbfCakF dMiFaJK Incongruent left error Normal 361.5442
116 91 LeftSmaller PercIBPrac Prime_1A Target_6N hfjDCki dIAMHCh Incongruent right error Normal 174.9909
116 92 LeftSmaller PercIBPrac Prime_4A Target_9N MgiELHJ ahCjJdk Incongruent right error Normal 324.1345
116 93 LeftSmaller PercIBPrac Prime_6A Target_9A CamMkjJ MKJLCci Congruent left error Normal 534.9286
116 94 LeftSmaller PercIBPrac Prime_4N Target_9N eBEikGJ DGkcMIH Incongruent left correct Normal 375.9765
116 95 LeftSmaller PercIBPrac Prime_9N Target_4N ciDkFMI dcbHmGa Incongruent left error Normal 214.5197
116 96 LeftSmaller PercIBPrac Prime_1A Target_9A mKilBkD ifaMHlG Incongruent right error Early 94.637
116 97 LeftSmaller PercIBExp1 Prime_6N Target_4A kmCDlhe BHIeKMf Incongruent right correct Normal 551.7493
116 98 LeftSmaller PercIBExp1 Prime_9A Target_1A HMaDcBe GClDfEL Incongruent right correct Normal 276.8321
116 99 LeftSmaller PercIBExp1 Prime_4A Target_6N jCAiJMe cHMlaEk Incongruent right error Normal 349.503
116 100 LeftSmaller PercIBExp1 Prime_4A Target_6A IGKikCd JcbKeId Incongruent left correct Normal 267.8936
116 101 LeftSmaller PercIBExp1 Prime_4A Target_4N IfiCmFG BfkJDGb Congruent left correct Normal 167.9612
116 102 LeftSmaller PercIBExp1 Prime_4N Target_9N FDkehBG FMBdiJb Incongruent left correct Normal 270.1223
116 103 LeftSmaller PercIBExp1 Prime_1N Target_1N hjJFbAL ICejgBc Congruent right error Normal 229.1951
116 104 LeftSmaller PercIBExp1 Prime_4A Target_9N ILEhAGF aiImcJF Incongruent right error Normal 379.559
116 105 LeftSmaller PercIBExp1 Prime_9A Target_9N GlbBmAj FLIdeca Congruent left error Normal 527.2012
116 106 LeftSmaller PercIBExp1 Prime_1A Target_6A FcKlJij EHDaFML Incongruent left correct Normal 1073.248
116 107 LeftSmaller PercIBExp1 Prime_9A Target_4N almjkKi IDaiLFK Incongruent left error Normal 322.8156
116 108 LeftSmaller PercIBExp1 Prime_6N Target_1N aiIdgDC KAfCeDl Incongruent right correct Early 83.235
116 109 LeftSmaller PercIBExp1 Prime_6N Target_4N bEkDJdg lakCgHi Incongruent right correct Normal 395.2165
116 110 LeftSmaller PercIBExp1 Prime_6N Target_9A cCfeFlk KJLIMhg Congruent left error Normal 694.4215
116 111 LeftSmaller PercIBExp1 Prime_1N Target_6N KgdbBaf hFAamke Incongruent left correct Normal 489.2473
116 112 LeftSmaller PercIBExp1 Prime_1N Target_9A dkiaKJG ckljIhE Incongruent right error Normal 121.8794
116 113 LeftSmaller PercIBExp1 Prime_9N Target_6N aCgbhDM giGDICd Congruent left error Normal 293.2929
116 114 LeftSmaller PercIBExp1 Prime_9N Target_9N jJGaMmI cJBILjf Congruent left error Normal 164.6721
116 115 LeftSmaller PercIBExp1 Prime_1A Target_6N jECgIFd MFjCDEk Incongruent left correct Normal 260.8763
116 116 LeftSmaller PercIBExp1 Prime_4N Target_4A gLEaejG GLcidDA Congruent right error Normal 845.8427
116 117 LeftSmaller PercIBExp1 Prime_9N Target_4N HCJfEmj MLecKmi Incongruent left error Normal 612.2319
116 118 LeftSmaller PercIBExp1 Prime_6A Target_4N KDgLkAa cKfdgGj Incongruent left error Normal 633.2282
116 119 LeftSmaller PercIBExp1 Prime_6A Target_6N BEaMmIG BEJGfji Congruent left error Normal 613.6659
116 120 LeftSmaller PercIBExp1 Prime_6A Target_6A mlDhEGc lkEFGhM Congruent right correct Normal 824.0592
116 121 LeftSmaller PercIBExp1 Prime_1A Target_1A fBJCgFk FkBECIJ Congruent left correct Normal 473.3653
116 122 LeftSmaller PercIBExp1 Prime_9N Target_1A fCHIjhl hcgCfba Incongruent right correct Normal 745.8946
116 123 LeftSmaller PercIBExp1 Prime_1N Target_9N FeGMjEL IFDldih Incongruent left correct Normal 996.5243
116 124 LeftSmaller PercIBExp1 Prime_9N Target_6A lDLgMCI jcCfleK Congruent right correct Normal 564.7602
116 125 LeftSmaller PercIBExp1 Prime_1A Target_9A GhcjKim mdDkFEe Incongruent right error Normal 617.7488
116 126 LeftSmaller PercIBExp1 Prime_4N Target_9A mKBcDGe IkeJMHg Incongruent right error Normal 768.0669
116 127 LeftSmaller PercIBExp1 Prime_9N Target_4A kjDIlhd bjEmAlg Incongruent left error Normal 289.6219
116 128 LeftSmaller PercIBExp1 Prime_4N Target_4N KgjCBml IAGKiEl Congruent right error Normal 168.5083
116 129 LeftSmaller PercIBExp1 Prime_6A Target_1N FmJcGBk aHfFiDk Incongruent right correct Normal 369.0261
116 130 LeftSmaller PercIBExp1 Prime_1N Target_4A bdElHMc JcLgCjH Congruent right error Normal 505.7304
116 131 LeftSmaller PercIBExp1 Prime_6N Target_1A LEdbgHh fIHFKdC Incongruent right correct Normal 395.2753
116 132 LeftSmaller PercIBExp1 Prime_4A Target_4A kAMeCBI FbHGdhc Congruent right error Normal 220.2864
116 133 LeftSmaller PercIBExp1 Prime_6A Target_9N GblJBhM LAcdJli Congruent left error Normal 656.6922
116 134 LeftSmaller PercIBExp1 Prime_1A Target_4N fmLHJhb FcjJMHE Congruent left correct Normal 292.3566
116 135 LeftSmaller PercIBExp1 Prime_6A Target_4A KmHhijd LeCGaHf Incongruent left error Normal 298.4428
116 136 LeftSmaller PercIBExp1 Prime_4A Target_9A bHjKCJI KEaCLbI Incongruent left correct Normal 342.2132
116 137 LeftSmaller PercIBExp1 Prime_4N Target_6A kLiMKEI IbhlkgE Incongruent left correct Normal 755.2054
116 138 LeftSmaller PercIBExp1 Prime_1N Target_1A lbMLCDa FejaCLD Congruent right error Normal 609.9365
116 139 LeftSmaller PercIBExp1 Prime_9A Target_4A DmFglfe IfhgFKJ Incongruent right correct Normal 525.8391
116 140 LeftSmaller PercIBExp1 Prime_4A Target_1A MgcjeBH jEfdhmB Congruent right error Normal 324.05
116 141 LeftSmaller PercIBExp1 Prime_4N Target_6N bdmEMCj cbIGiLD Incongruent right error Normal 503.0479
116 142 LeftSmaller PercIBExp1 Prime_6A Target_9A HmiMKjd LHCgMih Congruent left error Normal 678.2053
116 143 LeftSmaller PercIBExp1 Prime_4A Target_1N calhLkG jFClhka Congruent right error Normal 290.7676
116 144 LeftSmaller PercIBExp1 Prime_1N Target_6A GceLfJi MIcKBJb Incongruent left correct Normal 379.6713
116 145 LeftSmaller PercIBExp1 Prime_6N Target_9N bAGmlhe kgHFdEb Congruent left error Normal 490.5675
116 146 LeftSmaller PercIBExp1 Prime_9A Target_6A EjeCiGA daKkeBf Congruent right correct Normal 873.7316
116 147 LeftSmaller PercIBExp1 Prime_6A Target_1A bClHEJe hEMgKbC Incongruent right correct Normal 254.9197
116 148 LeftSmaller PercIBExp1 Prime_4N Target_1N DEfCdaL IkEbmHB Congruent right error Normal 279.1998
116 149 LeftSmaller PercIBExp1 Prime_4N Target_1A jMihaIl hBDcMkL Congruent left correct Normal 160.4314
116 150 LeftSmaller PercIBExp1 Prime_6N Target_6A HbCBEfl KajkCgd Congruent right correct Early 72.54664
116 151 LeftSmaller PercIBExp1 Prime_9A Target_9A dFkiKDl FhBHjEg Congruent left error Early 69.57157
116 152 LeftSmaller PercIBExp1 Prime_1A Target_9N CmMElea EkIfiKM Incongruent left correct Early 69.5737
116 153 LeftSmaller PercIBExp1 Prime_1A Target_1N MLCBHFK IbKcLkA Congruent left correct Early 81.0756
116 154 LeftSmaller PercIBExp1 Prime_1N Target_4N hEbGDgi LkjIiCJ Congruent left correct Normal 189.9923
116 155 LeftSmaller PercIBExp1 Prime_9A Target_6N JbFICLl jdkDbFH Congruent right correct Normal 267.2786
116 156 LeftSmaller PercIBExp1 Prime_9A Target_1N AdalJiE hicFHeA Incongruent right correct Normal 334.3265
116 157 LeftSmaller PercIBExp1 Prime_6N Target_6N hLfADiG CiBemJG Congruent right correct Normal 177.4602
116 158 LeftSmaller PercIBExp1 Prime_1A Target_4A dMcLlmF JgGHEhj Congruent left correct Early 35.40828
116 159 LeftSmaller PercIBExp1 Prime_9N Target_9A CiFcHJB Eegljmk Congruent left error Early 2.73691
