sub trial_no group_type block_type prime target mask1 mask2 congruency key_press key_error time_error RT
801 1 LeftLarger PercCAPrac Prime_4N Target_1A kLAKHdF JGAIhlb Congruent right correct Normal 1408.262
801 2 LeftLarger PercCAPrac Prime_9N Target_1N eciMdjL GkafMhC Incongruent left correct Normal 1099.078
801 3 LeftLarger PercCAPrac Prime_1A Target_9N ACIELbB AcEbemk Incongruent left correct Normal 2541.209
801 4 LeftLarger PercCAPrac Prime_4A Target_4A FfADgad GeAiHIB Congruent right correct Normal 1288.71
801 5 LeftLarger PercCAPrac Prime_9A Target_9A dFDhcie hBakJFG Congruent left error Normal 974.1245
801 6 LeftLarger PercCAPrac Prime_1A Target_1A KGIdlEi jGIJEdf Congruent right correct Normal 1044.805
801 7 LeftLarger PercCAPrac Prime_9A Target_1N kdAaKgF jACGJEm Incongruent left correct Normal 1067.596
801 8 LeftLarger PercCAPrac Prime_4N Target_4A HjcJCek FcDgfjk Congruent left error Normal 1546.001
801 9 LeftLarger PercCAPrac Prime_9A Target_4N CGcLKmI DMhliFA Incongruent left correct Normal 992.8412
801 10 LeftLarger PercCAPrac Prime_6N Target_4A JHGDMgl fIaMAKb Incongruent left correct Normal 1427.619
801 11 LeftLarger PercCAPrac Prime_1N Target_1A EGaLBDC hgKdaIc Congruent right correct Normal 1104.823
801 12 LeftLarger PercCAPrac Prime_6N Target_6N KDaJFCf DgihlfA Congruent left error Normal 1632.748
801 13 LeftLarger PercCAPrac Prime_4N Target_6A jhJBlmF HIFgCAh Incongruent left correct Normal 1689.814
801 14 LeftLarger PercCAPrac Prime_4N Target_1N KbAidLB GFCeckg Congruent left error Normal 1373.017
801 15 LeftLarger PercCAPrac Prime_1N Target_4A gGKDjEl kiegGDa Congruent left error Normal 1240.442
801 16 LeftLarger PercCAPrac Prime_6A Target_1A BJFdHLC gjkeMmd Incongruent left correct Normal 930.3758
801 17 LeftLarger PercCAExp1 Prime_6A Target_6A kegEKGa AIkHchl Congruent left error Normal 772.6584
801 18 LeftLarger PercCAExp1 Prime_4A Target_9A lDCKAjH cbkKIBe Incongruent left correct Normal 794.6045
801 19 LeftLarger PercCAExp1 Prime_4N Target_6N bdkMKhG akGhLel Incongruent left correct Normal 1066.482
801 20 LeftLarger PercCAExp1 Prime_4N Target_6A MGHbekg fJDlMCh Incongruent left correct Normal 767.0561
801 21 LeftLarger PercCAExp1 Prime_4A Target_9N gImlBMd MDmAgik Incongruent left correct Normal 633.1264
801 22 LeftLarger PercCAExp1 Prime_4N Target_4N FeaibfJ kbCMFjI Congruent left error Normal 956.5471
801 23 LeftLarger PercCAExp1 Prime_1N Target_4N dAKibjG mChMBHi Congruent left error Normal 802.9516
801 24 LeftLarger PercCAExp1 Prime_9A Target_1A eakLmbF mHcIbed Incongruent left correct Normal 552.2496
801 25 LeftLarger PercCAExp1 Prime_6A Target_9A MDkfKlh bCJEhGM Congruent left error Normal 698.754
801 26 LeftLarger PercCAExp1 Prime_9N Target_6A EgbMAjc jgALifK Congruent left error Normal 903.2303
801 27 LeftLarger PercCAExp1 Prime_9A Target_9N mjIJiEb helaJHF Congruent right correct Normal 957.381
801 28 LeftLarger PercCAExp1 Prime_9A Target_6A ELecImJ DdhAmbF Congruent right correct Normal 685.9592
801 29 LeftLarger PercCAExp1 Prime_6A Target_4N fmbaFkG GjDAHdM Incongruent left correct Normal 747.5739
801 30 LeftLarger PercCAExp1 Prime_6A Target_6N kdbfDCm iAgeChb Congruent right correct Normal 1136.014
801 31 LeftLarger PercCAExp1 Prime_4N Target_9N eaGEJcf iMjECDH Incongruent right error Normal 1625.014
801 32 LeftLarger PercCAExp1 Prime_1N Target_1A ICceBiE bdKifcA Congruent left error Normal 1162.386
801 33 LeftLarger PercCAExp1 Prime_1N Target_4A lckFjgA GMmaHdj Congruent left error Normal 1824.501
801 34 LeftLarger PercCAExp1 Prime_1A Target_9N ejEmHkb iKIAJEH Incongruent left correct Normal 1838.997
801 35 LeftLarger PercCAExp1 Prime_1A Target_1N GdDfJbK mbGiHhk Congruent right correct Normal 1997.576
801 36 LeftLarger PercCAExp1 Prime_4A Target_4N JfmeMcK iFaEfbl Congruent right correct Normal 1403.016
801 37 LeftLarger PercCAExp1 Prime_9N Target_1N gmMfidJ dcKEeJi Incongruent left correct Normal 776.7248
801 38 LeftLarger PercCAExp1 Prime_6A Target_1N gKEfJkF FalhbBH Incongruent left correct Normal 1168.251
801 39 LeftLarger PercCAExp1 Prime_9N Target_4A AaIdeDf eBmMACd Incongruent left correct Normal 994.8847
801 40 LeftLarger PercCAExp1 Prime_1A Target_4N jIGAemL hlBDbiL Congruent right correct Normal 706.8528
801 41 LeftLarger PercCAExp1 Prime_1A Target_1A ghHBEji lhbkaJi Congruent left error Normal 3208.471
801 42 LeftLarger PercCAExp1 Prime_6A Target_1A MaBdGiL KgBbFiM Incongruent left correct Normal 700.0036
801 43 LeftLarger PercCAExp1 Prime_9N Target_9N BikcCjM EBeidFm Congruent left error Normal 1020.771
801 44 LeftLarger PercCAExp1 Prime_4N Target_4A blgeikD dIelEfA Congruent right correct Normal 955.4686
801 45 LeftLarger PercCAExp1 Prime_1N Target_6N GhAEjfH gafiMbJ Incongruent left correct Normal 2237.997
801 46 LeftLarger PercCAExp1 Prime_6N Target_1A IlFfAgH MbAGHEf Incongruent left correct Normal 958.2251
801 47 LeftLarger PercCAExp1 Prime_9A Target_4A IelcdCJ DhcdmiK Incongruent left correct Normal 1076.25
801 48 LeftLarger PercCAExp1 Prime_6N Target_9N kHedgcJ DledCcM Congruent right correct Normal 1065.864
801 49 LeftLarger PercCAExp1 Prime_6N Target_9A fkDiEAH CMjLlEm Congruent right correct Normal 646.508
801 50 LeftLarger PercCAExp1 Prime_4A Target_1N CeIHdEG dGJEDAF Congruent left error Normal 1727.643
801 51 LeftLarger PercCAExp1 Prime_4N Target_9A lKMLGcE dlHIgCi Incongruent left correct Normal 1343.464
801 52 LeftLarger PercCAExp1 Prime_1N Target_1N gFdkfAL CEDhKLd Congruent left error Normal 1037.853
801 53 LeftLarger PercCAExp1 Prime_9N Target_4N BbKdgFD aeAdfcD Incongruent left correct Normal 937.8375
801 54 LeftLarger PercCAExp1 Prime_6N Target_6A cKkHLDI GDkaMei Congruent left error Normal 928.3349
801 55 LeftLarger PercCAExp1 Prime_9A Target_9A acIAHgG BDlALId Congruent left error Normal 677.8148
801 56 LeftLarger PercCAExp1 Prime_4A Target_1A eEBCIbG dkMgCEm Congruent right correct Normal 689.5451
801 57 LeftLarger PercCAExp1 Prime_4N Target_1N aLICHJf LdBiMAm Congruent left error Normal 838.4117
801 58 LeftLarger PercCAExp1 Prime_9A Target_4N hcmEgCk eLFmbAg Incongruent left correct Normal 681.6971
801 59 LeftLarger PercCAExp1 Prime_1N Target_9N DCmMJej EBFIfAe Incongruent left correct Normal 713.2195
801 60 LeftLarger PercCAExp1 Prime_6A Target_4A LlEcJhB emKjFDi Incongruent left correct Normal 581.9293
801 61 LeftLarger PercCAExp1 Prime_4N Target_1A cLFAami cfGFkiC Congruent right correct Normal 646.9637
801 62 LeftLarger PercCAExp1 Prime_1A Target_6A ElAjeia EMCemIa Incongruent left correct Normal 695.255
801 63 LeftLarger PercCAExp1 Prime_6N Target_1N HLJDCMI hlbdfGi Incongruent left correct Normal 1355.266
801 64 LeftLarger PercCAExp1 Prime_4A Target_6N EGcfbek BiEmGKc Incongruent left correct Normal 633.3376
801 65 LeftLarger PercCAExp1 Prime_6N Target_4A HBKafbe GHJDFaM Incongruent left correct Normal 962.1403
801 66 LeftLarger PercCAExp1 Prime_1A Target_4A KFDBfeH LghkAfd Congruent right correct Normal 487.4527
801 67 LeftLarger PercCAExp1 Prime_1N Target_6A EFeKABc IJmKMAk Incongruent left correct Normal 588.4879
801 68 LeftLarger PercCAExp1 Prime_9N Target_6N jiCdkDG dAjCMGe Congruent right correct Normal 1163.966
801 69 LeftLarger PercCAExp1 Prime_4A Target_6A bhCBeFJ MIeCkLK Incongruent left correct Normal 1914.58
801 70 LeftLarger PercCAExp1 Prime_6N Target_6N GCFAgJe jBDEkdM Congruent left error Normal 1036.03
801 71 LeftLarger PercCAExp1 Prime_1A Target_9A dEfjDkF deafGFj Incongruent left correct Normal 518.6569
801 72 LeftLarger PercCAExp1 Prime_9A Target_1N beGdKEJ aJecAlC Incongruent left correct Normal 629.773
801 73 LeftLarger PercCAExp1 Prime_9N Target_1A dcfAihg adgIbKm Incongruent left correct Normal 1177.288
801 74 LeftLarger PercCAExp1 Prime_6N Target_4N cMfKBFG ELdmHfD Incongruent left correct Normal 891.3119
801 75 LeftLarger PercCAExp1 Prime_1N Target_9A CLMbcai JdCHMAL Incongruent left correct Normal 606.0418
801 76 LeftLarger PercCAExp1 Prime_1A Target_6N HBmibFD bikEKld Incongruent left correct Normal 692.2077
801 77 LeftLarger PercCAExp1 Prime_9A Target_6N iICcgbm JDMeHCm Congruent left error Normal 453.5184
801 78 LeftLarger PercCAExp1 Prime_4A Target_4A jKiHhBe GCbfcjF Congruent left error Normal 659.3268
801 79 LeftLarger PercCAExp1 Prime_6A Target_9N AeHGbhj DMeEcAI Congruent right correct Normal 852.8181
801 80 LeftLarger PercCAExp1 Prime_9N Target_9A IGdJBEC dHGKiec Congruent right correct Normal 1217.239
801 81 LeftSmaller PercCBPrac Prime_1N Target_1N IcfDdiC EGHjmLM Congruent left correct Normal 2153.18
801 82 LeftSmaller PercCBPrac Prime_4N Target_1A ElfLmha ceHbliA Congruent left correct Normal 1009.539
801 83 LeftSmaller PercCBPrac Prime_6A Target_9A DBhkjCK cHAkfLj Congruent right error Normal 611.348
801 84 LeftSmaller PercCBPrac Prime_1N Target_9N ijHbLKg EKGhDIc Incongruent right correct Normal 2044.172
801 85 LeftSmaller PercCBPrac Prime_4N Target_9N ihDIeEJ MfHbGkF Incongruent right correct Normal 2229.8
801 86 LeftSmaller PercCBPrac Prime_4N Target_9A AlGJmFL fDMHgGE Incongruent left error Normal 982.1327
801 87 LeftSmaller PercCBPrac Prime_1N Target_6N dDJHjgG faDMkFL Incongruent right correct Normal 2190.13
801 88 LeftSmaller PercCBPrac Prime_1A Target_9N hdIDmjH Alkadbc Incongruent right correct Normal 1349.753
801 89 LeftSmaller PercCBPrac Prime_4A Target_4A MkFAKda ALBFJEH Congruent right error Normal 1564.654
801 90 LeftSmaller PercCBPrac Prime_6N Target_6A hAIfdck IFcCbmD Congruent right error Normal 1416.49
801 91 LeftSmaller PercCBPrac Prime_9N Target_9A KdcBlab AfblHag Congruent left correct Normal 883.9145
801 92 LeftSmaller PercCBPrac Prime_4A Target_1N AmbjHhI HKbiCje Congruent left correct Normal 2303.167
801 93 LeftSmaller PercCBPrac Prime_4A Target_9A kjbaJhD FLhCJca Incongruent right correct Normal 1169.201
801 94 LeftSmaller PercCBPrac Prime_9A Target_9A kmlJcfb JEbcljL Congruent left correct Normal 1882.341
801 95 LeftSmaller PercCBPrac Prime_4A Target_9N dlGmEHh FamHkGM Incongruent right correct Normal 2157.304
801 96 LeftSmaller PercCBPrac Prime_9N Target_6N dFBkMGf ajDIeJi Congruent left correct Normal 3459.853
801 97 LeftSmaller PercCBExp1 Prime_6N Target_9N mcFAagI EkHDmKC Congruent left correct Normal 1751.301
801 98 LeftSmaller PercCBExp1 Prime_1N Target_6A ldfeBAc emlFKDa Incongruent right correct Normal 1737.853
801 99 LeftSmaller PercCBExp1 Prime_9A Target_6A mKjlicF adCAglM Congruent left correct Normal 1549.183
801 100 LeftSmaller PercCBExp1 Prime_9N Target_1A kLgaHAf lKkihfC Incongruent right correct Normal 1487.934
801 101 LeftSmaller PercCBExp1 Prime_4N Target_1A GbmkJMF mCglEAa Congruent right error Normal 1831.139
801 102 LeftSmaller PercCBExp1 Prime_9A Target_1N jCkfKIc GEHBKAm Incongruent left error Normal 1403.429
801 103 LeftSmaller PercCBExp1 Prime_1N Target_4N acEgdBk AClGLmh Congruent right error Normal 1771.056
801 104 LeftSmaller PercCBExp1 Prime_6N Target_4A elgjHaF aEIBgcG Incongruent right correct Normal 2413.772
801 105 LeftSmaller PercCBExp1 Prime_4N Target_1N hHakBMl gMAfJli Congruent left correct Normal 1260.801
801 106 LeftSmaller PercCBExp1 Prime_1A Target_9N hLAbJja hHLjAJd Incongruent right correct Normal 2670.145
801 107 LeftSmaller PercCBExp1 Prime_6N Target_1A bmhleCD EhGBkid Incongruent right correct Normal 1254.336
801 108 LeftSmaller PercCBExp1 Prime_6A Target_9A eDhEjfC KCBMEhi Congruent left correct Normal 928.855
801 109 LeftSmaller PercCBExp1 Prime_6A Target_6N fcEkGIM HEdCDJh Congruent right error Normal 1610.44
801 110 LeftSmaller PercCBExp1 Prime_4A Target_6N IhAldbM icflBbg Incongruent left error Normal 810.1297
801 111 LeftSmaller PercCBExp1 Prime_4N Target_6A fMCkgha hEkCcHe Incongruent right correct Normal 2194.016
801 112 LeftSmaller PercCBExp1 Prime_4A Target_4A dkClAeh CahiklK Congruent left correct Normal 1202.963
801 113 LeftSmaller PercCBExp1 Prime_9N Target_4A IEkjfBi LBaFcDJ Incongruent right correct Normal 1659.78
801 114 LeftSmaller PercCBExp1 Prime_6N Target_1N liajHhG hkFbcgG Incongruent left error Normal 1294.457
801 115 LeftSmaller PercCBExp1 Prime_1N Target_4A mIdEGgf ahDAdfF Congruent right error Normal 1399.756
801 116 LeftSmaller PercCBExp1 Prime_9N Target_6A adLgBHj EaeCMLg Congruent right error Normal 994.2284
801 117 LeftSmaller PercCBExp1 Prime_6A Target_1A bCGEcHa dHLFEKk Incongruent right correct Normal 1162.779
801 118 LeftSmaller PercCBExp1 Prime_9A Target_6N gMEFILC lhfDidA Congruent left correct Normal 843.9432
801 119 LeftSmaller PercCBExp1 Prime_1A Target_6A IjGHhFa lCLDJhA Incongruent right correct Normal 1655.879
801 120 LeftSmaller PercCBExp1 Prime_4N Target_4A gKhbkfL kJiefbL Congruent right error Normal 1343.002
801 121 LeftSmaller PercCBExp1 Prime_9N Target_6N fiJlhML gcjIkCd Congruent right error Normal 1257.931
801 122 LeftSmaller PercCBExp1 Prime_9A Target_9A jAFiHdD GdCMmha Congruent left correct Normal 1298.795
801 123 LeftSmaller PercCBExp1 Prime_6N Target_6N mDCLFfa FAKmiBL Congruent left correct Normal 974.0959
801 124 LeftSmaller PercCBExp1 Prime_4A Target_4N AGCDakJ efkdEml Congruent right error Normal 1695.739
801 125 LeftSmaller PercCBExp1 Prime_9N Target_9A LEGdICA LlKgdfa Congruent left correct Normal 1748.466
801 126 LeftSmaller PercCBExp1 Prime_1A Target_9A EdbigLj iEkIMHd Incongruent right correct Normal 1385.096
801 127 LeftSmaller PercCBExp1 Prime_6A Target_6A BJEibaA GgibIeB Congruent right error Normal 1400.208
801 128 LeftSmaller PercCBExp1 Prime_6A Target_4N GALHiBD bJBkDEF Incongruent right correct Normal 745.027
801 129 LeftSmaller PercCBExp1 Prime_4N Target_9A lAbfGDH ieaGEfI Incongruent right correct Normal 1055.572
801 130 LeftSmaller PercCBExp1 Prime_4N Target_4N HcdDjGB GdlaBLD Congruent right error Normal 962.4521
801 131 LeftSmaller PercCBExp1 Prime_1N Target_1N CKkgMGL mbkKLeI Congruent left correct Normal 1253.953
801 132 LeftSmaller PercCBExp1 Prime_9A Target_9N EBGcljI GJFijml Congruent left correct Normal 957.4746
801 133 LeftSmaller PercCBExp1 Prime_4A Target_9A mldiakE kDFBifm Incongruent right correct Normal 739.911
801 134 LeftSmaller PercCBExp1 Prime_9A Target_1A edmGHAK iLHCAEe Incongruent right correct Normal 832.5839
801 135 LeftSmaller PercCBExp1 Prime_9A Target_4A GbjBfHF mJLMHhf Incongruent right correct Normal 543.0733
801 136 LeftSmaller PercCBExp1 Prime_6N Target_4N mDBEbFf LImMBkb Incongruent right correct Normal 732.1818
801 137 LeftSmaller PercCBExp1 Prime_1A Target_4A GkcBgDE elEckKI Congruent left correct Normal 630.209
801 138 LeftSmaller PercCBExp1 Prime_4N Target_9N LJCKEIh IlfaHJk Incongruent right correct Normal 803.0008
801 139 LeftSmaller PercCBExp1 Prime_1A Target_1A JKMDmLd cAdjDCL Congruent left correct Normal 721.3109
801 140 LeftSmaller PercCBExp1 Prime_4A Target_1A LDceaCi kmFdCjD Congruent left correct Normal 603.8548
801 141 LeftSmaller PercCBExp1 Prime_1N Target_6N cbdMlHD BafjiHe Incongruent right correct Normal 541.9144
801 142 LeftSmaller PercCBExp1 Prime_4N Target_6N eGkBFaE cJgblaG Incongruent right correct Normal 822.945
801 143 LeftSmaller PercCBExp1 Prime_6A Target_9N FBhdmaH EFfKMIa Congruent right error Normal 639.9871
801 144 LeftSmaller PercCBExp1 Prime_1N Target_9A kDMFIKH JGhMKjF Incongruent left error Normal 1659.708
801 145 LeftSmaller PercCBExp1 Prime_1A Target_1N FdflDeh DAdmFHI Congruent right error Normal 1276.344
801 146 LeftSmaller PercCBExp1 Prime_1N Target_9N BLKdFAe keCIBdg Incongruent right correct Normal 761.3874
801 147 LeftSmaller PercCBExp1 Prime_4A Target_9N mHEabeB GdBCghe Incongruent right correct Normal 805.2076
801 148 LeftSmaller PercCBExp1 Prime_1A Target_4N LhKIikA ChlEjek Congruent left correct Normal 466.2407
801 149 LeftSmaller PercCBExp1 Prime_9N Target_4N gFJcCLk FiEbCMj Incongruent right correct Normal 899.0112
801 150 LeftSmaller PercCBExp1 Prime_9N Target_9N KjmBLcb MmlbhFK Congruent right error Normal 1105.843
801 151 LeftSmaller PercCBExp1 Prime_6A Target_1N dAmJMDc LkKMgcI Incongruent right correct Normal 1269.743
801 152 LeftSmaller PercCBExp1 Prime_1N Target_1A HGBbAhM MlgEeda Congruent right error Normal 1080.077
801 153 LeftSmaller PercCBExp1 Prime_6N Target_6A hGdKEci hGeKkbj Congruent right error Normal 1089.954
801 154 LeftSmaller PercCBExp1 Prime_1A Target_6N CHDmeBi JkHhbFg Incongruent right correct Normal 948.9689
801 155 LeftSmaller PercCBExp1 Prime_9A Target_4N GLJjiAM miDflKH Incongruent right correct Normal 636.7394
801 156 LeftSmaller PercCBExp1 Prime_9N Target_1N AFGekmj BfDjGmL Incongruent right correct Normal 944.5263
801 157 LeftSmaller PercCBExp1 Prime_6A Target_4A lcIDJfE FbgiHhB Incongruent right correct Normal 609.0767
801 158 LeftSmaller PercCBExp1 Prime_4A Target_1N MgkfKCm LFfmeil Congruent left correct Normal 935.3462
801 159 LeftSmaller PercCBExp1 Prime_6N Target_9A BLCFfHM kDaicEf Congruent left correct Normal 761.2886
801 160 LeftSmaller PercCBExp1 Prime_4A Target_6A hdgLkej AaCDIEb Incongruent right correct Normal 709.6048
803 1 LeftSmaller PercCAPrac Prime_4A Target_9A DekgFcd kHdMhBG Incongruent right correct Normal 525.5111
803 2 LeftSmaller PercCAPrac Prime_9A Target_9A igAlckH iEaIdKA Congruent right error Normal 416.5097
803 3 LeftSmaller PercCAPrac Prime_6N Target_6A HclikdC MGaILel Congruent left correct Normal 368.2369
803 4 LeftSmaller PercCAPrac Prime_4A Target_1A maLBKEb lbACHei Congruent left correct Normal 364.3274
803 5 LeftSmaller PercCAPrac Prime_4A Target_1N LaFKgml LCcdfJG Congruent right error Normal 453.9999
803 6 LeftSmaller PercCAPrac Prime_1A Target_9A FKckhdI lcKLIad Incongruent left error Normal 357.9326
803 7 LeftSmaller PercCAPrac Prime_4N Target_6A dlmfFGa acjICFl Incongruent left error Normal 536.5893
803 8 LeftSmaller PercCAPrac Prime_4A Target_4A mdJcBhF kHjEbid Congruent right error Normal 551.7389
803 9 LeftSmaller PercCAPrac Prime_4N Target_4A BGmCLeh JcGkFMl Congruent right error Normal 569.3882
803 10 LeftSmaller PercCAPrac Prime_1N Target_6A HILlgib mKCjIGB Incongruent left error Normal 467.9717
803 11 LeftSmaller PercCAPrac Prime_1N Target_4A dhlbjaL KlEagme Congruent left correct Normal 502.2693
803 12 LeftSmaller PercCAPrac Prime_9N Target_4A AbkEjcF mBbJDHe Incongruent right correct Normal 368.2717
803 13 LeftSmaller PercCAPrac Prime_9N Target_1A ckBAGla HKFjLgM Incongruent right correct Normal 644.2207
803 14 LeftSmaller PercCAPrac Prime_9N Target_6A gakKjGB fIJHbkj Congruent right error Normal 408.6978
803 15 LeftSmaller PercCAPrac Prime_1A Target_1A mBDGMFK KAkcJIj Congruent left correct Normal 379.6192
803 16 LeftSmaller PercCAPrac Prime_9A Target_6N miKELea bfGjmic Congruent left correct Normal 499.4341
803 17 LeftSmaller PercCAExp1 Prime_6N Target_4A AEHlIiF LiDAfCd Incongruent right correct Normal 881.3147
803 18 LeftSmaller PercCAExp1 Prime_1N Target_1A KehIaBg FmBbfgh Congruent left correct Normal 519.5494
803 19 LeftSmaller PercCAExp1 Prime_4A Target_9A mkiFghL KIBemMi Incongruent left error Normal 645.9011
803 20 LeftSmaller PercCAExp1 Prime_9A Target_6N BGCFadJ DlBaebE Congruent right error Normal 429.2298
803 21 LeftSmaller PercCAExp1 Prime_9A Target_4N abFciGA AdcKDil Incongruent right correct Normal 517.3699
803 22 LeftSmaller PercCAExp1 Prime_6N Target_6A bjCKfGa FaMmIBj Congruent right error Normal 486.411
803 23 LeftSmaller PercCAExp1 Prime_6N Target_4N BgfmbkC mfHCBdc Incongruent left error Normal 492.8244
803 24 LeftSmaller PercCAExp1 Prime_4A Target_9N mMkCDIh dfCDjke Incongruent right correct Normal 581.1121
803 25 LeftSmaller PercCAExp1 Prime_6A Target_6A ghHdCBi jbGJFal Congruent right error Normal 493.5181
803 26 LeftSmaller PercCAExp1 Prime_6N Target_1A lDGmaeF hdlFDBJ Incongruent left error Normal 436.9634
803 27 LeftSmaller PercCAExp1 Prime_4N Target_1A EmMDhBg jamIEFi Congruent left correct Normal 612.2571
803 28 LeftSmaller PercCAExp1 Prime_1N Target_4N IFGKijf daKJDjG Congruent left correct Normal 652.5632
803 29 LeftSmaller PercCAExp1 Prime_9A Target_6A ehcfiEG ICBDcgf Congruent right error Normal 525.4551
803 30 LeftSmaller PercCAExp1 Prime_9N Target_1N DgdAFiB mhKBiGA Incongruent left error Normal 571.369
803 31 LeftSmaller PercCAExp1 Prime_1N Target_4A bCJkKjG fCjMgcL Congruent left correct Normal 509.7467
803 32 LeftSmaller PercCAExp1 Prime_1A Target_4A GKAjich FiagBle Congruent left correct Normal 595.2383
803 33 LeftSmaller PercCAExp1 Prime_1A Target_6N fKGBhlb jhDBCJc Incongruent right correct Normal 575.815
803 34 LeftSmaller PercCAExp1 Prime_9N Target_6N kGajedJ JfKkFLE Congruent right error Normal 722.6685
803 35 LeftSmaller PercCAExp1 Prime_9A Target_4A HgAihdJ aMFdKfL Incongruent left error Normal 625.9656
803 36 LeftSmaller PercCAExp1 Prime_9N Target_9N GmdMflj ceiMJHb Congruent right error Normal 559.5318
803 37 LeftSmaller PercCAExp1 Prime_9A Target_1N JhIiBCE fbEGFdj Incongruent left error Normal 596.3042
803 38 LeftSmaller PercCAExp1 Prime_4A Target_1N edJAlMH KiblLFm Congruent left correct Normal 836.471
803 39 LeftSmaller PercCAExp1 Prime_6N Target_9N cJdkAKG gLehlFB Congruent left correct Normal 1064.784
803 40 LeftSmaller PercCAExp1 Prime_4N Target_9N egidkFE DMEHcfh Incongruent right correct Normal 1139.674
803 41 LeftSmaller PercCAExp1 Prime_1N Target_6N eLcEKah kDebflj Incongruent left error Normal 610.6402
803 42 LeftSmaller PercCAExp1 Prime_9A Target_1A MlCjHhF bdcjaEA Incongruent left error Normal 632.0467
803 43 LeftSmaller PercCAExp1 Prime_4N Target_6N idafmJB eMKdghE Incongruent left error Normal 757.6496
803 44 LeftSmaller PercCAExp1 Prime_6N Target_6N aGkElFM FaKedDh Congruent right error Normal 827.6366
803 45 LeftSmaller PercCAExp1 Prime_4A Target_4A lBDmMjg HJEdbmD Congruent left correct Normal 772.4288
803 46 LeftSmaller PercCAExp1 Prime_4N Target_6A egEClkc eakECHG Incongruent left error Normal 716.325
803 47 LeftSmaller PercCAExp1 Prime_4N Target_4N FGDBJeC IAEBcbD Congruent right error Normal 493.4371
803 48 LeftSmaller PercCAExp1 Prime_1A Target_6A KGMaLlm LiCKIMJ Incongruent left error Normal 619.6681
803 49 LeftSmaller PercCAExp1 Prime_6N Target_1N EHBkdDg JImhLBA Incongruent left error Normal 619.9733
803 50 LeftSmaller PercCAExp1 Prime_6A Target_1N ihJjeDa mdfABLa Incongruent left error Normal 556.2885
803 51 LeftSmaller PercCAExp1 Prime_4N Target_4A hFLGAaI BDFmKLh Congruent right error Normal 725.811
803 52 LeftSmaller PercCAExp1 Prime_1A Target_4N CabAjDg KAcGjEC Congruent left correct Normal 607.9943
803 53 LeftSmaller PercCAExp1 Prime_9N Target_9A LJKehfi ehALlcK Congruent right error Normal 579.5312
803 54 LeftSmaller PercCAExp1 Prime_4A Target_6A McDfdGJ aMieBbK Incongruent right correct Normal 704.8016
803 55 LeftSmaller PercCAExp1 Prime_1A Target_9N AaFeJdk lJLAHhe Incongruent right correct Normal 956.8918
803 56 LeftSmaller PercCAExp1 Prime_4A Target_6N AfdCchg IaMBJDd Incongruent left error Normal 480.7919
803 57 LeftSmaller PercCAExp1 Prime_6A Target_4A KiGLhjD fcHKejb Incongruent right correct Normal 602.9757
803 58 LeftSmaller PercCAExp1 Prime_1N Target_6A BIlmkfg iecCMGB Incongruent left error Normal 587.6142
803 59 LeftSmaller PercCAExp1 Prime_1N Target_9N BeAMgEH hFGClkm Incongruent right correct Normal 572.7899
803 60 LeftSmaller PercCAExp1 Prime_4A Target_4N EJhmiIk kBgHGle Congruent left correct Normal 513.4786
803 61 LeftSmaller PercCAExp1 Prime_9A Target_9N fhEFKdC HflDLgG Congruent right error Normal 531.0475
803 62 LeftSmaller PercCAExp1 Prime_6A Target_9A DHfeIgi kFfMjHc Congruent right error Normal 538.1499
803 63 LeftSmaller PercCAExp1 Prime_1A Target_1N MecgAKB FeIjcAf Congruent right error Normal 542.4176
803 64 LeftSmaller PercCAExp1 Prime_1A Target_9A AEIMkJf bGkglhK Incongruent right correct Normal 676.153
803 65 LeftSmaller PercCAExp1 Prime_4N Target_9A Bjhdlbi jBacmbI Incongruent right correct Normal 644.2693
803 66 LeftSmaller PercCAExp1 Prime_9N Target_4N mMhJkcA cgMmAIl Incongruent left error Normal 573.4583
803 67 LeftSmaller PercCAExp1 Prime_4A Target_1A AilkCKd kLjIGEl Congruent left correct Normal 707.0551
803 68 LeftSmaller PercCAExp1 Prime_9A Target_9A jLfaibJ mfCkdHa Congruent right error Normal 465.4231
803 69 LeftSmaller PercCAExp1 Prime_6N Target_9A LchDlFC cJBFMHG Congruent right error Normal 560.5808
803 70 LeftSmaller PercCAExp1 Prime_9N Target_6A KMCGmal CJigmBa Congruent left correct Normal 558.2717
803 71 LeftSmaller PercCAExp1 Prime_4N Target_1N KhdCJFG AgjdaEC Congruent left correct Normal 599.8991
803 72 LeftSmaller PercCAExp1 Prime_1N Target_9A bdJmMaL CkhbDEF Incongruent left error Normal 861.9933
803 73 LeftSmaller PercCAExp1 Prime_9N Target_1A ImLbMAg AecaIFM Incongruent right correct Normal 684.1738
803 74 LeftSmaller PercCAExp1 Prime_9N Target_4A ibJkjBC CcakGmf Incongruent left error Normal 506.4012
803 75 LeftSmaller PercCAExp1 Prime_6A Target_4N eiDMJdb McFCEaI Incongruent right correct Normal 660.1377
803 76 LeftSmaller PercCAExp1 Prime_1A Target_1A DcCdlAM hiCaMdg Congruent left correct Normal 655.5332
803 77 LeftSmaller PercCAExp1 Prime_6A Target_6N JFEBbHd LiDfIGB Congruent right error Normal 752.4736
803 78 LeftSmaller PercCAExp1 Prime_6A Target_9N BlkiMdg HIcmLdb Congruent left correct Normal 780.5135
803 79 LeftSmaller PercCAExp1 Prime_6A Target_1A fmHjKAl GgHmAeI Incongruent left error Normal 708.2683
803 80 LeftSmaller PercCAExp1 Prime_1N Target_1N lHBCFKb fAeIlac Congruent left correct Normal 823.3405
803 81 LeftLarger PercCBPrac Prime_6A Target_9N blcGkAF hLFiAeK Congruent right correct Normal 737.0576
803 82 LeftLarger PercCBPrac Prime_9A Target_1A FeLmEld lKbCdJf Incongruent left correct Normal 1080.95
803 83 LeftLarger PercCBPrac Prime_9N Target_9N FjIaEBb dbaBFgH Congruent right correct Normal 1032.271
803 84 LeftLarger PercCBPrac Prime_1A Target_9N lGKCEIm gabAiDJ Incongruent left correct Normal 768.3123
803 85 LeftLarger PercCBPrac Prime_9A Target_6A AiKlEGg HfmEhlB Congruent right correct Normal 594.7552
803 86 LeftLarger PercCBPrac Prime_1N Target_4N hGBCbej meFMDEg Congruent left error Normal 788.4817
803 87 LeftLarger PercCBPrac Prime_6A Target_4A HgAKDEk cLbKmhI Incongruent right error Normal 856.4747
803 88 LeftLarger PercCBPrac Prime_9N Target_6A flajCMH DcbCHma Congruent right correct Normal 703.3868
803 89 LeftLarger PercCBPrac Prime_1A Target_1N mlBGCJI liFKAdc Congruent left error Normal 577.6718
803 90 LeftLarger PercCBPrac Prime_6N Target_9A mIEDFkb dmCebLF Congruent right correct Normal 502.9855
803 91 LeftLarger PercCBPrac Prime_9A Target_1N khLfMIA bjAMKel Incongruent left correct Normal 560.4867
803 92 LeftLarger PercCBPrac Prime_6A Target_4N eKLEidA gcfBkGA Incongruent right error Normal 504.9229
803 93 LeftLarger PercCBPrac Prime_4N Target_9A EjDkCIK kGbgeDh Incongruent left correct Normal 777.0729
803 94 LeftLarger PercCBPrac Prime_1N Target_9A miLHlAa jlJLDKB Incongruent left correct Normal 510.7679
803 95 LeftLarger PercCBPrac Prime_4N Target_1N LklHeFb FHAciDe Congruent right correct Normal 762.425
803 96 LeftLarger PercCBPrac Prime_6A Target_6N bdaGiHf DkKcdHI Congruent right correct Normal 797.3259
803 97 LeftLarger PercCBExp1 Prime_9N Target_9N HdDbIGe fHgJEKm Congruent right correct Normal 722.7553
803 98 LeftLarger PercCBExp1 Prime_9A Target_4A ebEBHGj GBhHgAe Incongruent left correct Normal 646.5722
803 99 LeftLarger PercCBExp1 Prime_9A Target_9N kdgDheF GCjDbki Congruent left error Normal 762.1079
803 100 LeftLarger PercCBExp1 Prime_1A Target_9A MFCEBal CEaLcDe Incongruent left correct Normal 606.5924
803 101 LeftLarger PercCBExp1 Prime_9N Target_1N FKeELjA BjJHiKM Incongruent left correct Normal 782.5645
803 102 LeftLarger PercCBExp1 Prime_6A Target_9N eLAEdJk cDBCeFH Congruent right correct Normal 430.3819
803 103 LeftLarger PercCBExp1 Prime_9A Target_4N kbKIaMH EjAJkIa Incongruent left correct Normal 697.1054
803 104 LeftLarger PercCBExp1 Prime_1N Target_4A CcijHlD gfekmCc Congruent right correct Normal 505.8415
803 105 LeftLarger PercCBExp1 Prime_4A Target_1A EDJkLea MfbBdDk Congruent right correct Normal 518.4709
803 106 LeftLarger PercCBExp1 Prime_4A Target_9N GecCkjl lAhcDMg Incongruent left correct Normal 545.5475
803 107 LeftLarger PercCBExp1 Prime_9A Target_9A ijDfade MaLJDgB Congruent left error Normal 510.3404
803 108 LeftLarger PercCBExp1 Prime_4N Target_1N KkebDHM cGkLFib Congruent left error Normal 944.3749
803 109 LeftLarger PercCBExp1 Prime_1N Target_1A aKgjLDI fChHcJa Congruent left error Normal 610.2472
803 110 LeftLarger PercCBExp1 Prime_1A Target_4N LgHjCcA chFfmeJ Congruent right correct Normal 422.5294
803 111 LeftLarger PercCBExp1 Prime_1N Target_1N CDlbLMG fhgDaFc Congruent right correct Normal 446.1162
803 112 LeftLarger PercCBExp1 Prime_6N Target_9A iemKBGA hiEIMHB Congruent left error Normal 465.1846
803 113 LeftLarger PercCBExp1 Prime_9N Target_9A LIGHkJC MeiIDmj Congruent right correct Normal 569.1116
803 114 LeftLarger PercCBExp1 Prime_4A Target_6A cmAJhIb eMaAcgl Incongruent right error Normal 641.7551
803 115 LeftLarger PercCBExp1 Prime_4N Target_4N aDIkcbE dDaKLcH Congruent right correct Normal 646.538
803 116 LeftLarger PercCBExp1 Prime_9A Target_6A kJHEiDm HaLFAgc Congruent left error Normal 443.3744
803 117 LeftLarger PercCBExp1 Prime_1A Target_6A FKDEJcA LcmABJE Incongruent left correct Normal 589.5747
803 118 LeftLarger PercCBExp1 Prime_6A Target_4N agmjFEB LjibeAJ Incongruent right error Normal 621.3185
803 119 LeftLarger PercCBExp1 Prime_1A Target_1A LiCDAed MBmJefl Congruent left error Normal 557.348
803 120 LeftLarger PercCBExp1 Prime_6A Target_6A lbfdMcF idDbkjc Congruent left error Normal 861.2486
803 121 LeftLarger PercCBExp1 Prime_6N Target_6N BMbmdiE cBiFEgm Congruent right correct Normal 644.6752
803 122 LeftLarger PercCBExp1 Prime_9N Target_4N DAaijec gJLADMj Incongruent left correct Normal 664.8436
803 123 LeftLarger PercCBExp1 Prime_4A Target_4A JDdbFEM KhfHbla Congruent left error Normal 657.5172
803 124 LeftLarger PercCBExp1 Prime_4N Target_6N GMCicEd gadiJfG Incongruent left correct Normal 608.3314
803 125 LeftLarger PercCBExp1 Prime_6A Target_6N lMhADKC mjaICgf Congruent left error Normal 607.1767
803 126 LeftLarger PercCBExp1 Prime_6N Target_9N JckAIiF GEhjdDI Congruent right correct Normal 529.7617
803 127 LeftLarger PercCBExp1 Prime_4A Target_6N KhBiFkg cebEKiB Incongruent left correct Normal 487.8223
803 128 LeftLarger PercCBExp1 Prime_9A Target_1A gkImbla MmaGbEI Incongruent left correct Normal 740.8661
803 129 LeftLarger PercCBExp1 Prime_6N Target_4N ebBIHgf lLIejBK Incongruent left correct Normal 726.7471
803 130 LeftLarger PercCBExp1 Prime_4N Target_1A cMiKGFB HcDEIGj Congruent left error Normal 659.1935
803 131 LeftLarger PercCBExp1 Prime_6A Target_4A eKHbCdi cIJBgeA Incongruent right error Normal 599.729
803 132 LeftLarger PercCBExp1 Prime_6N Target_1N gFkAiIb Fechilk Incongruent left correct Normal 640.1746
803 133 LeftLarger PercCBExp1 Prime_4N Target_6A LDBgmiF jaIiFbe Incongruent right error Normal 632.9471
803 134 LeftLarger PercCBExp1 Prime_1N Target_6A BgKCdic MjHbdma Incongruent right error Normal 1088.367
803 135 LeftLarger PercCBExp1 Prime_9N Target_6N CjiJEle IcehjBC Congruent right correct Normal 851.3043
803 136 LeftLarger PercCBExp1 Prime_9A Target_6N KMHbgDf ImhbgMa Congruent right correct Normal 705.175
803 137 LeftLarger PercCBExp1 Prime_9N Target_4A HALiblm iklLACf Incongruent left correct Normal 747.1493
803 138 LeftLarger PercCBExp1 Prime_9N Target_6A AJjleKB kfMjEem Congruent right correct Normal 857.6674
803 139 LeftLarger PercCBExp1 Prime_4N Target_9A eifbLhE BlgGFdb Incongruent right error Normal 927.4844
803 140 LeftLarger PercCBExp1 Prime_1A Target_1N HlkbMBK cdKmkFL Congruent left error Normal 1020.061
803 141 LeftLarger PercCBExp1 Prime_6A Target_9A JlELfmh gmJbCGj Congruent left error Normal 989.694
803 142 LeftLarger PercCBExp1 Prime_6A Target_1N fkiEBmg cmCEhFa Incongruent right error Normal 1109.752
803 143 LeftLarger PercCBExp1 Prime_4N Target_9N AIHJMiC dCeDibc Incongruent left correct Normal 818.6911
803 144 LeftLarger PercCBExp1 Prime_4A Target_1N DBKCEmA FCLeGjm Congruent left error Normal 783.1022
803 145 LeftLarger PercCBExp1 Prime_4N Target_4A ClLdebm lmEMfHK Congruent right correct Normal 885.2308
803 146 LeftLarger PercCBExp1 Prime_1N Target_9N HGidIBc GDeLafH Incongruent right error Normal 935.8517
803 147 LeftLarger PercCBExp1 Prime_6A Target_1A kGJhbEH mkjJdiB Incongruent left correct Normal 561.0106
803 148 LeftLarger PercCBExp1 Prime_1N Target_9A EIgaebH DkdamJM Incongruent left correct Normal 667.672
803 149 LeftLarger PercCBExp1 Prime_4A Target_4N mEhbjLF gJkhCHL Congruent right correct Normal 568.1005
803 150 LeftLarger PercCBExp1 Prime_4A Target_9A mDMAkaK hDBLmIJ Incongruent right error Normal 640.1526
803 151 LeftLarger PercCBExp1 Prime_1A Target_6N hcKfILF DbGFiHf Incongruent right error Normal 725.6761
803 152 LeftLarger PercCBExp1 Prime_1A Target_9N MbmeAhc felDEAL Incongruent right error Normal 676.206
803 153 LeftLarger PercCBExp1 Prime_6N Target_4A KDLicmF fLjbkeI Incongruent left correct Normal 441.5324
803 154 LeftLarger PercCBExp1 Prime_9A Target_1N FcifBgK IaJFeBD Incongruent left correct Normal 612.0663
803 155 LeftLarger PercCBExp1 Prime_1N Target_4N heFdflj aMBbicC Congruent left error Normal 687.8209
803 156 LeftLarger PercCBExp1 Prime_1A Target_4A IAimCdD BalEHig Congruent left error Normal 569.6219
803 157 LeftLarger PercCBExp1 Prime_6N Target_6A CkbEgBF jIlmKbJ Congruent right correct Normal 482.8251
803 158 LeftLarger PercCBExp1 Prime_1N Target_6N cimAJCF KjFAidG Incongruent right error Normal 541.2758
803 159 LeftLarger PercCBExp1 Prime_9N Target_1A kLhlEgB jFGmiel Incongruent left correct Normal 511.9174
803 160 LeftLarger PercCBExp1 Prime_6N Target_1A FHMLCBc JKclIDB Incongruent left correct Normal 499.9593
804 1 LeftLarger PercCAPrac Prime_4A Target_6A lcegGKD cdCiAJh Incongruent left correct Normal 1291.375
804 2 LeftLarger PercCAPrac Prime_6A Target_1A ecHaFjI MBJmdkE Incongruent left correct Normal 1531.53
804 3 LeftLarger PercCAPrac Prime_1A Target_9N ifFamKe mIfidbg Incongruent right error Normal 1193.247
804 4 LeftLarger PercCAPrac Prime_6A Target_4A BjcJbGd ClFHDKM Incongruent left correct Normal 2032.802
804 5 LeftLarger PercCAPrac Prime_9N Target_4N fjMCeLg EDJbkAG Incongruent right error Normal 2247.452
804 6 LeftLarger PercCAPrac Prime_4N Target_6N EGhiHMc DEhAlHj Incongruent right error Normal 1679.306
804 7 LeftLarger PercCAPrac Prime_4A Target_1A BAhmgdf MaJdeFc Congruent left error Normal 1134.738
804 8 LeftLarger PercCAPrac Prime_9A Target_6N LmMDkIb acEGAkC Congruent left error Normal 1155.18
804 9 LeftLarger PercCAPrac Prime_6N Target_6N FElAaHJ BeKbLim Congruent right correct Normal 1119.746
804 10 LeftLarger PercCAPrac Prime_6A Target_6N MAdglJh LfAeEai Congruent right correct Normal 1545.655
804 11 LeftLarger PercCAPrac Prime_4N Target_6A kjHaLlM KAIjEMD Incongruent left correct Normal 1223.239
804 12 LeftLarger PercCAPrac Prime_4N Target_4N GfhIbLD CLbEhMk Congruent left error Normal 1874.301
804 13 LeftLarger PercCAPrac Prime_9N Target_6N mBMgcJG lMEIDkL Congruent right correct Normal 1001.356
804 14 LeftLarger PercCAPrac Prime_4A Target_6N iJlgdAb caEmbAl Incongruent left correct Normal 1649.77
804 15 LeftLarger PercCAPrac Prime_6A Target_9N iLdJGma jdKCbJL Congruent right correct Normal 1343.962
804 16 LeftLarger PercCAPrac Prime_6N Target_9A bILjkgd ALjBkaJ Congruent right correct Normal 1181.3
804 17 LeftLarger PercCAExp1 Prime_6N Target_4N jaFgHMf algKEFj Incongruent left correct Normal 846.9509
804 18 LeftLarger PercCAExp1 Prime_4N Target_1A GDBgemd kFCeLIi Congruent left error Normal 753.9876
804 19 LeftLarger PercCAExp1 Prime_9A Target_6N FCgHDkd dAebfLG Congruent right correct Normal 1226.916
804 20 LeftLarger PercCAExp1 Prime_9N Target_9A fAdGhjb fIhaCkg Congruent right correct Normal 787.4868
804 21 LeftLarger PercCAExp1 Prime_4A Target_1N KmLhFHC mKJbiaA Congruent left error Normal 841.8716
804 22 LeftLarger PercCAExp1 Prime_4N Target_9A GfgdIeJ beILfEM Incongruent right error Normal 1185.692
804 23 LeftLarger PercCAExp1 Prime_4A Target_9A HiJMEFI AKfHgIc Incongruent left correct Normal 832.2486
804 24 LeftLarger PercCAExp1 Prime_6N Target_6N EdAjMbD gJFkCfI Congruent right correct Normal 800.1594
804 25 LeftLarger PercCAExp1 Prime_9N Target_9N lmDIjFJ gAdbKMe Congruent right correct Normal 1015.981
804 26 LeftLarger PercCAExp1 Prime_4A Target_6A EdcGHfk JcFbGfg Incongruent left correct Normal 1464.381
804 27 LeftLarger PercCAExp1 Prime_4A Target_1A KLemibf iCJEGDh Congruent left error Normal 1186.386
804 28 LeftLarger PercCAExp1 Prime_4A Target_4N kGjhfCA iAIDCMF Congruent right correct Normal 2718.667
804 29 LeftLarger PercCAExp1 Prime_4N Target_9N GgAbLfJ bdGKCIL Incongruent right error Normal 2465.024
804 30 LeftLarger PercCAExp1 Prime_6N Target_4A AligdmJ ecJIfdK Incongruent left correct Normal 762.664
804 31 LeftLarger PercCAExp1 Prime_9N Target_1N mgAJBKl BGmEJkc Incongruent left correct Normal 2973.531
804 32 LeftLarger PercCAExp1 Prime_1A Target_6N hkEmaAj JbmkKIh Incongruent left correct Normal 1336.793
804 33 LeftLarger PercCAExp1 Prime_1A Target_1A eaADBhj HfLdkaJ Congruent right correct Normal 1536.413
804 34 LeftLarger PercCAExp1 Prime_1A Target_4N bGJjAFH DMfFAhC Congruent right correct Normal 1436.768
804 35 LeftLarger PercCAExp1 Prime_9A Target_6A diEJAbI BJdLcGD Congruent left error Normal 1884.96
804 36 LeftLarger PercCAExp1 Prime_6A Target_4N hbCHFif JBfhGcg Incongruent left correct Normal 1505.639
804 37 LeftLarger PercCAExp1 Prime_6A Target_9A gicKbfC DEajkLB Congruent right correct Normal 713.6325
804 38 LeftLarger PercCAExp1 Prime_1A Target_9A cjCFhMB jIglHAe Incongruent left correct Normal 882.7623
804 39 LeftLarger PercCAExp1 Prime_4N Target_6N laCghHd KcbeaBH Incongruent right error Normal 1534.808
804 40 LeftLarger PercCAExp1 Prime_9A Target_4N cBKkJfM lkBDGiE Incongruent left correct Normal 1895.977
804 41 LeftLarger PercCAExp1 Prime_9N Target_6N aKJMLFh dbgEifh Congruent right correct Normal 1299.687
804 42 LeftLarger PercCAExp1 Prime_1N Target_1A mEKaMeD JiafhKL Congruent left error Normal 1205.627
804 43 LeftLarger PercCAExp1 Prime_1A Target_9N lMfbGAh HfMbjGF Incongruent right error Normal 1991.371
804 44 LeftLarger PercCAExp1 Prime_1N Target_9A EeKglik kegBiHI Incongruent right error Normal 1046.725
804 45 LeftLarger PercCAExp1 Prime_4A Target_4A emdHial cCEHmMh Congruent right correct Normal 1196.529
804 46 LeftLarger PercCAExp1 Prime_4A Target_9N GEBjelb lDCeGFa Incongruent right error Normal 2124.829
804 47 LeftLarger PercCAExp1 Prime_6A Target_1N hAjkceb iemLBlI Incongruent left correct Normal 1233.255
804 48 LeftLarger PercCAExp1 Prime_1N Target_6N bFjLfia dgIlhem Incongruent left correct Normal 1571.664
804 49 LeftLarger PercCAExp1 Prime_6N Target_1N ADKljJB KBmkElc Incongruent right error Normal 2213.881
804 50 LeftLarger PercCAExp1 Prime_9A Target_1N iIGaELd fFiELcC Incongruent left correct Normal 1451.364
804 51 LeftLarger PercCAExp1 Prime_6A Target_9N FAmgeGJ eikBgMF Congruent right correct Normal 1458.17
804 52 LeftLarger PercCAExp1 Prime_6N Target_1A gDImEaG iJcgLKj Incongruent left correct Normal 1844.096
804 53 LeftLarger PercCAExp1 Prime_6A Target_6N hGjLKfi jceCIiL Congruent right correct Normal 1499.475
804 54 LeftLarger PercCAExp1 Prime_6A Target_6A bCkMlBj bakEgGf Congruent left error Normal 988.2351
804 55 LeftLarger PercCAExp1 Prime_1N Target_4A bCKEHGL gihdIjL Congruent left error Normal 1495.529
804 56 LeftLarger PercCAExp1 Prime_6A Target_1A efkaDmC jBCglkH Incongruent left correct Normal 1135.725
804 57 LeftLarger PercCAExp1 Prime_4N Target_4A clKmChH dDagMIc Congruent right correct Normal 890.9777
804 58 LeftLarger PercCAExp1 Prime_4N Target_6A JFGBfMb lcbDMfm Incongruent left correct Normal 1319.493
804 59 LeftLarger PercCAExp1 Prime_1N Target_4N LaBGhCE deLHgJc Congruent right correct Normal 1524.61
804 60 LeftLarger PercCAExp1 Prime_1N Target_1N kBHLGhe KDjAkIc Congruent left error Normal 2409.71
804 61 LeftLarger PercCAExp1 Prime_9A Target_1A EJGjDdK FlmJdKL Incongruent left correct Normal 1380.976
804 62 LeftLarger PercCAExp1 Prime_9N Target_6A keLBjmb HDCIjAM Congruent right correct Normal 1756.258
804 63 LeftLarger PercCAExp1 Prime_9N Target_4N abCDdge GdkCKJH Incongruent left correct Normal 2812
804 64 LeftLarger PercCAExp1 Prime_4N Target_1N HJLGAEi BKFEAck Congruent left error Normal 1648.628
804 65 LeftLarger PercCAExp1 Prime_1A Target_4A fJiCLbA jekGdmf Congruent left error Normal 1638.266
804 66 LeftLarger PercCAExp1 Prime_1N Target_9N blJAjFE gCkDHKi Incongruent left correct Normal 1327.72
804 67 LeftLarger PercCAExp1 Prime_4N Target_4N HkIDaKd DkahMbm Congruent right correct Normal 1955.754
804 68 LeftLarger PercCAExp1 Prime_9N Target_1A KaJjcCl JLlaIhf Incongruent left correct Normal 1271.42
804 69 LeftLarger PercCAExp1 Prime_6N Target_6A ciebKaL JaDiAhe Congruent right correct Normal 1355.39
804 70 LeftLarger PercCAExp1 Prime_9A Target_9N efdFEbD gijKbmG Congruent right correct Normal 1207.272
804 71 LeftLarger PercCAExp1 Prime_9A Target_9A DKIkChG cbdECmf Congruent right correct Normal 1189.004
804 72 LeftLarger PercCAExp1 Prime_6N Target_9A iEALhgd BfCFaJb Congruent right correct Normal 981.8169
804 73 LeftLarger PercCAExp1 Prime_6A Target_4A BhkiICa BFEbGfe Incongruent left correct Normal 1325.47
804 74 LeftLarger PercCAExp1 Prime_1A Target_6A Ldmjakb bhFlAce Incongruent left correct Normal 1221.815
804 75 LeftLarger PercCAExp1 Prime_9A Target_4A emDicfB bGDeLHl Incongruent left correct Normal 1167.968
804 76 LeftLarger PercCAExp1 Prime_1A Target_1N fIJeEgi aAcJKME Congruent right correct Normal 1195.285
804 77 LeftLarger PercCAExp1 Prime_9N Target_4A iaBdKgc jlLaKiH Incongruent left correct Normal 1776.559
804 78 LeftLarger PercCAExp1 Prime_6N Target_9N efjgMiJ IkamBci Congruent right correct Normal 1600.211
804 79 LeftLarger PercCAExp1 Prime_4A Target_6N kHaEMgm JajlcHI Incongruent left correct Normal 1237.431
804 80 LeftLarger PercCAExp1 Prime_1N Target_6A hFmeIlH iJjAgHc Incongruent left correct Normal 1191.875
804 81 LeftSmaller PercCBPrac Prime_9N Target_1A IAklBJj FgkbDjK Incongruent left error Normal 1616.126
804 82 LeftSmaller PercCBPrac Prime_4N Target_9N lmiGLgI chFJkDe Incongruent right correct Normal 1516.18
804 83 LeftSmaller PercCBPrac Prime_9N Target_9N JaEDfKA JFgmHIL Congruent right error Normal 1616.348
804 84 LeftSmaller PercCBPrac Prime_1N Target_1N fcGikDH KjBJDCm Congruent left correct Normal 2233.537
804 85 LeftSmaller PercCBPrac Prime_9A Target_6N BcAdLGb dIFabBC Congruent left correct Normal 1234.519
804 86 LeftSmaller PercCBPrac Prime_1N Target_6A kCDGlAf iHbFgLA Incongruent right correct Normal 1375.033
804 87 LeftSmaller PercCBPrac Prime_1A Target_1N AcCeMJm mHEjFDd Congruent left correct Normal 1508.487
804 88 LeftSmaller PercCBPrac Prime_4N Target_6N CfdMDJb jHAGkFd Incongruent left error Normal 2399.916
804 89 LeftSmaller PercCBPrac Prime_1A Target_4A afDFMbL aIMbBfC Congruent right error Normal 1517.642
804 90 LeftSmaller PercCBPrac Prime_4N Target_6A MlIKJfd dFclaCG Incongruent right correct Normal 1620.706
804 91 LeftSmaller PercCBPrac Prime_6A Target_4N hMfFJLc cDLmgdl Incongruent right correct Normal 1029.343
804 92 LeftSmaller PercCBPrac Prime_6N Target_4A EMhciAL JkhHMEj Incongruent right correct Normal 1078.062
804 93 LeftSmaller PercCBPrac Prime_1A Target_6N aKecMfd FLfAaIE Incongruent right correct Normal 1008.521
804 94 LeftSmaller PercCBPrac Prime_4A Target_4A dbDGjak ebGBfcd Congruent right error Normal 1277.802
804 95 LeftSmaller PercCBPrac Prime_1A Target_9A fMiHmeD BeKJkDL Incongruent right correct Normal 991.4628
804 96 LeftSmaller PercCBPrac Prime_4N Target_1N jKiEkIM MFClcJg Congruent left correct Normal 950.2953
804 97 LeftSmaller PercCBExp1 Prime_6N Target_6N FkGcMje iIgMGHe Congruent right error Normal 1602.331
804 98 LeftSmaller PercCBExp1 Prime_6A Target_4N dekJBMj fAjLBKI Incongruent right correct Normal 1728.14
804 99 LeftSmaller PercCBExp1 Prime_6N Target_6A BHgmMab CgEAHBj Congruent right error Normal 852.6037
804 100 LeftSmaller PercCBExp1 Prime_1N Target_6N gdaAJkC mFdflDb Incongruent right correct Normal 1639.537
804 101 LeftSmaller PercCBExp1 Prime_6A Target_6N CEABifb kiFfhIC Congruent left correct Normal 1050.851
804 102 LeftSmaller PercCBExp1 Prime_9N Target_6N mbHaKiB jaDAgGk Congruent left correct Normal 854.5929
804 103 LeftSmaller PercCBExp1 Prime_6N Target_9A jgmhEbA DIJACMj Congruent left correct Normal 764.6593
804 104 LeftSmaller PercCBExp1 Prime_9A Target_4N aIbmAKM IcBbDld Incongruent right correct Normal 1018.482
804 105 LeftSmaller PercCBExp1 Prime_6A Target_9A kmabMBJ Ahdbfkc Congruent left correct Normal 927.9265
804 106 LeftSmaller PercCBExp1 Prime_6A Target_9N begDfKE BJhKdMe Congruent left correct Normal 2602.249
804 107 LeftSmaller PercCBExp1 Prime_4A Target_1N IBjDahA HfDbeIg Congruent left correct Normal 1647.613
804 108 LeftSmaller PercCBExp1 Prime_6N Target_1A iCLheMj fmkLdcK Incongruent right correct Normal 1029.223
804 109 LeftSmaller PercCBExp1 Prime_1N Target_6A cJKiamh HMJlbDK Incongruent right correct Normal 1141.656
804 110 LeftSmaller PercCBExp1 Prime_9A Target_9A mAgeBHh himDbaf Congruent right error Normal 1558.061
804 111 LeftSmaller PercCBExp1 Prime_1A Target_1N DkadGAj djbJikM Congruent left correct Normal 1577.244
804 112 LeftSmaller PercCBExp1 Prime_1A Target_6N lAcbLCi GiFLhde Incongruent right correct Normal 1578.046
804 113 LeftSmaller PercCBExp1 Prime_1A Target_9N ikBMhKF mKIlhgB Incongruent right correct Normal 1017.644
804 114 LeftSmaller PercCBExp1 Prime_1A Target_4A AfhMJeb IlAeaLC Congruent left correct Normal 1071.221
804 115 LeftSmaller PercCBExp1 Prime_4N Target_1A jFhgbLd DJBFEgI Congruent left correct Normal 1036.722
804 116 LeftSmaller PercCBExp1 Prime_6A Target_1A CgDjGFA ciIBHjl Incongruent right correct Normal 1198.867
804 117 LeftSmaller PercCBExp1 Prime_4N Target_1N heCjIHG cdAlDka Congruent left correct Normal 903.4907
804 118 LeftSmaller PercCBExp1 Prime_6N Target_4N LhcEkAg LmheMEj Incongruent right correct Normal 1409.098
804 119 LeftSmaller PercCBExp1 Prime_9N Target_9A fHglcaA CLMlejG Congruent left correct Normal 2021.914
804 120 LeftSmaller PercCBExp1 Prime_9A Target_6A ibJACjh cGbEfhF Congruent left correct Normal 947.6297
804 121 LeftSmaller PercCBExp1 Prime_9A Target_6N efKDHaC ceLJCIH Congruent left correct Normal 1376.899
804 122 LeftSmaller PercCBExp1 Prime_4N Target_9A hEbjiAK kFBhbeJ Incongruent left error Normal 796.9011
804 123 LeftSmaller PercCBExp1 Prime_4N Target_4N bHaDIkd dfGDhKb Congruent right error Normal 1951.172
804 124 LeftSmaller PercCBExp1 Prime_4A Target_9A iGKdFkg KGcjCiI Incongruent left error Normal 1192.983
804 125 LeftSmaller PercCBExp1 Prime_9N Target_9N icEKIBg KJDdCGg Congruent left correct Normal 1374.756
804 126 LeftSmaller PercCBExp1 Prime_1N Target_9N aFBECJk hJGIFEf Incongruent right correct Normal 984.7242
804 127 LeftSmaller PercCBExp1 Prime_9N Target_1N MhiCbAF lfcMKEj Incongruent right correct Normal 1120.642
804 128 LeftSmaller PercCBExp1 Prime_1A Target_4N aKfblcG gAHhECF Congruent left correct Normal 1058.083
804 129 LeftSmaller PercCBExp1 Prime_6A Target_4A aidkbAl kbMiAGD Incongruent right correct Normal 1075.708
804 130 LeftSmaller PercCBExp1 Prime_9N Target_4A igjJbCA FIMDJiE Incongruent left error Normal 1670.533
804 131 LeftSmaller PercCBExp1 Prime_1A Target_9A FJhCegK lMJLEiK Incongruent right correct Normal 754.1005
804 132 LeftSmaller PercCBExp1 Prime_4A Target_4N aLAlimf lMjJIHC Congruent left correct Normal 970.0542
804 133 LeftSmaller PercCBExp1 Prime_1A Target_6A hGLBFEg jikfdDl Incongruent right correct Normal 987.711
804 134 LeftSmaller PercCBExp1 Prime_9A Target_1N DelCIjA JeMGcLm Incongruent right correct Normal 998.8744
804 135 LeftSmaller PercCBExp1 Prime_4A Target_6A miGCKEI IaefHcA Incongruent right correct Normal 1712.829
804 136 LeftSmaller PercCBExp1 Prime_9A Target_9N MfecLIl bkicgBm Congruent right error Normal 775.7809
804 137 LeftSmaller PercCBExp1 Prime_9A Target_1A KIbGiFM JdgEDAl Incongruent right correct Normal 787.8969
804 138 LeftSmaller PercCBExp1 Prime_6N Target_4A HGbaMEm mGcgJlM Incongruent right correct Normal 1517.351
804 139 LeftSmaller PercCBExp1 Prime_9N Target_1A meJhCAB leEFbKJ Incongruent right correct Normal 973.4258
804 140 LeftSmaller PercCBExp1 Prime_6A Target_1N BblEhMe kcjAgFJ Incongruent left error Normal 1098.045
804 141 LeftSmaller PercCBExp1 Prime_4N Target_6N kMGFdCb cLFMfJm Incongruent left error Normal 1348.498
804 142 LeftSmaller PercCBExp1 Prime_9N Target_4N LbhCfaG edfJbIF Incongruent right correct Normal 2497.918
804 143 LeftSmaller PercCBExp1 Prime_1N Target_4N HLbCGDM lcHfjKk Congruent left correct Normal 1044.42
804 144 LeftSmaller PercCBExp1 Prime_4A Target_4A FAGEIfa mkdCbEG Congruent left correct Normal 861.3281
804 145 LeftSmaller PercCBExp1 Prime_1N Target_1A JBCHLmb gfceDjk Congruent left correct Normal 1267.478
804 146 LeftSmaller PercCBExp1 Prime_4A Target_9N agclDej iKlemDE Incongruent right correct Normal 814.305
804 147 LeftSmaller PercCBExp1 Prime_9A Target_4A AbCBHhF GJafKLi Incongruent right correct Normal 1336.97
804 148 LeftSmaller PercCBExp1 Prime_1N Target_1N MJajLde EABLicG Congruent left correct Normal 1358.281
804 149 LeftSmaller PercCBExp1 Prime_4N Target_6A dkaJIHg BaEbfAD Incongruent right correct Normal 1525.313
804 150 LeftSmaller PercCBExp1 Prime_4A Target_6N dMJmFfk famGgBA Incongruent right correct Normal 1367.625
804 151 LeftSmaller PercCBExp1 Prime_4N Target_9N lhMKcFC DhcHFJK Incongruent left error Normal 1876.678
804 152 LeftSmaller PercCBExp1 Prime_4A Target_1A EAFgiBf iAMJdEb Congruent right error Normal 1952.376
804 153 LeftSmaller PercCBExp1 Prime_1N Target_9A afldkEG aLMhIDf Incongruent left error Normal 4206.791
804 154 LeftSmaller PercCBExp1 Prime_4N Target_4A JDcdbjG MbeHIlJ Congruent left correct Normal 1073.946
804 155 LeftSmaller PercCBExp1 Prime_1N Target_4A KBJAaec giFfMAL Congruent left correct Normal 1071.138
804 156 LeftSmaller PercCBExp1 Prime_1A Target_1A JkhfLIM MAlEkBI Congruent left correct Normal 734.2993
804 157 LeftSmaller PercCBExp1 Prime_6A Target_6A JBLiaDM gGbCJEB Congruent right error Normal 1136.86
804 158 LeftSmaller PercCBExp1 Prime_6N Target_1N cIlaDCi bHFLghj Incongruent right correct Normal 2240.369
804 159 LeftSmaller PercCBExp1 Prime_6N Target_9N HAEJlLm ecMAKFH Congruent left correct Normal 2059.909
804 160 LeftSmaller PercCBExp1 Prime_9N Target_6A lDagmeH mJkChie Congruent left correct Normal 1529.138
805 1 LeftSmaller PercCAPrac Prime_4N Target_4A kbcediM aKmMeFj Congruent right error Normal 781.8424
805 2 LeftSmaller PercCAPrac Prime_4A Target_1N FALhfGl adGFAkJ Congruent left correct Normal 1614.259
805 3 LeftSmaller PercCAPrac Prime_6N Target_6A lBbfJcC fCcDLeH Congruent left correct Normal 978.4608
805 4 LeftSmaller PercCAPrac Prime_4A Target_1A LKAlima GBFKDCd Congruent left correct Normal 915.5079
805 5 LeftSmaller PercCAPrac Prime_9A Target_9A KBDEfJi FJgbKif Congruent right error Normal 824.6948
805 6 LeftSmaller PercCAPrac Prime_4N Target_9N MdFABfJ iIDabmC Incongruent right correct Normal 1131.102
805 7 LeftSmaller PercCAPrac Prime_4A Target_9A FimEldj ajefikI Incongruent right correct Normal 1215.509
805 8 LeftSmaller PercCAPrac Prime_1A Target_4N CgakGDh JgLEMmh Congruent left correct Normal 1045.966
805 9 LeftSmaller PercCAPrac Prime_9N Target_9N bFEclKe BjiFMbD Congruent left correct Normal 1395.769
805 10 LeftSmaller PercCAPrac Prime_1A Target_9N iHbfMFg hbdkJeH Incongruent right correct Normal 967.8206
805 11 LeftSmaller PercCAPrac Prime_9A Target_6N JFAHcDI hkFLmcI Congruent left correct Normal 1571.456
805 12 LeftSmaller PercCAPrac Prime_4N Target_4N ijHchDL iemBgFf Congruent right error Normal 1421.052
805 13 LeftSmaller PercCAPrac Prime_1N Target_4A kGDaFCA AFcChjI Congruent right error Normal 1749.079
805 14 LeftSmaller PercCAPrac Prime_6N Target_4N MhcGCLk mgfMHkF Incongruent right correct Normal 942.6796
805 15 LeftSmaller PercCAPrac Prime_1N Target_9A mDEJGMF IJEmGiH Incongruent right correct Normal 1486.339
805 16 LeftSmaller PercCAPrac Prime_9N Target_6A JDgiHMd KjGFdiH Congruent left correct Normal 1284.759
805 17 LeftSmaller PercCAExp1 Prime_9A Target_4A gKBHbmh bkLJCAe Incongruent right correct Normal 794.7207
805 18 LeftSmaller PercCAExp1 Prime_4A Target_9A fdaMljH AfhKFeD Incongruent right correct Normal 867.1693
805 19 LeftSmaller PercCAExp1 Prime_6A Target_6A dcDgKFA lMDimKe Congruent right error Normal 890.625
805 20 LeftSmaller PercCAExp1 Prime_6N Target_6N lLcdAFE KBFjigH Congruent left correct Normal 1032.056
805 21 LeftSmaller PercCAExp1 Prime_1N Target_4N CjGDbem DbHcfJi Congruent left correct Normal 1005.567
805 22 LeftSmaller PercCAExp1 Prime_9A Target_6N lkbGDHM giaBLCI Congruent left correct Normal 966.3954
805 23 LeftSmaller PercCAExp1 Prime_1N Target_6N hlBdkDJ GfFEdcg Incongruent right correct Normal 1327.671
805 24 LeftSmaller PercCAExp1 Prime_6A Target_9A ibDacMm ILeKfGd Congruent left correct Normal 1320.77
805 25 LeftSmaller PercCAExp1 Prime_6A Target_4A LeBalAC iEjBfel Incongruent right correct Normal 1091.843
805 26 LeftSmaller PercCAExp1 Prime_1A Target_6A HeAMLFJ aFldhfb Incongruent right correct Normal 1091.486
805 27 LeftSmaller PercCAExp1 Prime_4A Target_9N leGImbD mAHJEic Incongruent right correct Normal 1004.897
805 28 LeftSmaller PercCAExp1 Prime_6N Target_6A adLFMbk EiMIbdj Congruent left correct Normal 960.1781
805 29 LeftSmaller PercCAExp1 Prime_1N Target_4A JFgljbK LglimbK Congruent right error Normal 1158.776
805 30 LeftSmaller PercCAExp1 Prime_1A Target_4N JbajhDB JhMjkmf Congruent left correct Normal 1552.082
805 31 LeftSmaller PercCAExp1 Prime_9A Target_9N iemHIlD mCHKAid Congruent left correct Normal 784.4026
805 32 LeftSmaller PercCAExp1 Prime_9A Target_4N gAbEMKD ifCbLFG Incongruent right correct Normal 1059.59
805 33 LeftSmaller PercCAExp1 Prime_6A Target_4N LkGbCBE hkiJFEm Incongruent right correct Normal 792.192
805 34 LeftSmaller PercCAExp1 Prime_9N Target_6N cAKmFGf mbFDGhB Congruent right error Normal 1162.512
805 35 LeftSmaller PercCAExp1 Prime_9A Target_6A kcIbEjM HfAdbGm Congruent left correct Normal 862.1235
805 36 LeftSmaller PercCAExp1 Prime_1N Target_6A GhAHeIL EmaiBJc Incongruent right correct Normal 805.1381
805 37 LeftSmaller PercCAExp1 Prime_4N Target_6A eDEaKhM CgbKhAF Incongruent right correct Normal 995.9448
805 38 LeftSmaller PercCAExp1 Prime_6A Target_1A gJjhGic BALhFDf Incongruent right correct Normal 1571.985
805 39 LeftSmaller PercCAExp1 Prime_4N Target_1A ejhbiFk DKmAjfE Congruent left correct Normal 1180.474
805 40 LeftSmaller PercCAExp1 Prime_1A Target_1A aMjDbJI CbfdKBk Congruent right error Normal 1293.586
805 41 LeftSmaller PercCAExp1 Prime_4A Target_1A HEFgmIL hAcGbfM Congruent left correct Normal 807.1478
805 42 LeftSmaller PercCAExp1 Prime_1A Target_1N MhFiKGc DjfFEcK Congruent left correct Normal 1222.721
805 43 LeftSmaller PercCAExp1 Prime_1A Target_6N JFjGBIl ACHDiFf Incongruent right correct Normal 1489.253
805 44 LeftSmaller PercCAExp1 Prime_9A Target_1A aicKjAd jfiKhME Incongruent right correct Normal 2146.043
805 45 LeftSmaller PercCAExp1 Prime_4N Target_4A kcDigAa IhJecLB Congruent left correct Normal 1287.924
805 46 LeftSmaller PercCAExp1 Prime_4A Target_1N aIChkcE GiEBDcF Congruent left correct Normal 1377.702
805 47 LeftSmaller PercCAExp1 Prime_9N Target_9A BGEjIHh aKJBIlj Congruent left correct Normal 1808.996
805 48 LeftSmaller PercCAExp1 Prime_9A Target_1N BHFcaem lmBHFaf Incongruent right correct Normal 1231.305
805 49 LeftSmaller PercCAExp1 Prime_6A Target_6N cfEGgdD kIbihdK Congruent left correct Normal 1099.546
805 50 LeftSmaller PercCAExp1 Prime_1N Target_1N dkKeiEA DfcMeHK Congruent left correct Normal 1195.104
805 51 LeftSmaller PercCAExp1 Prime_6N Target_4N aJbjfDk kfmlEKG Incongruent right correct Normal 871.7345
805 52 LeftSmaller PercCAExp1 Prime_1N Target_9N hCeiflJ dHDEhAa Incongruent right correct Normal 890.7418
805 53 LeftSmaller PercCAExp1 Prime_9N Target_9N AiGmfgC mBeIMfc Congruent right error Normal 1241.189
805 54 LeftSmaller PercCAExp1 Prime_4N Target_6N fGeEMmB haFiMBD Incongruent right correct Normal 974.0988
805 55 LeftSmaller PercCAExp1 Prime_4N Target_9N dCcMAaJ iDjmLEa Incongruent right correct Normal 1121.432
805 56 LeftSmaller PercCAExp1 Prime_1N Target_1A cKHaLlb ifdLKCA Congruent left correct Normal 1287.738
805 57 LeftSmaller PercCAExp1 Prime_1A Target_9A jlKbFeI hkaHeAM Incongruent right correct Normal 824.7525
805 58 LeftSmaller PercCAExp1 Prime_6N Target_9N cGkImEf cjbeLFD Congruent right error Normal 1556.584
805 59 LeftSmaller PercCAExp1 Prime_9N Target_1N lFbKmHL GMfkFLe Incongruent left error Normal 1058.891
805 60 LeftSmaller PercCAExp1 Prime_1A Target_9N jLGeHlB ehJmbBl Incongruent right correct Normal 1486.183
805 61 LeftSmaller PercCAExp1 Prime_6A Target_1N CaMgEJm KeGkBiF Incongruent right correct Normal 1007.714
805 62 LeftSmaller PercCAExp1 Prime_6N Target_9A djlGDif mbhClMj Congruent left correct Normal 791.0739
805 63 LeftSmaller PercCAExp1 Prime_9N Target_1A BbckhLm hDJFgMG Incongruent right correct Normal 1303.591
805 64 LeftSmaller PercCAExp1 Prime_1N Target_9A iJdBAED GKJeaDI Incongruent left error Normal 1366.381
805 65 LeftSmaller PercCAExp1 Prime_4N Target_4N jKEAeJM ImbEDBL Congruent right error Normal 942.0892
805 66 LeftSmaller PercCAExp1 Prime_4A Target_4A FGlaAHf AiFCJge Congruent right error Normal 1891.994
805 67 LeftSmaller PercCAExp1 Prime_4N Target_1N cjMJChl dgkehIf Congruent left correct Normal 948.0588
805 68 LeftSmaller PercCAExp1 Prime_4N Target_9A BCijAcK EbDdcgL Incongruent right correct Normal 1070.511
805 69 LeftSmaller PercCAExp1 Prime_6N Target_1N bHLDGJA JiLhAeC Incongruent right correct Normal 1160.814
805 70 LeftSmaller PercCAExp1 Prime_9N Target_4N mFdlkeE ILcaJAk Incongruent right correct Normal 967.7218
805 71 LeftSmaller PercCAExp1 Prime_9A Target_9A hkgAfEj lEgLejf Congruent right error Normal 1219.545
805 72 LeftSmaller PercCAExp1 Prime_4A Target_6A jKMeGaH kjFGLfe Incongruent right correct Normal 1283.597
805 73 LeftSmaller PercCAExp1 Prime_6N Target_1A lJFEBHM bHKgLEJ Incongruent right correct Normal 905.7926
805 74 LeftSmaller PercCAExp1 Prime_1A Target_4A hflCLMH hLkcadG Congruent right error Normal 1028.821
805 75 LeftSmaller PercCAExp1 Prime_4A Target_4N mdKFDgA ehFagDi Congruent left correct Normal 1726.839
805 76 LeftSmaller PercCAExp1 Prime_9N Target_6A fJGebmL JmLHfKM Congruent left correct Normal 744.0451
805 77 LeftSmaller PercCAExp1 Prime_6A Target_9N DKecAGg CJgchbH Congruent left correct Normal 674.8652
805 78 LeftSmaller PercCAExp1 Prime_4A Target_6N FBlMjLc kHlbKfe Incongruent right correct Normal 618.0386
805 79 LeftSmaller PercCAExp1 Prime_6N Target_4A HmKACcE DHACFcm Incongruent right correct Normal 1257.7
805 80 LeftSmaller PercCAExp1 Prime_9N Target_4A BhLkEfc CBJiebm Incongruent right correct Normal 878.3896
805 81 LeftLarger PercCBPrac Prime_1A Target_6N gcJChej cfJIaFL Incongruent left correct Normal 1081.102
805 82 LeftLarger PercCBPrac Prime_1N Target_4A IeklEHg HkjKhBb Congruent right correct Normal 1130.138
805 83 LeftLarger PercCBPrac Prime_6N Target_4A dIBAJFh hiaDdck Incongruent left correct Normal 749.6054
805 84 LeftLarger PercCBPrac Prime_9A Target_1N bkGIaeF efkMAKi Incongruent left correct Normal 886.5594
805 85 LeftLarger PercCBPrac Prime_6N Target_9A gkaCDEf hmjIBHe Congruent right correct Normal 575.4394
805 86 LeftLarger PercCBPrac Prime_4A Target_4N dGaheDJ GeiJfhE Congruent left error Normal 845.2555
805 87 LeftLarger PercCBPrac Prime_9A Target_9N gDmLMEk IHDBdkL Congruent right correct Normal 601.2829
805 88 LeftLarger PercCBPrac Prime_9N Target_9N hdikfal LFHMICf Congruent right correct Normal 570.9574
805 89 LeftLarger PercCBPrac Prime_9A Target_9A dMeLlkH bJKfAda Congruent right correct Normal 548.0039
805 90 LeftLarger PercCBPrac Prime_4N Target_6N dkaFGMm fADegjl Incongruent left correct Normal 916.9091
805 91 LeftLarger PercCBPrac Prime_9N Target_1A jceaABl GmALCcB Incongruent left correct Normal 1542.568
805 92 LeftLarger PercCBPrac Prime_6N Target_4N IEAjlca CDbHlMi Incongruent left correct Normal 889.6025
805 93 LeftLarger PercCBPrac Prime_6A Target_1N IKEAlHg FblCEDL Incongruent left correct Normal 845.058
805 94 LeftLarger PercCBPrac Prime_6N Target_6N DCkaHje lcdIDHF Congruent left error Normal 935.9931
805 95 LeftLarger PercCBPrac Prime_4N Target_9A MDkChKA aBmIgCb Incongruent left correct Normal 1140.656
805 96 LeftLarger PercCBPrac Prime_9N Target_1N aHbfJcC mhEaFbC Incongruent left correct Normal 983.9615
805 97 LeftLarger PercCBExp1 Prime_6N Target_1N cAMlkJh AaGibFm Incongruent left correct Normal 1077.982
805 98 LeftLarger PercCBExp1 Prime_6N Target_1A BEjCcfm glDJCLf Incongruent left correct Normal 822.03
805 99 LeftLarger PercCBExp1 Prime_9A Target_4A kmiDFcA eCKajkG Incongruent left correct Normal 722.9954
805 100 LeftLarger PercCBExp1 Prime_4A Target_1N eIDlfhK iCcBjGb Congruent right correct Normal 891.6794
805 101 LeftLarger PercCBExp1 Prime_1A Target_4N aflbFHk LjAGFiJ Congruent right correct Normal 764.9791
805 102 LeftLarger PercCBExp1 Prime_6A Target_6N dAGKLcl fbhFLCE Congruent left error Normal 830.4104
805 103 LeftLarger PercCBExp1 Prime_9A Target_1N igekLBc ljamfIc Incongruent left correct Normal 683.4528
805 104 LeftLarger PercCBExp1 Prime_1N Target_9A AMHdgJB MBdAgmc Incongruent left correct Normal 805.2104
805 105 LeftLarger PercCBExp1 Prime_1N Target_6A kHadbJe kKEcjad Incongruent left correct Normal 1034.785
805 106 LeftLarger PercCBExp1 Prime_9N Target_4N FKBLfGE KAeCHmk Incongruent left correct Normal 785.2101
805 107 LeftLarger PercCBExp1 Prime_1N Target_6N MCIdGei AeEJKIg Incongruent left correct Normal 735.3857
805 108 LeftLarger PercCBExp1 Prime_1A Target_9A FjkGMAB DLFmdeg Incongruent left correct Normal 697.3162
805 109 LeftLarger PercCBExp1 Prime_1A Target_1A jBgbKiD BgbmFaL Congruent left error Normal 1159.866
805 110 LeftLarger PercCBExp1 Prime_6A Target_1A FDdIelj MELImHh Incongruent left correct Normal 1086.619
805 111 LeftLarger PercCBExp1 Prime_9N Target_1A mHhcICi eafgkLG Incongruent left correct Normal 621.2034
805 112 LeftLarger PercCBExp1 Prime_4N Target_6A Iidlcgh diJHceh Incongruent left correct Normal 816.8316
805 113 LeftLarger PercCBExp1 Prime_4A Target_6A gLAlBbe IgGJbdm Incongruent left correct Normal 821.9961
805 114 LeftLarger PercCBExp1 Prime_9N Target_6N bDfGLea ahcdijl Congruent right correct Normal 600.8427
805 115 LeftLarger PercCBExp1 Prime_9A Target_6A aALHijm jAlKfaL Congruent right correct Normal 856.6099
805 116 LeftLarger PercCBExp1 Prime_9A Target_9N GAcEHJf DBlcdKi Congruent right correct Normal 635.0591
805 117 LeftLarger PercCBExp1 Prime_4A Target_9A EhImdKC cLagHEG Incongruent left correct Normal 645.3505
805 118 LeftLarger PercCBExp1 Prime_9N Target_1N GBFgaHb ghciaLk Incongruent left correct Normal 721.1192
805 119 LeftLarger PercCBExp1 Prime_4N Target_9A AcgMGFL iHKCMjm Incongruent left correct Normal 743.6464
805 120 LeftLarger PercCBExp1 Prime_1N Target_4N ACbfGEL FGBAbLC Congruent left error Normal 621.5109
805 121 LeftLarger PercCBExp1 Prime_1N Target_9N lkcLDmE mGIhdKi Incongruent left correct Normal 706.9009
805 122 LeftLarger PercCBExp1 Prime_6A Target_1N GmLlbeg gLaHDBF Incongruent left correct Normal 921.4544
805 123 LeftLarger PercCBExp1 Prime_6N Target_4N bflBdkm EhIgfBk Incongruent left correct Normal 941.3821
805 124 LeftLarger PercCBExp1 Prime_9A Target_1A gafGhFm DKgcFGa Incongruent left correct Normal 838.6904
805 125 LeftLarger PercCBExp1 Prime_9N Target_9A HKLJgeA BHmaLEJ Congruent right correct Normal 516.9731
805 126 LeftLarger PercCBExp1 Prime_9A Target_4N lBAKFga FEeJaBc Incongruent left correct Normal 658.4831
805 127 LeftLarger PercCBExp1 Prime_4N Target_4A EmIkMaA mEgLHkj Congruent right correct Normal 462.3136
805 128 LeftLarger PercCBExp1 Prime_6A Target_4A HbiAhca JgbhakD Incongruent left correct Normal 848.4944
805 129 LeftLarger PercCBExp1 Prime_6A Target_4N fdFkigm iEmfhLk Incongruent left correct Normal 678.2849
805 130 LeftLarger PercCBExp1 Prime_6A Target_9N CFigkHI CDEKmef Congruent right correct Normal 681.2409
805 131 LeftLarger PercCBExp1 Prime_9N Target_9N KDCHgIA jkDegAC Congruent right correct Normal 598.5811
805 132 LeftLarger PercCBExp1 Prime_6A Target_9A JMiKBGI HIgimCM Congruent right correct Normal 512.588
805 133 LeftLarger PercCBExp1 Prime_1A Target_6A EJgKklb jmAKLGf Incongruent left correct Normal 735.4458
805 134 LeftLarger PercCBExp1 Prime_9A Target_9A egFHikE gEcGKji Congruent right correct Normal 757.632
805 135 LeftLarger PercCBExp1 Prime_1A Target_6N cgFHAkM bGELDKe Incongruent left correct Normal 559.7675
805 136 LeftLarger PercCBExp1 Prime_6N Target_9N jiDmLdB EKHfhMA Congruent right correct Normal 639.6989
805 137 LeftLarger PercCBExp1 Prime_6N Target_6N LGdHDfI IBiMHeL Congruent right correct Normal 711.3696
805 138 LeftLarger PercCBExp1 Prime_4A Target_9N jFaLfKh lJdegKH Incongruent right error Normal 1050.308
805 139 LeftLarger PercCBExp1 Prime_1A Target_9N Lijlhad mFAIGed Incongruent left correct Normal 1313.946
805 140 LeftLarger PercCBExp1 Prime_4A Target_1A mBGLbAh FACkjlM Congruent right correct Normal 839.7768
805 141 LeftLarger PercCBExp1 Prime_1A Target_1N ljaiCgc CjFglJD Congruent right correct Normal 806.9536
805 142 LeftLarger PercCBExp1 Prime_4N Target_9N kGcbImM hGjmBEH Incongruent left correct Normal 1419.881
805 143 LeftLarger PercCBExp1 Prime_1N Target_1A LAIEMgl lfbhJEe Congruent right correct Normal 538.7653
805 144 LeftLarger PercCBExp1 Prime_9A Target_6N klhCLKA MhGBgEl Congruent right correct Normal 856.4896
805 145 LeftLarger PercCBExp1 Prime_1A Target_4A MBFKmfE AfgmMhJ Congruent right correct Normal 809.7541
805 146 LeftLarger PercCBExp1 Prime_4A Target_6N ceFKkmG eGfKbJg Incongruent left correct Normal 796.7096
805 147 LeftLarger PercCBExp1 Prime_4A Target_4N eaFgLHD GgjbLHf Congruent right correct Normal 579.3685
805 148 LeftLarger PercCBExp1 Prime_1N Target_4A CDGEhme MAlEieH Congruent right correct Normal 763.0216
805 149 LeftLarger PercCBExp1 Prime_9N Target_6A HbgKaek lMFeadi Congruent right correct Normal 808.1545
805 150 LeftLarger PercCBExp1 Prime_6N Target_4A dkFEJKg GHkbBIm Incongruent left correct Normal 768.1798
805 151 LeftLarger PercCBExp1 Prime_4N Target_1N kcGMBEA mcgEGJB Congruent right correct Normal 574.5315
805 152 LeftLarger PercCBExp1 Prime_4N Target_1A icGKaBj JDdgfkh Congruent right correct Normal 789.0933
805 153 LeftLarger PercCBExp1 Prime_6N Target_6A Mhjafmb GMeAkDd Congruent right correct Normal 626.1319
805 154 LeftLarger PercCBExp1 Prime_6A Target_6A MJGbcdi flDIcMh Congruent left error Normal 1177.564
805 155 LeftLarger PercCBExp1 Prime_4N Target_6N JfDEHic LGHDAIf Incongruent left correct Normal 1117.979
805 156 LeftLarger PercCBExp1 Prime_6N Target_9A EgcMedb FgCBHeL Congruent right correct Normal 591.8022
805 157 LeftLarger PercCBExp1 Prime_4A Target_4A KmbIaJD mBFjJAC Congruent right correct Normal 734.9513
805 158 LeftLarger PercCBExp1 Prime_1N Target_1N FlfLeMG FKJehma Congruent right correct Normal 776.4001
805 159 LeftLarger PercCBExp1 Prime_4N Target_4N FMaHgBE CDkcdfL Congruent left error Normal 902.8932
805 160 LeftLarger PercCBExp1 Prime_9N Target_4A lAKDadG AhBLjmG Incongruent left correct Normal 1113.969
806 1 LeftSmaller PercCAPrac Prime_9N Target_6N edGJmMg dbFfaDC Congruent left correct Normal 922.4395
806 2 LeftSmaller PercCAPrac Prime_9A Target_4A EfFhkIm LBAGFfC Incongruent right correct Normal 1007.286
806 3 LeftSmaller PercCAPrac Prime_4N Target_6N BGiLejF aDkeIAf Incongruent right correct Normal 977.1258
806 4 LeftSmaller PercCAPrac Prime_9N Target_4N kLjemEl jgIBeAh Incongruent left error Normal 796.2155
806 5 LeftSmaller PercCAPrac Prime_1N Target_6N KgdjABa lhMHCFB Incongruent right correct Normal 1288.943
806 6 LeftSmaller PercCAPrac Prime_6N Target_1N iHmIhLB gcFGeJm Incongruent right correct Normal 1204.722
806 7 LeftSmaller PercCAPrac Prime_6A Target_6A MhLmeFa DCLjhBi Congruent right error Normal 1331.173
806 8 LeftSmaller PercCAPrac Prime_4N Target_4N fHJIkEB gELDhKf Congruent left correct Normal 1474.165
806 9 LeftSmaller PercCAPrac Prime_1A Target_6N MgklGbI McGhlCI Incongruent right correct Normal 1523.36
806 10 LeftSmaller PercCAPrac Prime_6N Target_9A CjmGDLe CklfHgK Congruent left correct Normal 1332.977
806 11 LeftSmaller PercCAPrac Prime_6N Target_9N cjkmMBK igbkBdf Congruent left correct Normal 1765.99
806 12 LeftSmaller PercCAPrac Prime_9N Target_1A HdiEDcj hlbHamJ Incongruent right correct Normal 1367.01
806 13 LeftSmaller PercCAPrac Prime_9N Target_6A GBHAmDF AJdfGkB Congruent left correct Normal 1214.35
806 14 LeftSmaller PercCAPrac Prime_4N Target_1A bhKDIcM cHDkdlm Congruent left correct Normal 1379.954
806 15 LeftSmaller PercCAPrac Prime_6N Target_1A aEmDAcI hFgdeBC Incongruent right correct Normal 1774.496
806 16 LeftSmaller PercCAPrac Prime_1N Target_9A cjlIigH hHiFAMm Incongruent right correct Normal 1482.824
806 17 LeftSmaller PercCAExp1 Prime_1A Target_6N aJekbIm EBFIAKh Incongruent right correct Normal 969.23
806 18 LeftSmaller PercCAExp1 Prime_6A Target_6N BDildgb EaKFCMI Congruent right error Normal 1045.128
806 19 LeftSmaller PercCAExp1 Prime_6A Target_9N bcFmiDE abmKfld Congruent left correct Normal 1410.04
806 20 LeftSmaller PercCAExp1 Prime_4N Target_4N lmgLeCI JfdmeFM Congruent left correct Normal 1280.593
806 21 LeftSmaller PercCAExp1 Prime_1N Target_1A bBKlGCj fEBiIhj Congruent right error Normal 979.5638
806 22 LeftSmaller PercCAExp1 Prime_1A Target_6A BKkGedg EhlaDmF Incongruent right correct Normal 874.2974
806 23 LeftSmaller PercCAExp1 Prime_1N Target_6N bgDcaeI GBLhgDc Incongruent left error Normal 1151.878
806 24 LeftSmaller PercCAExp1 Prime_9A Target_1A mJGciAH CfIKAHe Incongruent left error Normal 1092.617
806 25 LeftSmaller PercCAExp1 Prime_6N Target_4N KieJjlM HlhJgbK Incongruent right correct Normal 1563.225
806 26 LeftSmaller PercCAExp1 Prime_9N Target_1N hMaBbif emMcgKd Incongruent right correct Normal 1386.552
806 27 LeftSmaller PercCAExp1 Prime_4N Target_1A kdhcjIM ChGcDdF Congruent right error Normal 1739.985
806 28 LeftSmaller PercCAExp1 Prime_4A Target_6N ahHCGcg bMeCDIA Incongruent right correct Normal 1367.41
806 29 LeftSmaller PercCAExp1 Prime_4A Target_4N AiflLkb iHbLEgB Congruent left correct Normal 1443.081
806 30 LeftSmaller PercCAExp1 Prime_9A Target_4A hGMFabI GbBeHfg Incongruent right correct Normal 1386.888
806 31 LeftSmaller PercCAExp1 Prime_1A Target_1N Ggejmlh jhBCLli Congruent right error Normal 1350.703
806 32 LeftSmaller PercCAExp1 Prime_1A Target_4N kHghJjd DIhCjGl Congruent left correct Normal 1158.393
806 33 LeftSmaller PercCAExp1 Prime_4N Target_4A JMAeHIG Kdjmhli Congruent right error Normal 1055.08
806 34 LeftSmaller PercCAExp1 Prime_1A Target_4A glKBChj cjCEJBF Congruent right error Normal 1379.372
806 35 LeftSmaller PercCAExp1 Prime_1N Target_9N MBAgHmc JKkBiam Incongruent right correct Normal 1429.795
806 36 LeftSmaller PercCAExp1 Prime_1N Target_4A lAijBab iBedFfH Congruent right error Normal 1134.111
806 37 LeftSmaller PercCAExp1 Prime_4A Target_9A BiCMIDj GEbDkdi Incongruent right correct Normal 1057.17
806 38 LeftSmaller PercCAExp1 Prime_9A Target_9A HjImKce cDkegaI Congruent left correct Normal 950.4731
806 39 LeftSmaller PercCAExp1 Prime_1A Target_1A CgFbcHd bgGLKID Congruent left correct Normal 1126.034
806 40 LeftSmaller PercCAExp1 Prime_9N Target_4A aCbHedA MIjEDaB Incongruent right correct Normal 1203.821
806 41 LeftSmaller PercCAExp1 Prime_4A Target_9N chHGLIK MiabBje Incongruent left error Normal 1167.124
806 42 LeftSmaller PercCAExp1 Prime_1N Target_1N AJKCIiF geMEJBH Congruent right error Normal 1766.836
806 43 LeftSmaller PercCAExp1 Prime_9N Target_9A BeHMEgc lFhIcKb Congruent left correct Normal 1133.869
806 44 LeftSmaller PercCAExp1 Prime_9N Target_9N hHEkimd mKDMehC Congruent left correct Normal 1295.266
806 45 LeftSmaller PercCAExp1 Prime_6A Target_4N gECiclA CHBaFEJ Incongruent right correct Normal 1000.843
806 46 LeftSmaller PercCAExp1 Prime_9N Target_1A ljhADfa MJimBLG Incongruent right correct Normal 1450.157
806 47 LeftSmaller PercCAExp1 Prime_4N Target_6A EADFgCh hbaLKdM Incongruent right correct Normal 977.598
806 48 LeftSmaller PercCAExp1 Prime_1A Target_9N Abdcihm JBdfiDb Incongruent right correct Normal 1293.629
806 49 LeftSmaller PercCAExp1 Prime_6A Target_1N HcGfFBL jkBFIfC Incongruent right correct Normal 821.3939
806 50 LeftSmaller PercCAExp1 Prime_6N Target_6A iCHmkgd iGMalmH Congruent left correct Normal 1362.367
806 51 LeftSmaller PercCAExp1 Prime_1N Target_6A IJkfhiH lBgjeLH Incongruent right correct Normal 1346.673
806 52 LeftSmaller PercCAExp1 Prime_9A Target_1N heJablH bmlfKBg Incongruent right correct Normal 950.1874
806 53 LeftSmaller PercCAExp1 Prime_4N Target_6N HDbCeAh DIFAJMe Incongruent right correct Normal 1331.157
806 54 LeftSmaller PercCAExp1 Prime_9A Target_6N agiLBDE kfmGjca Congruent left correct Normal 1449.58
806 55 LeftSmaller PercCAExp1 Prime_4N Target_9A iMIeLcA MibfceJ Incongruent right correct Normal 866.7462
806 56 LeftSmaller PercCAExp1 Prime_9A Target_4N hCFmgbH BfjgFEl Incongruent right correct Normal 1030.58
806 57 LeftSmaller PercCAExp1 Prime_6A Target_9A kGmLhEg AGciJem Congruent left correct Normal 981.0089
806 58 LeftSmaller PercCAExp1 Prime_6A Target_1A AhajLcI gdBFADc Incongruent right correct Normal 1309.648
806 59 LeftSmaller PercCAExp1 Prime_4N Target_1N bjAIDHm lEGMjFe Congruent left correct Normal 1147.629
806 60 LeftSmaller PercCAExp1 Prime_6N Target_1A KMkfiAJ fjgEiGI Incongruent right correct Normal 1478.557
806 61 LeftSmaller PercCAExp1 Prime_6N Target_6N cdMmKlG cmgkDLf Congruent left correct Normal 1439.583
806 62 LeftSmaller PercCAExp1 Prime_9N Target_6N KbahFlm fFGKjbC Congruent left correct Normal 1818.381
806 63 LeftSmaller PercCAExp1 Prime_6N Target_4A efhjFEG LldmfDa Incongruent right correct Normal 990.3596
806 64 LeftSmaller PercCAExp1 Prime_6A Target_4A CKflaIm dDMclGB Incongruent right correct Normal 1196.983
806 65 LeftSmaller PercCAExp1 Prime_6N Target_1N EMgAJBe KdAehaJ Incongruent left error Normal 1312.576
806 66 LeftSmaller PercCAExp1 Prime_9N Target_6A GLMFEga ciAmKkg Congruent right error Normal 1477.898
806 67 LeftSmaller PercCAExp1 Prime_4A Target_4A iBLKglM fLdaAIM Congruent right error Normal 1636.727
806 68 LeftSmaller PercCAExp1 Prime_4N Target_9N DhfkEKG dmHLGcE Incongruent right correct Normal 1059.983
806 69 LeftSmaller PercCAExp1 Prime_9A Target_9N EIKCfdk AmkMaCJ Congruent left correct Normal 1004.569
806 70 LeftSmaller PercCAExp1 Prime_6A Target_6A ejGBlLF fkbGgah Congruent left correct Normal 1820.973
806 71 LeftSmaller PercCAExp1 Prime_9N Target_4N AdGbjDI iGhaHcD Incongruent right correct Normal 1401.51
806 72 LeftSmaller PercCAExp1 Prime_4A Target_1A HbKlDFh JlEmAIB Congruent right error Normal 1140.35
806 73 LeftSmaller PercCAExp1 Prime_1A Target_9A jchdBEk gMJALie Incongruent right correct Normal 1331.105
806 74 LeftSmaller PercCAExp1 Prime_9A Target_6A CAkahlF HDjhagM Congruent left correct Normal 864.2831
806 75 LeftSmaller PercCAExp1 Prime_6N Target_9A cBjEbeh mcEKFeg Congruent left correct Normal 1097.019
806 76 LeftSmaller PercCAExp1 Prime_4A Target_1N bFaGLcf HFAKieB Congruent left correct Normal 1179.442
806 77 LeftSmaller PercCAExp1 Prime_4A Target_6A hGHaLgl IDgiaCJ Incongruent right correct Normal 935.8588
806 78 LeftSmaller PercCAExp1 Prime_1N Target_4N FDklAid dDjHmlA Congruent left correct Normal 1467.409
806 79 LeftSmaller PercCAExp1 Prime_1N Target_9A LHjiAJm KJHlfLD Incongruent right correct Normal 846.2822
806 80 LeftSmaller PercCAExp1 Prime_6N Target_9N LmFebMa aFAjgGL Congruent left correct Normal 1102.503
806 81 LeftLarger PercCBPrac Prime_4N Target_1A GFfjkde GIimfJD Congruent right correct Normal 787.9731
806 82 LeftLarger PercCBPrac Prime_4A Target_4A eEkmfgF ilcGMmD Congruent right correct Normal 569.1216
806 83 LeftLarger PercCBPrac Prime_4A Target_1N DJfKgFb IHgLkGb Congruent right correct Normal 626.3022
806 84 LeftLarger PercCBPrac Prime_4N Target_4N BdKGjIb BmCDGiL Congruent right correct Normal 834.3878
806 85 LeftLarger PercCBPrac Prime_9A Target_4A HgBjLfE HjBgLma Incongruent left correct Normal 845.181
806 86 LeftLarger PercCBPrac Prime_9N Target_1N afkcGIi fcbahML Incongruent left correct Normal 784.2178
806 87 LeftLarger PercCBPrac Prime_9A Target_6A efCaKBl hGBEkAg Congruent right correct Normal 769.3164
806 88 LeftLarger PercCBPrac Prime_6A Target_1A LabcJfh lJjCDfh Incongruent left correct Normal 1001.57
806 89 LeftLarger PercCBPrac Prime_4N Target_9A mHDLliK LEIgkid Incongruent left correct Normal 828.7156
806 90 LeftLarger PercCBPrac Prime_6A Target_4A mldMGDJ IGMDfdF Incongruent left correct Normal 880.0174
806 91 LeftLarger PercCBPrac Prime_6A Target_9A jKcdDJi flIkemj Congruent right correct Normal 715.4497
806 92 LeftLarger PercCBPrac Prime_9A Target_1N lFhDiCc BegjAcL Incongruent left correct Normal 994.3985
806 93 LeftLarger PercCBPrac Prime_9A Target_9N aLgbJjf emKDlCF Congruent left error Normal 1122.064
806 94 LeftLarger PercCBPrac Prime_9N Target_6N cgIKBlf LHEBIDj Congruent right correct Normal 909.7083
806 95 LeftLarger PercCBPrac Prime_6N Target_6A cJKdfLg ejBlhEc Congruent left error Normal 1053.48
806 96 LeftLarger PercCBPrac Prime_9N Target_9A EcJAMLC cIBGaiL Congruent right correct Normal 1107.925
806 97 LeftLarger PercCBExp1 Prime_1N Target_6N gAEfiKj iCLKjmc Incongruent left correct Normal 839.7443
806 98 LeftLarger PercCBExp1 Prime_6N Target_9A AdCegfJ lkMLACf Congruent left error Normal 1184.061
806 99 LeftLarger PercCBExp1 Prime_1A Target_4N jEChfLb CJbHGLk Congruent left error Normal 1034.074
806 100 LeftLarger PercCBExp1 Prime_6N Target_9N EmkMCid ECmgfkG Congruent left error Normal 755.4181
806 101 LeftLarger PercCBExp1 Prime_4A Target_1A fkJLedG GAgfCkj Congruent left error Normal 617.5815
806 102 LeftLarger PercCBExp1 Prime_6N Target_6N KJEBhlH dDkeAch Congruent right correct Normal 896.6197
806 103 LeftLarger PercCBExp1 Prime_1N Target_6A BKFkCJj McglAeB Incongruent right error Normal 811.178
806 104 LeftLarger PercCBExp1 Prime_6N Target_1N GcIAekm iLGceMf Incongruent right error Normal 568.9854
806 105 LeftLarger PercCBExp1 Prime_1A Target_1N jIHiJAF LMEKlIj Congruent left error Normal 663.6479
806 106 LeftLarger PercCBExp1 Prime_4A Target_6A egbaCmi HibBIFa Incongruent left correct Normal 1122.206
806 107 LeftLarger PercCBExp1 Prime_9A Target_1N bDjdBim FmbckDL Incongruent left correct Normal 1109.372
806 108 LeftLarger PercCBExp1 Prime_6A Target_4A JiLBjam hBCFeIH Incongruent left correct Normal 779.0165
806 109 LeftLarger PercCBExp1 Prime_1N Target_1N lgEDKLm jgbCAil Congruent left error Normal 1278.13
806 110 LeftLarger PercCBExp1 Prime_4A Target_6N HmiKceJ kjKliHd Incongruent left correct Normal 721.793
806 111 LeftLarger PercCBExp1 Prime_6A Target_4N cmFDEJj MCgibhB Incongruent left correct Normal 759.682
806 112 LeftLarger PercCBExp1 Prime_9A Target_9A JiFIkHL MhLcijB Congruent right correct Normal 976.4946
806 113 LeftLarger PercCBExp1 Prime_9N Target_1A dCcbIhG BGkDbKC Incongruent right error Normal 947.4272
806 114 LeftLarger PercCBExp1 Prime_9A Target_6A cLBfAKD IKBGDcM Congruent right correct Normal 839.3741
806 115 LeftLarger PercCBExp1 Prime_1N Target_4A HcKglDM IGDdkeg Congruent left error Normal 941.3947
806 116 LeftLarger PercCBExp1 Prime_9N Target_9N ahLBKgm cAjIGDa Congruent left error Normal 1305.652
806 117 LeftLarger PercCBExp1 Prime_1N Target_4N kFBCKae gldADjM Congruent left error Normal 1239.248
806 118 LeftLarger PercCBExp1 Prime_1A Target_1A MGhlFLd EbKcami Congruent left error Normal 1018.257
806 119 LeftLarger PercCBExp1 Prime_9N Target_6A ImjCgKl adDCHGg Congruent right correct Normal 1282.852
806 120 LeftLarger PercCBExp1 Prime_6N Target_4A mHbCKGL gFAjakm Incongruent left correct Normal 850.1542
806 121 LeftLarger PercCBExp1 Prime_4A Target_4N ldJEhBM FADgLHK Congruent left error Normal 1007.53
806 122 LeftLarger PercCBExp1 Prime_9N Target_4N AbLlmfk KLIakei Incongruent right error Normal 869.5414
806 123 LeftLarger PercCBExp1 Prime_9A Target_4A ALGidcD dFjMBbc Incongruent left correct Normal 1385.562
806 124 LeftLarger PercCBExp1 Prime_4N Target_1A GgcfJFm ekfjimK Congruent right correct Normal 1629.533
806 125 LeftLarger PercCBExp1 Prime_9A Target_1A dICkhfE HIhicLG Incongruent left correct Normal 1011.198
806 126 LeftLarger PercCBExp1 Prime_9A Target_4N cFfEKkm fDimCak Incongruent left correct Normal 1702.094
806 127 LeftLarger PercCBExp1 Prime_1A Target_9A ijGBLEF JlMLhDC Incongruent left correct Normal 1419.642
806 128 LeftLarger PercCBExp1 Prime_4N Target_4N GbIJlKF HCichFG Congruent left error Normal 1683.841
806 129 LeftLarger PercCBExp1 Prime_1A Target_4A jDefLBH fjeLJkA Congruent right correct Normal 831.9377
806 130 LeftLarger PercCBExp1 Prime_4N Target_6N iMbjhkf ElLGgef Incongruent left correct Normal 908.3419
806 131 LeftLarger PercCBExp1 Prime_1A Target_6A LbfIkKJ JkMHFea Incongruent right error Normal 909.9733
806 132 LeftLarger PercCBExp1 Prime_9A Target_6N lkdMEfF LBcagkC Congruent right correct Normal 1495.437
806 133 LeftLarger PercCBExp1 Prime_9N Target_6N JIDcfaB bJMmCei Congruent right correct Normal 741.3498
806 134 LeftLarger PercCBExp1 Prime_6A Target_6A FmghGdB fGcEDjk Congruent right correct Normal 1226.034
806 135 LeftLarger PercCBExp1 Prime_1A Target_6N MkfJhFg IDeJClF Incongruent left correct Normal 801.0888
806 136 LeftLarger PercCBExp1 Prime_1N Target_9N lbmKBjL aMGJhdD Incongruent left correct Normal 1209.951
806 137 LeftLarger PercCBExp1 Prime_4A Target_9N cGldHEa kdIcjJC Incongruent left correct Normal 767.1277
806 138 LeftLarger PercCBExp1 Prime_4N Target_9N icFbLBk LjiFeHA Incongruent left correct Normal 718.8866
806 139 LeftLarger PercCBExp1 Prime_6N Target_6A alfBDeh lKgCjmD Congruent right correct Normal 725.0528
806 140 LeftLarger PercCBExp1 Prime_1A Target_9N dmaDMGg kaDihHl Incongruent left correct Normal 876.3567
806 141 LeftLarger PercCBExp1 Prime_9N Target_1N cedmajb agBGhEC Incongruent left correct Normal 1362.91
806 142 LeftLarger PercCBExp1 Prime_4N Target_6A EjAfHIi JdIclhm Incongruent left correct Normal 1184.826
806 143 LeftLarger PercCBExp1 Prime_9N Target_4A hmCJFaH lheFaGD Incongruent left correct Normal 1237.342
806 144 LeftLarger PercCBExp1 Prime_9A Target_9N eikhFAc iegjJBl Congruent left error Normal 1261.8
806 145 LeftLarger PercCBExp1 Prime_6A Target_1A CicHJFk bIEHjGJ Incongruent left correct Normal 1111.489
806 146 LeftLarger PercCBExp1 Prime_1N Target_9A kKCEhMf bdcDiGC Incongruent right error Normal 851.2845
806 147 LeftLarger PercCBExp1 Prime_9N Target_9A FDejbCf ekAIFai Congruent left error Normal 1155.379
806 148 LeftLarger PercCBExp1 Prime_4A Target_9A CGcLIjF GJdmFcI Incongruent left correct Normal 818.4834
806 149 LeftLarger PercCBExp1 Prime_6N Target_1A eMdgCjJ bHGgmch Incongruent left correct Normal 1595.06
806 150 LeftLarger PercCBExp1 Prime_6A Target_6N fACKDiL ChlfBEd Congruent right correct Normal 1252.532
806 151 LeftLarger PercCBExp1 Prime_4N Target_9A mEBFbal GajeAcI Incongruent left correct Normal 756.0762
806 152 LeftLarger PercCBExp1 Prime_6A Target_9N DhgAeiE IjCAceE Congruent right correct Normal 1232.966
806 153 LeftLarger PercCBExp1 Prime_4N Target_4A MglEcbi AFkhmJL Congruent left error Normal 1073.167
806 154 LeftLarger PercCBExp1 Prime_4A Target_4A dGIMJlh idhcFHI Congruent right correct Normal 880.7876
806 155 LeftLarger PercCBExp1 Prime_6A Target_1N DeGAFEJ EkjAKdg Incongruent left correct Normal 1114.128
806 156 LeftLarger PercCBExp1 Prime_4A Target_1N GbheEam dDhbCcB Congruent right correct Normal 1251.289
806 157 LeftLarger PercCBExp1 Prime_4N Target_1N femGFDB acEmhJi Congruent right correct Normal 779.4293
806 158 LeftLarger PercCBExp1 Prime_6N Target_4N KBhiGfg deBjbED Incongruent left correct Normal 1211.023
806 159 LeftLarger PercCBExp1 Prime_1N Target_1A LdCMgIF HdeflCb Congruent right correct Normal 973.5927
806 160 LeftLarger PercCBExp1 Prime_6A Target_9A JdkgIli GBkKJbA Congruent right correct Normal 1367.108
807 1 LeftLarger PercCAPrac Prime_1N Target_6N hALejMb GdgIChb Incongruent left correct Normal 1534.291
807 2 LeftLarger PercCAPrac Prime_6A Target_6A bjBlfmi kjghIbl Congruent right correct Normal 984.1351
807 3 LeftLarger PercCAPrac Prime_6N Target_1A JkagbfF ILMmFJK Incongruent left correct Normal 1070.318
807 4 LeftLarger PercCAPrac Prime_4N Target_9A eIGgLAm eHmkbDM Incongruent left correct Normal 1292.609
807 5 LeftLarger PercCAPrac Prime_6N Target_4N LHMBjca dGKgjhD Incongruent left correct Normal 1253.151
807 6 LeftLarger PercCAPrac Prime_6A Target_1N LiBgcEj KbdjaeL Incongruent left correct Normal 1022.963
807 7 LeftLarger PercCAPrac Prime_9N Target_6A FJALfBC KFbGCeM Congruent right correct Normal 1344.571
807 8 LeftLarger PercCAPrac Prime_6N Target_6N EJcKHGf DFKfGMi Congruent right correct Normal 1022.346
807 9 LeftLarger PercCAPrac Prime_1A Target_1N FKJhdGi igHhDEa Congruent left error Normal 876.2524
807 10 LeftLarger PercCAPrac Prime_6A Target_1A dEhHKAj gkmFldM Incongruent left correct Normal 858.6772
807 11 LeftLarger PercCAPrac Prime_9N Target_4A AmldBDM BkELcHm Incongruent left correct Normal 1435.713
807 12 LeftLarger PercCAPrac Prime_1N Target_9N CafLdkJ AKChmHe Incongruent right error Normal 885.7104
807 13 LeftLarger PercCAPrac Prime_1A Target_4N LhiFadM egKDLiB Congruent right correct Normal 1536.827
807 14 LeftLarger PercCAPrac Prime_4N Target_4A AfblEjL edMfbJH Congruent right correct Normal 1549.253
807 15 LeftLarger PercCAPrac Prime_1A Target_6A MkedaEi Cedkmga Incongruent left correct Normal 1911.29
807 16 LeftLarger PercCAPrac Prime_4A Target_9A IaAFEBc MeFDlCK Incongruent right error Normal 1204.41
807 17 LeftLarger PercCAExp1 Prime_4A Target_4N GkBdMaK gcfaAiE Congruent left error Normal 1196.134
807 18 LeftLarger PercCAExp1 Prime_9N Target_4A hDiFjaE KEICbAa Incongruent left correct Normal 1057.392
807 19 LeftLarger PercCAExp1 Prime_6N Target_9A fdDHlka dgkILDl Congruent right correct Normal 671.3969
807 20 LeftLarger PercCAExp1 Prime_6A Target_6A kjbJIiD eKCHJIA Congruent left error Normal 1049.869
807 21 LeftLarger PercCAExp1 Prime_9A Target_1A DdGHLEm GiJeEBC Incongruent left correct Normal 1271.218
807 22 LeftLarger PercCAExp1 Prime_6A Target_4A FgMmIGa BgjdfaG Incongruent right error Normal 1186.046
807 23 LeftLarger PercCAExp1 Prime_6A Target_1N kflEhej CGAlKaH Incongruent left correct Normal 1210.434
807 24 LeftLarger PercCAExp1 Prime_4N Target_4N kIcilEf IMHeLgF Congruent left error Normal 1019.579
807 25 LeftLarger PercCAExp1 Prime_9A Target_9A lKAaGjd eKdChLA Congruent right correct Normal 546.9589
807 26 LeftLarger PercCAExp1 Prime_1A Target_4N DfdFKej FKlmHLJ Congruent left error Normal 1267.186
807 27 LeftLarger PercCAExp1 Prime_4A Target_9A fklALde HGAcIDL Incongruent right error Normal 845.5447
807 28 LeftLarger PercCAExp1 Prime_6N Target_9N jIJcAMG JicjdeG Congruent right correct Normal 1131.12
807 29 LeftLarger PercCAExp1 Prime_1N Target_9A KaclJmC hFEIcjA Incongruent left correct Normal 1239.735
807 30 LeftLarger PercCAExp1 Prime_6N Target_6A ljkMheL FfHkjEa Congruent right correct Normal 939.6038
807 31 LeftLarger PercCAExp1 Prime_9N Target_9A KMlbHEd BiaIbEm Congruent right correct Normal 794.8879
807 32 LeftLarger PercCAExp1 Prime_4A Target_9N lcILFCa GgFkhfm Incongruent left correct Normal 1042.524
807 33 LeftLarger PercCAExp1 Prime_4N Target_1A kAglCfM EJAjfbc Congruent left error Normal 1348.662
807 34 LeftLarger PercCAExp1 Prime_4A Target_1A LajkChe iLhdCHJ Congruent right correct Normal 792.7555
807 35 LeftLarger PercCAExp1 Prime_1N Target_6N DemGgFL DiGjeFb Incongruent right error Normal 1053.581
807 36 LeftLarger PercCAExp1 Prime_4N Target_1N BcDdmLJ EFhBcAL Congruent right correct Normal 775.6354
807 37 LeftLarger PercCAExp1 Prime_4A Target_1N JFIejHB gbikEFf Congruent right correct Normal 1388.16
807 38 LeftLarger PercCAExp1 Prime_6A Target_9N fLJDdIj MeILBJi Congruent right correct Normal 569.2311
807 39 LeftLarger PercCAExp1 Prime_9A Target_6A AlDcijJ HLiDeCE Congruent right correct Normal 720.4044
807 40 LeftLarger PercCAExp1 Prime_9N Target_4N JFjEIeA blFDchC Incongruent right error Normal 1132.578
807 41 LeftLarger PercCAExp1 Prime_1A Target_6A cLDEIma iIMgjcb Incongruent right error Normal 949.5383
807 42 LeftLarger PercCAExp1 Prime_6N Target_4A jAlMaEB eiJhBCF Incongruent left correct Normal 1112.291
807 43 LeftLarger PercCAExp1 Prime_4N Target_6N mjEJbeH mLCEbBJ Incongruent right error Normal 1021.222
807 44 LeftLarger PercCAExp1 Prime_9A Target_1N bMJjhEl hfMCklc Incongruent right error Normal 659.7731
807 45 LeftLarger PercCAExp1 Prime_1A Target_1A bJIhamg kGCDmKF Congruent left error Normal 594.5797
807 46 LeftLarger PercCAExp1 Prime_1N Target_1A fiIBkhl fjEieLc Congruent right correct Normal 481.1711
807 47 LeftLarger PercCAExp1 Prime_6N Target_4N ciMIgHm EdgLhCi Incongruent left correct Normal 1445.022
807 48 LeftLarger PercCAExp1 Prime_1N Target_4N HAcejmi mekGMla Congruent left error Normal 963.9667
807 49 LeftLarger PercCAExp1 Prime_4N Target_9A IElDehm DBeJgkF Incongruent right error Normal 722.8072
807 50 LeftLarger PercCAExp1 Prime_1A Target_9A EJklaFH cIBEgbJ Incongruent right error Normal 1166.824
807 51 LeftLarger PercCAExp1 Prime_1N Target_9N chHIife HahbfEJ Incongruent right error Normal 613.7672
807 52 LeftLarger PercCAExp1 Prime_9N Target_9N lDFbKma EeLBdKf Congruent right correct Normal 715.6074
807 53 LeftLarger PercCAExp1 Prime_4A Target_6N dJLAEIC EMDbHgh Incongruent right error Normal 491.0844
807 54 LeftLarger PercCAExp1 Prime_1A Target_1N ICicaeA IfkldAi Congruent left error Normal 697.4936
807 55 LeftLarger PercCAExp1 Prime_1N Target_1N dIDFleg ckFGHmb Congruent left error Normal 1164.411
807 56 LeftLarger PercCAExp1 Prime_9A Target_9N AHmLJde EilAhfJ Congruent right correct Normal 606.4608
807 57 LeftLarger PercCAExp1 Prime_6A Target_9A MCkHIdb BeilmID Congruent left error Normal 804.4943
807 58 LeftLarger PercCAExp1 Prime_4A Target_6A HKhfJbd eJfiBCH Incongruent left correct Normal 847.7508
807 59 LeftLarger PercCAExp1 Prime_6A Target_6N FKBaMiC bjCckif Congruent right correct Normal 808.4699
807 60 LeftLarger PercCAExp1 Prime_6N Target_6N jCaBElM gfDAakC Congruent right correct Normal 586.129
807 61 LeftLarger PercCAExp1 Prime_9N Target_6N hcJIkBK FMfDhbA Congruent left error Normal 799.1409
807 62 LeftLarger PercCAExp1 Prime_1A Target_9N EBdlbKf ceBJKbg Incongruent left correct Normal 1055.995
807 63 LeftLarger PercCAExp1 Prime_1A Target_6N dkMDFgG dIhlHek Incongruent left correct Normal 923.7476
807 64 LeftLarger PercCAExp1 Prime_1A Target_4A GgKadID BgaiGhM Congruent left error Normal 737.0814
807 65 LeftLarger PercCAExp1 Prime_1N Target_4A eAigLfk edfDjBL Congruent left error Normal 1258.081
807 66 LeftLarger PercCAExp1 Prime_9A Target_4N ifbIkAK eMfjJHD Incongruent left correct Normal 1477.056
807 67 LeftLarger PercCAExp1 Prime_6N Target_1N gabJFke KCkAfBj Incongruent right error Normal 1429.856
807 68 LeftLarger PercCAExp1 Prime_9A Target_4A IfCemED KChmdiD Incongruent left correct Normal 1041.94
807 69 LeftLarger PercCAExp1 Prime_9N Target_1A JKmIedg HFmBMKJ Incongruent left correct Normal 1416.076
807 70 LeftLarger PercCAExp1 Prime_4N Target_6A lieBmAG gCfGBhM Incongruent left correct Normal 1118.37
807 71 LeftLarger PercCAExp1 Prime_9N Target_6A mbMKCle IifLhab Congruent left error Normal 1128.23
807 72 LeftLarger PercCAExp1 Prime_6A Target_4N lbehDIK gHeEDFh Incongruent left correct Normal 1802.748
807 73 LeftLarger PercCAExp1 Prime_4N Target_4A DdkAebL AgcDdEG Congruent left error Normal 1147.24
807 74 LeftLarger PercCAExp1 Prime_1N Target_6A eckfaAC HmfJlba Incongruent right error Normal 889.5965
807 75 LeftLarger PercCAExp1 Prime_4N Target_9N AeCLMHF klMFfme Incongruent right error Normal 946.0638
807 76 LeftLarger PercCAExp1 Prime_9A Target_6N BgHjeDL jJEleMI Congruent left error Normal 1426.562
807 77 LeftLarger PercCAExp1 Prime_4A Target_4A cDILiCl mkalAfJ Congruent right correct Normal 798.4169
807 78 LeftLarger PercCAExp1 Prime_9N Target_1N cJBjImh JChbKmi Incongruent right error Normal 1115.051
807 79 LeftLarger PercCAExp1 Prime_6N Target_1A MAmIiFd DCLIeiE Incongruent right error Normal 468.1568
807 80 LeftLarger PercCAExp1 Prime_6A Target_1A JCjcgdK cMkLbDK Incongruent right error Normal 579.6835
807 81 LeftSmaller PercCBPrac Prime_4A Target_1N fCFblDH LaAGEdi Congruent right error Normal 707.5695
807 82 LeftSmaller PercCBPrac Prime_4A Target_6N FCaLlci bdigLje Incongruent left error Normal 661.6389
807 83 LeftSmaller PercCBPrac Prime_6A Target_4A dmHKJMb ambCJKL Incongruent right correct Normal 714.7941
807 84 LeftSmaller PercCBPrac Prime_6N Target_4A lIhbdFg MJGEbHh Incongruent left error Normal 1243.807
807 85 LeftSmaller PercCBPrac Prime_9N Target_4A KmMEBdj daKFHAm Incongruent right correct Normal 877.8393
807 86 LeftSmaller PercCBPrac Prime_6A Target_1A hjAibKB heAdmgj Incongruent right correct Normal 643.6864
807 87 LeftSmaller PercCBPrac Prime_1A Target_6N aBKHLCI kBaiemC Incongruent right correct Normal 909.8432
807 88 LeftSmaller PercCBPrac Prime_1N Target_6N HJgMIdj MaJmAif Incongruent right correct Normal 1084.429
807 89 LeftSmaller PercCBPrac Prime_9A Target_4A JjBCADa hAJMDif Incongruent left error Normal 968.7503
807 90 LeftSmaller PercCBPrac Prime_1A Target_9N ahAJekM MclFAae Incongruent right correct Normal 932.8797
807 91 LeftSmaller PercCBPrac Prime_1N Target_6A iFmlEeG fcAHLMm Incongruent left error Normal 1180.812
807 92 LeftSmaller PercCBPrac Prime_6N Target_9N dgkIGHB lCmegdH Congruent right error Normal 827.1106
807 93 LeftSmaller PercCBPrac Prime_4A Target_9N MLICBeK EIJfcGb Incongruent right correct Normal 987.9164
807 94 LeftSmaller PercCBPrac Prime_9N Target_1A AcbiEMG LkgHaKC Incongruent right correct Normal 725.4638
807 95 LeftSmaller PercCBPrac Prime_9A Target_4N FHjDekg GmdIJHM Incongruent right correct Normal 997.2474
807 96 LeftSmaller PercCBPrac Prime_9N Target_9A GCAiLce KdelIAJ Congruent right error Normal 1048.677
807 97 LeftSmaller PercCBExp1 Prime_4A Target_6N iFfDEkj JdDmbjh Incongruent left error Normal 790.1083
807 98 LeftSmaller PercCBExp1 Prime_6A Target_1N FKDemJd BhfKlHd Incongruent right correct Normal 593.0522
807 99 LeftSmaller PercCBExp1 Prime_4N Target_4N aDkCjMm kcdhieL Congruent right error Normal 642.7291
807 100 LeftSmaller PercCBExp1 Prime_9A Target_6A iEgcblj aeilhMm Congruent left correct Normal 634.4998
807 101 LeftSmaller PercCBExp1 Prime_1N Target_6A EkajIBC CcEBmJA Incongruent right correct Normal 728.1087
807 102 LeftSmaller PercCBExp1 Prime_1A Target_1A cfCGAFE MEeJFBL Congruent right error Normal 504.1016
807 103 LeftSmaller PercCBExp1 Prime_1A Target_4A fegmIlK bJmIiKd Congruent right error Normal 916.451
807 104 LeftSmaller PercCBExp1 Prime_6A Target_9A HdfhFgi AHfdBcm Congruent left correct Normal 736.4268
807 105 LeftSmaller PercCBExp1 Prime_4N Target_6A IcgfajA ECFfdLD Incongruent left error Normal 814.6121
807 106 LeftSmaller PercCBExp1 Prime_6N Target_6N AIfmKJj LHmDGhA Congruent left correct Normal 651.2557
807 107 LeftSmaller PercCBExp1 Prime_9A Target_4A hgcJCAk EmeKHBJ Incongruent right correct Normal 765.826
807 108 LeftSmaller PercCBExp1 Prime_4A Target_4A GJadMFD JbigHAj Congruent right error Normal 543.0073
807 109 LeftSmaller PercCBExp1 Prime_1N Target_9N IAKjHJF LIBAhJc Incongruent left error Normal 847.282
807 110 LeftSmaller PercCBExp1 Prime_9N Target_6A HFDLhaM LCBleAj Congruent left correct Normal 640.3235
807 111 LeftSmaller PercCBExp1 Prime_9A Target_6N afBlecJ kmAGcCH Congruent left correct Normal 551.6336
807 112 LeftSmaller PercCBExp1 Prime_4A Target_4N KkhAjIb MEjdAFg Congruent left correct Normal 1046.536
807 113 LeftSmaller PercCBExp1 Prime_1N Target_6N chLFjKG MLDlBdb Incongruent left error Normal 618.3636
807 114 LeftSmaller PercCBExp1 Prime_4N Target_4A ABDdFea iAEGBLC Congruent left correct Normal 596.5199
807 115 LeftSmaller PercCBExp1 Prime_1A Target_6A chfjdJE HCglLdc Incongruent right correct Normal 599.3236
807 116 LeftSmaller PercCBExp1 Prime_4A Target_1N dcDIMKH gfDEaBM Congruent right error Normal 773.0181
807 117 LeftSmaller PercCBExp1 Prime_6N Target_4A FamGfiM megKCJf Incongruent left error Normal 791.8945
807 118 LeftSmaller PercCBExp1 Prime_1A Target_9A kDiBcLF LDFlKki Incongruent right correct Normal 626.929
807 119 LeftSmaller PercCBExp1 Prime_4N Target_1A DdafLIi CmJEKjB Congruent right error Normal 509.9788
807 120 LeftSmaller PercCBExp1 Prime_9N Target_1A hAkIjmH KFJEgjB Incongruent right correct Normal 884.399
807 121 LeftSmaller PercCBExp1 Prime_1N Target_4N ceEhdlK hmeHflD Congruent right error Normal 968.3362
807 122 LeftSmaller PercCBExp1 Prime_4N Target_9N gamJBcF akEjFdJ Incongruent left error Normal 929.3556
807 123 LeftSmaller PercCBExp1 Prime_4A Target_9A dLDIKFf EcJFGAl Incongruent right correct Normal 609.5374
807 124 LeftSmaller PercCBExp1 Prime_1A Target_6N kiBMlbh lgkBbdH Incongruent right correct Normal 938.4682
807 125 LeftSmaller PercCBExp1 Prime_4N Target_6N EHjGdhD mEdfcJI Incongruent right correct Normal 551.0185
807 126 LeftSmaller PercCBExp1 Prime_1A Target_9N MgBdjLa cCkLieM Incongruent right correct Normal 631.8759
807 127 LeftSmaller PercCBExp1 Prime_6A Target_4N hgDMBec LaGbgKB Incongruent right correct Normal 1275.043
807 128 LeftSmaller PercCBExp1 Prime_9A Target_9N HhJEfiL daDhLBJ Congruent left correct Normal 706.4959
807 129 LeftSmaller PercCBExp1 Prime_9N Target_9N aicjFdG MAehFJD Congruent left correct Normal 534.9735
807 130 LeftSmaller PercCBExp1 Prime_6N Target_9A KfcLlmb jhfHbCF Congruent left correct Normal 671.1018
807 131 LeftSmaller PercCBExp1 Prime_1N Target_1A fFHbGBg iHkhDIB Congruent right error Normal 397.9678
807 132 LeftSmaller PercCBExp1 Prime_6N Target_4N gjkFLfd gHBAhMI Incongruent left error Normal 672.8347
807 133 LeftSmaller PercCBExp1 Prime_6A Target_1A fLHdemk ciCLmBF Incongruent right correct Normal 716.1838
807 134 LeftSmaller PercCBExp1 Prime_6N Target_1N KfmMdAL JdIhmiL Incongruent right correct Normal 582.3658
807 135 LeftSmaller PercCBExp1 Prime_1A Target_1N eLCDGHm edMmlCj Congruent left correct Normal 766.7957
807 136 LeftSmaller PercCBExp1 Prime_6N Target_6A AifEBaK dMEcADk Congruent left correct Normal 709.3826
807 137 LeftSmaller PercCBExp1 Prime_6A Target_6N HhMmeAi BghbmeM Congruent left correct Normal 463.0619
807 138 LeftSmaller PercCBExp1 Prime_4A Target_1A hDIGiJC DfjLaiH Congruent right error Normal 493.7246
807 139 LeftSmaller PercCBExp1 Prime_9N Target_9A gKFfEdH hLkeIGA Congruent left correct Normal 376.4966
807 140 LeftSmaller PercCBExp1 Prime_6A Target_4A iejJlGI MiLmkGI Incongruent right correct Normal 694.5068
807 141 LeftSmaller PercCBExp1 Prime_6A Target_9N DcmdhBH cflbmAj Congruent left correct Normal 739.7023
807 142 LeftSmaller PercCBExp1 Prime_6N Target_9N CJiAmMB ehmHDCM Congruent left correct Normal 556.6453
807 143 LeftSmaller PercCBExp1 Prime_1N Target_9A fIKCaLM AIFkLHe Incongruent right correct Normal 921.1389
807 144 LeftSmaller PercCBExp1 Prime_6N Target_1A HgFjBAk EiLDmIe Incongruent left error Normal 838.6277
807 145 LeftSmaller PercCBExp1 Prime_6A Target_6A CgIkeDE dAElCKD Congruent left correct Normal 679.0306
807 146 LeftSmaller PercCBExp1 Prime_4A Target_6A BLaljHJ MmLAGkc Incongruent right correct Late 15866.78
807 147 LeftSmaller PercCBExp1 Prime_9N Target_4A IGbdAeh IdDgaCm Incongruent right correct Normal 560.5261
807 148 LeftSmaller PercCBExp1 Prime_4N Target_1N JmkEMDL klHcAGM Congruent left correct Normal 568.1756
807 149 LeftSmaller PercCBExp1 Prime_1A Target_4N mCiDdFe aBMjmCL Congruent left correct Normal 523.9817
807 150 LeftSmaller PercCBExp1 Prime_9A Target_4N kfaBGdb hmAEHjk Incongruent right correct Normal 653.6307
807 151 LeftSmaller PercCBExp1 Prime_4N Target_9A bJDglkf bHDCGBf Incongruent left error Normal 770.4564
807 152 LeftSmaller PercCBExp1 Prime_9N Target_4N FKbHMLf clFCaGk Incongruent right correct Normal 867.8599
807 153 LeftSmaller PercCBExp1 Prime_9N Target_1N AfbiBFh bhBmkIa Incongruent left error Normal 431.2936
807 154 LeftSmaller PercCBExp1 Prime_1N Target_4A EjcGHaB jHfmIFe Congruent left correct Normal 459.5128
807 155 LeftSmaller PercCBExp1 Prime_9N Target_6N FbeCIjL LMIgAcd Congruent left correct Normal 655.0089
