Subject	Group	Block	ColorTMS[Block]	Confidence.RESP[Block]	correctResponseButton	correctRT[Block]	GrayTMS[Block]	leftStimulus[Block]	Number[Block]	NumberResponse[Block]	PracticeList	PracticeList.Cycle	PracticeList.Sample	Reaction.RT[Block]	Response.RESP[Block]	ResponseAccuracy[Block]	responseHand	rightStimulus[Block]	Running[Block]	StimulusColor[Block]	TMS	Trial	Hemisphere	Procedure[Trial]	Running[Trial]	SubTrial	CenterColorList	CenterColorList.Cycle	CenterColorList.Sample	LeftColorList	LeftColorList.Cycle	LeftColorList.Sample	Procedure[SubTrial]	RightColorList	RightColorList.Cycle	RightColorList.Sample	Running[SubTrial]	StimulusColor[SubTrial]	VariOhje	VariOhje2	LogLevel5	CenterTrialList	CenterTrialList.Cycle	CenterTrialList.Sample	ColorTMS[LogLevel5]	Confidence.RESP[LogLevel5]	correctRT[LogLevel5]	GrayTMS[LogLevel5]	leftStimulus[LogLevel5]	LeftTrialList	LeftTrialList.Cycle	LeftTrialList.Sample	Number[LogLevel5]	NumberResponse[LogLevel5]	Procedure[LogLevel5]	Reaction.RT[LogLevel5]	Response.RESP[LogLevel5]	ResponseAccuracy[LogLevel5]	rightStimulus[LogLevel5]	RightTrialList	RightTrialList.Cycle	RightTrialList.Sample	Running[LogLevel5]
1	1	1	0	4	6	0	0	0	0	0	4	1	1	0	3	1		0	PracticeList	Red	0																																										
1	1	2	0	4	6	791	0	0	1	1	2	1	2	774	1	1		1	PracticeList	Red	0																																										
1	1	3	0	4	6	466	0	0	1	1	2	1	3	450	1	1		1	PracticeList	Red	0																																										
1	1	4	0	4	6	750	0	1	1	1	1	1	4	734	1	1		0	PracticeList	Red	0																																										
1	1	5	0	4	6	461	0	1	1	1	1	1	5	444	1	1		0	PracticeList	Red	0																																										
1	1	6	0	4	6	490	0	1	2	2	3	1	6	474	2	1		1	PracticeList	Red	0																																										
1	1	7	0	4	6	578	0	1	2	2	3	1	7	561	2	1		1	PracticeList	Red	0																																										
1	1	8	0	4	6	325	0	1	2	2	3	1	8	308	2	1		1	PracticeList	Red	0																																										
1	1	9	0	4	6	625	0	0	1	1	2	1	9	609	1	1		1	PracticeList	Red	0																																										
1	1	10	0	4	6	461	0	1	2	2	3	1	10	444	2	1		1	PracticeList	Red	0																																										
1	1	11	0	4	6	381	0	1	1	1	1	1	11	364	1	1		0	PracticeList	Red	0																																										
1	1	12	0	4	6	375	0	1	1	1	1	1	12	359	1	1		0	PracticeList	Red	0																																										
1	1	13	0	3	6	0	0	0	0	0	4	1	13	0	3	1		0	PracticeList	Red	0																																										
1	1	14	0	3	6	368	0	0	1	1	2	1	14	351	1	1		1	PracticeList	Red	0																																										
1	1	15	0	4	6	370	0	1	1	1	1	1	15	353	1	1		0	PracticeList	Red	0																																										
1	1	16	0	4	6	0	0	0	1	0	2	1	16	0	3	0		1	PracticeList	Red	0																																										
1	1	17	0	4	6	0	0	0	0	0	4	1	17	0	3	1		0	PracticeList	Red	0																																										
1	1	18	0	4	6	0	0	0	0	0	4	1	18	0	3	1		0	PracticeList	Red	0																																										
1	1	19	0	4	6	0	0	1	1	1	1	1	19	0	1	1		0	PracticeList	Red	0																																										
1	1	20	0	4	6	0	0	0	0	0	4	1	20	0	3	1		0	PracticeList	Red	0																																										
1	1	21	0	4	6	433	0	1	2	2	3	1	21	416	2	1		1	PracticeList	Red	0																																										
1	1	22	0	4	6	408	0	1	2	2	3	1	22	392	2	1		1	PracticeList	Red	0																																										
1	1	23	0	4	6	389	0	1	1	1	1	1	23	372	1	1		0	PracticeList	Red	0																																										
1	1	24	0	4	6	377	0	1	2	2	3	1	24	360	2	1		1	PracticeList	Red	0																																										
1	1	25	0	4	6	0	0	0	0	0	4	1	25	0	3	1		0	PracticeList	Red	0																																										
1	1	26	0	4	6	0	0	0	0	0	4	1	26	0	3	1		0	PracticeList	Red	0																																										
1	1	27	0	2	6	0	0	0	0	1	4	1	27	0	1	0		0	PracticeList	Red	0																																										
1	1	28	0	2	6	0	0	0	1	1	2	1	28	0	1	1		1	PracticeList	Red	0																																										
1	1	29	0	3	6	379	0	1	1	1	1	1	29	362	1	1		0	PracticeList	Red	0																																										
1	1	30	0	4	6	379	0	0	1	1	2	1	30	362	1	1		1	PracticeList	Red	0																																										
1	1	31	0	4	6	475	0	0	1	1	2	1	31	458	1	1		1	PracticeList	Red	0																																										
1	1	32	0	2	6	0	0	0	0	0	4	1	32	0	3	1		0	PracticeList	Red	0																																										
1	1	33	0	4	6	361	0	0	1	1	2	1	33	345	1	1		1	PracticeList	Red	0																																										
1	1	34	0	4	6	465	0	1	2	2	3	1	34	448	2	1		1	PracticeList	Red	0																																										
1	1	35	0	4	6	437	0	1	1	1	1	1	35	421	1	1		0	PracticeList	Red	0																																										
1	1	36	0	4	6	357	0	1	2	2	3	1	36	340	2	1		1	PracticeList	Red	0																																										
1	1	37	0	4	6	0	0	0	0	0	4	1	37	0	3	1		0	PracticeList	Red	0																																										
1	1	38	0	4	6	335	0	0	1	1	2	1	38	318	1	1		1	PracticeList	Red	0																																										
1	1	39	0	4	6	359	0	1	1	1	1	1	39	342	1	1		0	PracticeList	Red	0																																										
1	1	40	0	2	6	394	0	1	2	1	3	1	40	377	1	0		1	PracticeList	Red	0																																										
1	1	41			5												VASENTA		ResponseHandList		1	1	Left	LeftHemiProc	HemiList	1				2	1	1	LeftColorProc				LeftColorList	Blue	SINISEN	sini	1				1	3	335	0	1	3	1	1	2	2	LeftTrialProc	318	2	1	1				LeftTrialList
1	1	41			5												VASENTA		ResponseHandList		1	1	Left	LeftHemiProc	HemiList	1				2	1	1	LeftColorProc				LeftColorList	Blue	SINISEN	sini	2				1	4	362	0	1	3	1	2	2	1	LeftTrialProc	345	1	0	1				LeftTrialList
1	1	41			5												VASENTA		ResponseHandList		1	1	Left	LeftHemiProc	HemiList	1				2	1	1	LeftColorProc				LeftColorList	Blue	SINISEN	sini	3				0	4	0	1	0	4	1	3	0	0	LeftTrialProc	0	3	1	0				LeftTrialList
1	1	41			5												VASENTA		ResponseHandList		1	1	Left	LeftHemiProc	HemiList	1				2	1	1	LeftColorProc				LeftColorList	Blue	SINISEN	sini	4				1	3	0	0	0	2	1	4	1	0	LeftTrialProc	0	3	0	1				LeftTrialList
1	1	41			5												VASENTA		ResponseHandList		1	1	Left	LeftHemiProc	HemiList	1				2	1	1	LeftColorProc				LeftColorList	Blue	SINISEN	sini	5				1	4	345	0	1	3	1	5	2	1	LeftTrialProc	328	1	0	1				LeftTrialList
1	1	41			5												VASENTA		ResponseHandList		1	1	Left	LeftHemiProc	HemiList	1				2	1	1	LeftColorProc				LeftColorList	Blue	SINISEN	sini	6				1	3	334	0	1	3	1	6	2	1	LeftTrialProc	317	1	0	1				LeftTrialList
1	1	41			5												VASENTA		ResponseHandList		1	1	Left	LeftHemiProc	HemiList	1				2	1	1	LeftColorProc				LeftColorList	Blue	SINISEN	sini	7				0	4	308	1	1	1	1	7	1	1	LeftTrialProc	292	1	1	0				LeftTrialList
1	1	41			5												VASENTA		ResponseHandList		1	1	Left	LeftHemiProc	HemiList	1				2	1	1	LeftColorProc				LeftColorList	Blue	SINISEN	sini	8				1	4	360	0	1	3	1	8	2	1	LeftTrialProc	343	1	0	1				LeftTrialList
1	1	41			5												VASENTA		ResponseHandList		1	1	Left	LeftHemiProc	HemiList	1				2	1	1	LeftColorProc				LeftColorList	Blue	SINISEN	sini	9				1	4	374	0	1	3	1	9	2	1	LeftTrialProc	357	1	0	1				LeftTrialList
1	1	41			5												VASENTA		ResponseHandList		1	1	Left	LeftHemiProc	HemiList	1				2	1	1	LeftColorProc				LeftColorList	Blue	SINISEN	sini	10				0	3	319	1	1	1	1	10	1	1	LeftTrialProc	302	1	1	0				LeftTrialList
1	1	41			5												VASENTA		ResponseHandList		1	1	Left	LeftHemiProc	HemiList	1				2	1	1	LeftColorProc				LeftColorList	Blue	SINISEN	sini	11				1	4	291	0	1	3	1	11	2	1	LeftTrialProc	274	1	0	1				LeftTrialList
1	1	41			5												VASENTA		ResponseHandList		1	1	Left	LeftHemiProc	HemiList	1				2	1	1	LeftColorProc				LeftColorList	Blue	SINISEN	sini	12				0	4	326	1	1	1	1	12	1	1	LeftTrialProc	309	1	1	0				LeftTrialList
1	1	41			5												VASENTA		ResponseHandList		1	1	Left	LeftHemiProc	HemiList	1				2	1	1	LeftColorProc				LeftColorList	Blue	SINISEN	sini	13				0	2	323	1	1	1	1	13	1	0	LeftTrialProc	306	3	0	0				LeftTrialList
1	1	41			5												VASENTA		ResponseHandList		1	1	Left	LeftHemiProc	HemiList	1				2	1	1	LeftColorProc				LeftColorList	Blue	SINISEN	sini	14				0	4	0	1	0	4	1	14	0	0	LeftTrialProc	0	3	1	0				LeftTrialList
1	1	41			5												VASENTA		ResponseHandList		1	1	Left	LeftHemiProc	HemiList	1				2	1	1	LeftColorProc				LeftColorList	Blue	SINISEN	sini	15				0	4	334	1	1	1	1	15	1	1	LeftTrialProc	317	1	1	0				LeftTrialList
1	1	41			5												VASENTA		ResponseHandList		1	1	Left	LeftHemiProc	HemiList	1				2	1	1	LeftColorProc				LeftColorList	Blue	SINISEN	sini	16				1	4	306	0	1	3	1	16	2	1	LeftTrialProc	289	1	0	1				LeftTrialList
1	1	41			5												VASENTA		ResponseHandList		1	1	Left	LeftHemiProc	HemiList	1				2	1	1	LeftColorProc				LeftColorList	Blue	SINISEN	sini	17				0	3	369	1	1	1	1	17	1	1	LeftTrialProc	352	1	1	0				LeftTrialList
1	1	41			5												VASENTA		ResponseHandList		1	1	Left	LeftHemiProc	HemiList	1				2	1	1	LeftColorProc				LeftColorList	Blue	SINISEN	sini	18				1	4	333	0	1	3	1	18	2	1	LeftTrialProc	316	1	0	1				LeftTrialList
1	1	41			5												VASENTA		ResponseHandList		1	1	Left	LeftHemiProc	HemiList	1				2	1	1	LeftColorProc				LeftColorList	Blue	SINISEN	sini	19				0	3	0	1	0	4	1	19	0	0	LeftTrialProc	0	3	1	0				LeftTrialList
1	1	41			5												VASENTA		ResponseHandList		1	1	Left	LeftHemiProc	HemiList	1				2	1	1	LeftColorProc				LeftColorList	Blue	SINISEN	sini	20				0	4	324	1	1	1	1	20	1	1	LeftTrialProc	308	1	1	0				LeftTrialList
1	1	41			5												VASENTA		ResponseHandList		1	1	Left	LeftHemiProc	HemiList	1				2	1	1	LeftColorProc				LeftColorList	Blue	SINISEN	sini	21				1	4	0	0	0	2	1	21	1	0	LeftTrialProc	0	3	0	1				LeftTrialList
1	1	41			5												VASENTA		ResponseHandList		1	1	Left	LeftHemiProc	HemiList	1				2	1	1	LeftColorProc				LeftColorList	Blue	SINISEN	sini	22				0	2	320	1	1	1	1	22	1	1	LeftTrialProc	303	1	1	0				LeftTrialList
1	1	41			5												VASENTA		ResponseHandList		1	1	Left	LeftHemiProc	HemiList	1				2	1	1	LeftColorProc				LeftColorList	Blue	SINISEN	sini	23				1	4	0	0	0	2	1	23	1	0	LeftTrialProc	0	3	0	1				LeftTrialList
1	1	41			5												VASENTA		ResponseHandList		1	1	Left	LeftHemiProc	HemiList	1				2	1	1	LeftColorProc				LeftColorList	Blue	SINISEN	sini	24				1	4	289	0	1	3	1	24	2	1	LeftTrialProc	273	1	0	1				LeftTrialList
1	1	41			5												VASENTA		ResponseHandList		1	1	Left	LeftHemiProc	HemiList	1				2	1	1	LeftColorProc				LeftColorList	Blue	SINISEN	sini	25				1	4	0	0	0	2	1	25	1	0	LeftTrialProc	0	3	0	1				LeftTrialList
1	1	41			5												VASENTA		ResponseHandList		1	1	Left	LeftHemiProc	HemiList	1				2	1	1	LeftColorProc				LeftColorList	Blue	SINISEN	sini	26				1	2	431	0	1	3	1	26	2	1	LeftTrialProc	414	1	0	1				LeftTrialList
1	1	41			5												VASENTA		ResponseHandList		1	1	Left	LeftHemiProc	HemiList	1				2	1	1	LeftColorProc				LeftColorList	Blue	SINISEN	sini	27				0	4	308	1	1	1	1	27	1	1	LeftTrialProc	291	1	1	0				LeftTrialList
1	1	41			5												VASENTA		ResponseHandList		1	1	Left	LeftHemiProc	HemiList	1				2	1	1	LeftColorProc				LeftColorList	Blue	SINISEN	sini	28				0	4	297	1	1	1	1	28	1	1	LeftTrialProc	280	1	1	0				LeftTrialList
1	1	41			5												VASENTA		ResponseHandList		1	1	Left	LeftHemiProc	HemiList	1				2	1	1	LeftColorProc				LeftColorList	Blue	SINISEN	sini	29				1	4	0	0	0	2	1	29	1	0	LeftTrialProc	0	3	0	1				LeftTrialList
1	1	41			5												VASENTA		ResponseHandList		1	1	Left	LeftHemiProc	HemiList	1				2	1	1	LeftColorProc				LeftColorList	Blue	SINISEN	sini	30				0	4	274	1	1	1	1	30	1	1	LeftTrialProc	257	1	1	0				LeftTrialList
1	1	41			5												VASENTA		ResponseHandList		1	1	Left	LeftHemiProc	HemiList	1				2	1	1	LeftColorProc				LeftColorList	Blue	SINISEN	sini	31				0	4	315	1	1	1	1	31	1	1	LeftTrialProc	298	1	1	0				LeftTrialList
1	1	41			5												VASENTA		ResponseHandList		1	1	Left	LeftHemiProc	HemiList	1				2	1	1	LeftColorProc				LeftColorList	Blue	SINISEN	sini	32				0	4	328	1	1	1	1	32	1	1	LeftTrialProc	311	1	1	0				LeftTrialList
1	1	41			5												VASENTA		ResponseHandList		1	1	Left	LeftHemiProc	HemiList	1				2	1	1	LeftColorProc				LeftColorList	Blue	SINISEN	sini	33				1	3	428	0	1	3	1	33	2	1	LeftTrialProc	412	1	0	1				LeftTrialList
1	1	41			5												VASENTA		ResponseHandList		1	1	Left	LeftHemiProc	HemiList	1				2	1	1	LeftColorProc				LeftColorList	Blue	SINISEN	sini	34				0	4	0	1	0	4	1	34	0	0	LeftTrialProc	0	3	1	0				LeftTrialList
1	1	41			5												VASENTA		ResponseHandList		1	1	Left	LeftHemiProc	HemiList	1				2	1	1	LeftColorProc				LeftColorList	Blue	SINISEN	sini	35				1	2	0	0	0	2	1	35	1	0	LeftTrialProc	0	3	0	1				LeftTrialList
1	1	41			5												VASENTA		ResponseHandList		1	1	Left	LeftHemiProc	HemiList	1				2	1	1	LeftColorProc				LeftColorList	Blue	SINISEN	sini	36				1	4	0	0	0	2	1	36	1	0	LeftTrialProc	0	3	0	1				LeftTrialList
1	1	41			5												VASENTA		ResponseHandList		1	1	Left	LeftHemiProc	HemiList	1				2	1	1	LeftColorProc				LeftColorList	Blue	SINISEN	sini	37				0	3	0	1	0	4	1	37	0	0	LeftTrialProc	0	3	1	0				LeftTrialList
1	1	41			5												VASENTA		ResponseHandList		1	1	Left	LeftHemiProc	HemiList	1				2	1	1	LeftColorProc				LeftColorList	Blue	SINISEN	sini	38				0	4	300	1	1	1	1	38	1	1	LeftTrialProc	283	1	1	0				LeftTrialList
1	1	41			5												VASENTA		ResponseHandList		1	1	Left	LeftHemiProc	HemiList	1				2	1	1	LeftColorProc				LeftColorList	Blue	SINISEN	sini	39				0	4	0	1	0	4	1	39	0	0	LeftTrialProc	0	3	1	0				LeftTrialList
1	1	41			5												VASENTA		ResponseHandList		1	1	Left	LeftHemiProc	HemiList	1				2	1	1	LeftColorProc				LeftColorList	Blue	SINISEN	sini	40				0	4	341	1	1	1	1	40	1	1	LeftTrialProc	324	1	1	0				LeftTrialList
1	1	41			5												VASENTA		ResponseHandList		1	1	Left	LeftHemiProc	HemiList	1				2	1	1	LeftColorProc				LeftColorList	Blue	SINISEN	sini	41				1	3	412	0	1	3	1	41	2	1	LeftTrialProc	395	1	0	1				LeftTrialList
1	1	41			5												VASENTA		ResponseHandList		1	1	Left	LeftHemiProc	HemiList	1				2	1	1	LeftColorProc				LeftColorList	Blue	SINISEN	sini	42				0	4	325	1	1	1	1	42	1	1	LeftTrialProc	308	1	1	0				LeftTrialList
1	1	41			5												VASENTA		ResponseHandList		1	1	Left	LeftHemiProc	HemiList	1				2	1	1	LeftColorProc				LeftColorList	Blue	SINISEN	sini	43				1	4	0	0	0	2	1	43	1	0	LeftTrialProc	0	3	0	1				LeftTrialList
1	1	41			5												VASENTA		ResponseHandList		1	1	Left	LeftHemiProc	HemiList	1				2	1	1	LeftColorProc				LeftColorList	Blue	SINISEN	sini	44				1	3	355	0	1	3	1	44	2	1	LeftTrialProc	338	1	0	1				LeftTrialList
1	1	41			5												VASENTA		ResponseHandList		1	1	Left	LeftHemiProc	HemiList	1				2	1	1	LeftColorProc				LeftColorList	Blue	SINISEN	sini	45				0	4	378	1	1	1	1	45	1	1	LeftTrialProc	361	1	1	0				LeftTrialList
1	1	41			5												VASENTA		ResponseHandList		1	1	Left	LeftHemiProc	HemiList	1				2	1	1	LeftColorProc				LeftColorList	Blue	SINISEN	sini	46				0	4	0	1	0	4	1	46	0	0	LeftTrialProc	0	3	1	0				LeftTrialList
1	1	41			5												VASENTA		ResponseHandList		1	1	Left	LeftHemiProc	HemiList	1				2	1	1	LeftColorProc				LeftColorList	Blue	SINISEN	sini	47				1	3	0	0	0	2	1	47	1	0	LeftTrialProc	0	3	0	1				LeftTrialList
1	1	41			5												VASENTA		ResponseHandList		1	1	Left	LeftHemiProc	HemiList	1				2	1	1	LeftColorProc				LeftColorList	Blue	SINISEN	sini	48				1	4	320	0	1	3	1	48	2	2	LeftTrialProc	303	2	1	1				LeftTrialList
1	1	41			5												VASENTA		ResponseHandList		1	1	Left	LeftHemiProc	HemiList	1				2	1	1	LeftColorProc				LeftColorList	Blue	SINISEN	sini	49				0	4	343	1	1	1	1	49	1	1	LeftTrialProc	326	1	1	0				LeftTrialList
1	1	41			5												VASENTA		ResponseHandList		1	1	Left	LeftHemiProc	HemiList	1				2	1	1	LeftColorProc				LeftColorList	Blue	SINISEN	sini	50				0	4	0	1	0	4	1	50	0	0	LeftTrialProc	0	3	1	0				LeftTrialList
1	1	41			5												VASENTA		ResponseHandList		1	1	Left	LeftHemiProc	HemiList	1				2	1	1	LeftColorProc				LeftColorList	Blue	SINISEN	sini	51				1	4	392	0	1	3	1	51	2	2	LeftTrialProc	375	2	1	1				LeftTrialList
1	1	41			5												VASENTA		ResponseHandList		1	1	Left	LeftHemiProc	HemiList	1				2	1	1	LeftColorProc				LeftColorList	Blue	SINISEN	sini	52				0	3	337	1	1	1	1	52	1	1	LeftTrialProc	320	1	1	0				LeftTrialList
1	1	41			5												VASENTA		ResponseHandList		1	1	Left	LeftHemiProc	HemiList	1				2	1	1	LeftColorProc				LeftColorList	Blue	SINISEN	sini	53				0	4	0	1	0	4	1	53	0	0	LeftTrialProc	0	3	1	0				LeftTrialList
1	1	41			5												VASENTA		ResponseHandList		1	1	Left	LeftHemiProc	HemiList	1				2	1	1	LeftColorProc				LeftColorList	Blue	SINISEN	sini	54				1	4	386	0	1	3	1	54	2	1	LeftTrialProc	369	1	0	1				LeftTrialList
1	1	41			5												VASENTA		ResponseHandList		1	1	Left	LeftHemiProc	HemiList	1				2	1	1	LeftColorProc				LeftColorList	Blue	SINISEN	sini	55				0	2	328	1	1	1	1	55	1	1	LeftTrialProc	312	1	1	0				LeftTrialList
1	1	41			5												VASENTA		ResponseHandList		1	1	Left	LeftHemiProc	HemiList	1				2	1	1	LeftColorProc				LeftColorList	Blue	SINISEN	sini	56				0	4	0	1	0	4	1	56	0	0	LeftTrialProc	0	3	1	0				LeftTrialList
1	1	41			5												VASENTA		ResponseHandList		1	1	Left	LeftHemiProc	HemiList	1				2	1	1	LeftColorProc				LeftColorList	Blue	SINISEN	sini	57				1	4	323	0	1	3	1	57	2	2	LeftTrialProc	306	2	1	1				LeftTrialList
1	1	41			5												VASENTA		ResponseHandList		1	1	Left	LeftHemiProc	HemiList	1				2	1	1	LeftColorProc				LeftColorList	Blue	SINISEN	sini	58				1	4	338	0	1	3	1	58	2	1	LeftTrialProc	321	1	0	1				LeftTrialList
1	1	41			5												VASENTA		ResponseHandList		1	1	Left	LeftHemiProc	HemiList	1				2	1	1	LeftColorProc				LeftColorList	Blue	SINISEN	sini	59				1	4	431	0	1	3	1	59	2	1	LeftTrialProc	414	1	0	1				LeftTrialList
1	1	41			5												VASENTA		ResponseHandList		1	1	Left	LeftHemiProc	HemiList	1				2	1	1	LeftColorProc				LeftColorList	Blue	SINISEN	sini	60				1	4	0	0	0	2	1	60	1	0	LeftTrialProc	0	3	0	1				LeftTrialList
1	1	41			5												VASENTA		ResponseHandList		1	1	Left	LeftHemiProc	HemiList	2				1	1	2	LeftColorProc				LeftColorList	Red	PUNAISEN	punai	1				1	4	305	0	1	3	2	61	2	1	LeftTrialProc	288	1	0	1				LeftTrialList
1	1	41			5												VASENTA		ResponseHandList		1	1	Left	LeftHemiProc	HemiList	2				1	1	2	LeftColorProc				LeftColorList	Red	PUNAISEN	punai	2				0	4	309	1	1	1	2	62	1	1	LeftTrialProc	292	1	1	0				LeftTrialList
1	1	41			5												VASENTA		ResponseHandList		1	1	Left	LeftHemiProc	HemiList	2				1	1	2	LeftColorProc				LeftColorList	Red	PUNAISEN	punai	3				1	4	0	0	0	2	2	63	1	0	LeftTrialProc	0	3	0	1				LeftTrialList
1	1	41			5												VASENTA		ResponseHandList		1	1	Left	LeftHemiProc	HemiList	2				1	1	2	LeftColorProc				LeftColorList	Red	PUNAISEN	punai	4				1	3	445	0	1	3	2	64	2	1	LeftTrialProc	429	1	0	1				LeftTrialList
1	1	41			5												VASENTA		ResponseHandList		1	1	Left	LeftHemiProc	HemiList	2				1	1	2	LeftColorProc				LeftColorList	Red	PUNAISEN	punai	5				1	4	458	0	0	2	2	65	1	1	LeftTrialProc	442	1	1	1				LeftTrialList
1	1	41			5												VASENTA		ResponseHandList		1	1	Left	LeftHemiProc	HemiList	2				1	1	2	LeftColorProc				LeftColorList	Red	PUNAISEN	punai	6				0	4	348	1	1	1	2	66	1	1	LeftTrialProc	331	1	1	0				LeftTrialList
1	1	41			5												VASENTA		ResponseHandList		1	1	Left	LeftHemiProc	HemiList	2				1	1	2	LeftColorProc				LeftColorList	Red	PUNAISEN	punai	7				1	2	0	0	0	2	2	67	1	1	LeftTrialProc	0	1	1	1				LeftTrialList
1	1	41			5												VASENTA		ResponseHandList		1	1	Left	LeftHemiProc	HemiList	2				1	1	2	LeftColorProc				LeftColorList	Red	PUNAISEN	punai	8				0	4	0	1	0	4	2	68	0	0	LeftTrialProc	0	3	1	0				LeftTrialList
1	1	41			5												VASENTA		ResponseHandList		1	1	Left	LeftHemiProc	HemiList	2				1	1	2	LeftColorProc				LeftColorList	Red	PUNAISEN	punai	9				0	4	0	1	0	4	2	69	0	0	LeftTrialProc	0	3	1	0				LeftTrialList
1	1	41			5												VASENTA		ResponseHandList		1	1	Left	LeftHemiProc	HemiList	2				1	1	2	LeftColorProc				LeftColorList	Red	PUNAISEN	punai	10				0	4	348	1	1	1	2	70	1	1	LeftTrialProc	332	1	1	0				LeftTrialList
1	1	41			5												VASENTA		ResponseHandList		1	1	Left	LeftHemiProc	HemiList	2				1	1	2	LeftColorProc				LeftColorList	Red	PUNAISEN	punai	11				0	4	301	1	1	1	2	71	1	1	LeftTrialProc	284	1	1	0				LeftTrialList
1	1	41			5												VASENTA		ResponseHandList		1	1	Left	LeftHemiProc	HemiList	2				1	1	2	LeftColorProc				LeftColorList	Red	PUNAISEN	punai	12				0	4	354	1	1	1	2	72	1	1	LeftTrialProc	337	1	1	0				LeftTrialList
1	1	41			5												VASENTA		ResponseHandList		1	1	Left	LeftHemiProc	HemiList	2				1	1	2	LeftColorProc				LeftColorList	Red	PUNAISEN	punai	13				1	4	330	0	1	3	2	73	2	1	LeftTrialProc	313	1	0	1				LeftTrialList
1	1	41			5												VASENTA		ResponseHandList		1	1	Left	LeftHemiProc	HemiList	2				1	1	2	LeftColorProc				LeftColorList	Red	PUNAISEN	punai	14				0	4	314	1	1	1	2	74	1	1	LeftTrialProc	297	1	1	0				LeftTrialList
1	1	41			5												VASENTA		ResponseHandList		1	1	Left	LeftHemiProc	HemiList	2				1	1	2	LeftColorProc				LeftColorList	Red	PUNAISEN	punai	15				0	4	359	1	1	1	2	75	1	1	LeftTrialProc	342	1	1	0				LeftTrialList
1	1	41			5												VASENTA		ResponseHandList		1	1	Left	LeftHemiProc	HemiList	2				1	1	2	LeftColorProc				LeftColorList	Red	PUNAISEN	punai	16				0	4	340	1	1	1	2	76	1	1	LeftTrialProc	324	1	1	0				LeftTrialList
1	1	41			5												VASENTA		ResponseHandList		1	1	Left	LeftHemiProc	HemiList	2				1	1	2	LeftColorProc				LeftColorList	Red	PUNAISEN	punai	17				0	4	413	1	1	1	2	77	1	1	LeftTrialProc	396	1	1	0				LeftTrialList
1	1	41			5												VASENTA		ResponseHandList		1	1	Left	LeftHemiProc	HemiList	2				1	1	2	LeftColorProc				LeftColorList	Red	PUNAISEN	punai	18				0	4	0	1	0	4	2	78	0	0	LeftTrialProc	0	3	1	0				LeftTrialList
1	1	41			5												VASENTA		ResponseHandList		1	1	Left	LeftHemiProc	HemiList	2				1	1	2	LeftColorProc				LeftColorList	Red	PUNAISEN	punai	19				0	3	360	1	1	1	2	79	1	1	LeftTrialProc	343	1	1	0				LeftTrialList
1	1	41			5												VASENTA		ResponseHandList		1	1	Left	LeftHemiProc	HemiList	2				1	1	2	LeftColorProc				LeftColorList	Red	PUNAISEN	punai	20				0	3	401	1	1	1	2	80	1	1	LeftTrialProc	384	1	1	0				LeftTrialList
1	1	41			5												VASENTA		ResponseHandList		1	1	Left	LeftHemiProc	HemiList	2				1	1	2	LeftColorProc				LeftColorList	Red	PUNAISEN	punai	21				0	4	0	1	0	4	2	81	0	0	LeftTrialProc	0	3	1	0				LeftTrialList
1	1	41			5												VASENTA		ResponseHandList		1	1	Left	LeftHemiProc	HemiList	2				1	1	2	LeftColorProc				LeftColorList	Red	PUNAISEN	punai	22				0	4	352	1	1	1	2	82	1	1	LeftTrialProc	335	1	1	0				LeftTrialList
1	1	41			5												VASENTA		ResponseHandList		1	1	Left	LeftHemiProc	HemiList	2				1	1	2	LeftColorProc				LeftColorList	Red	PUNAISEN	punai	23				1	4	0	0	0	2	2	83	1	0	LeftTrialProc	0	3	0	1				LeftTrialList
1	1	41			5												VASENTA		ResponseHandList		1	1	Left	LeftHemiProc	HemiList	2				1	1	2	LeftColorProc				LeftColorList	Red	PUNAISEN	punai	24				1	4	336	0	1	3	2	84	2	1	LeftTrialProc	320	1	0	1				LeftTrialList
1	1	41			5												VASENTA		ResponseHandList		1	1	Left	LeftHemiProc	HemiList	2				1	1	2	LeftColorProc				LeftColorList	Red	PUNAISEN	punai	25				1	4	330	0	1	3	2	85	2	1	LeftTrialProc	313	1	0	1				LeftTrialList
1	1	41			5												VASENTA		ResponseHandList		1	1	Left	LeftHemiProc	HemiList	2				1	1	2	LeftColorProc				LeftColorList	Red	PUNAISEN	punai	26				1	4	0	0	0	2	2	86	1	0	LeftTrialProc	0	3	0	1				LeftTrialList
1	1	41			5												VASENTA		ResponseHandList		1	1	Left	LeftHemiProc	HemiList	2				1	1	2	LeftColorProc				LeftColorList	Red	PUNAISEN	punai	27				1	3	395	0	1	3	2	87	2	1	LeftTrialProc	378	1	0	1				LeftTrialList
1	1	41			5												VASENTA		ResponseHandList		1	1	Left	LeftHemiProc	HemiList	2				1	1	2	LeftColorProc				LeftColorList	Red	PUNAISEN	punai	28				0	4	398	1	1	1	2	88	1	1	LeftTrialProc	381	1	1	0				LeftTrialList
1	1	41			5												VASENTA		ResponseHandList		1	1	Left	LeftHemiProc	HemiList	2				1	1	2	LeftColorProc				LeftColorList	Red	PUNAISEN	punai	29				1	4	441	0	1	3	2	89	2	2	LeftTrialProc	424	2	1	1				LeftTrialList
1	1	41			5												VASENTA		ResponseHandList		1	1	Left	LeftHemiProc	HemiList	2				1	1	2	LeftColorProc				LeftColorList	Red	PUNAISEN	punai	30				1	4	0	0	0	2	2	90	1	0	LeftTrialProc	0	3	0	1				LeftTrialList
1	1	41			5												VASENTA		ResponseHandList		1	1	Left	LeftHemiProc	HemiList	2				1	1	2	LeftColorProc				LeftColorList	Red	PUNAISEN	punai	31				1	4	433	0	0	2	2	91	1	1	LeftTrialProc	417	1	1	1				LeftTrialList
1	1	41			5												VASENTA		ResponseHandList		1	1	Left	LeftHemiProc	HemiList	2				1	1	2	LeftColorProc				LeftColorList	Red	PUNAISEN	punai	32				1	4	362	0	1	3	2	92	2	1	LeftTrialProc	345	1	0	1				LeftTrialList
1	1	41			5												VASENTA		ResponseHandList		1	1	Left	LeftHemiProc	HemiList	2				1	1	2	LeftColorProc				LeftColorList	Red	PUNAISEN	punai	33				1	4	364	0	1	3	2	93	2	2	LeftTrialProc	348	2	1	1				LeftTrialList
1	1	41			5												VASENTA		ResponseHandList		1	1	Left	LeftHemiProc	HemiList	2				1	1	2	LeftColorProc				LeftColorList	Red	PUNAISEN	punai	34				0	4	370	1	1	1	2	94	1	1	LeftTrialProc	353	1	1	0				LeftTrialList
1	1	41			5												VASENTA		ResponseHandList		1	1	Left	LeftHemiProc	HemiList	2				1	1	2	LeftColorProc				LeftColorList	Red	PUNAISEN	punai	35				1	4	398	0	1	3	2	95	2	2	LeftTrialProc	381	2	1	1				LeftTrialList
1	1	41			5												VASENTA		ResponseHandList		1	1	Left	LeftHemiProc	HemiList	2				1	1	2	LeftColorProc				LeftColorList	Red	PUNAISEN	punai	36				1	4	349	0	1	3	2	96	2	1	LeftTrialProc	332	1	0	1				LeftTrialList
1	1	41			5												VASENTA		ResponseHandList		1	1	Left	LeftHemiProc	HemiList	2				1	1	2	LeftColorProc				LeftColorList	Red	PUNAISEN	punai	37				0	4	0	1	0	4	2	97	0	0	LeftTrialProc	0	3	1	0				LeftTrialList
1	1	41			5												VASENTA		ResponseHandList		1	1	Left	LeftHemiProc	HemiList	2				1	1	2	LeftColorProc				LeftColorList	Red	PUNAISEN	punai	38				1	3	332	0	1	3	2	98	2	1	LeftTrialProc	316	1	0	1				LeftTrialList
1	1	41			5												VASENTA		ResponseHandList		1	1	Left	LeftHemiProc	HemiList	2				1	1	2	LeftColorProc				LeftColorList	Red	PUNAISEN	punai	39				1	2	396	0	0	2	2	99	1	1	LeftTrialProc	379	1	1	1				LeftTrialList
1	1	41			5												VASENTA		ResponseHandList		1	1	Left	LeftHemiProc	HemiList	2				1	1	2	LeftColorProc				LeftColorList	Red	PUNAISEN	punai	40				1	4	379	0	1	3	2	100	2	2	LeftTrialProc	363	2	1	1				LeftTrialList
1	1	41			5												VASENTA		ResponseHandList		1	1	Left	LeftHemiProc	HemiList	2				1	1	2	LeftColorProc				LeftColorList	Red	PUNAISEN	punai	41				1	3	481	0	1	3	2	101	2	1	LeftTrialProc	464	1	0	1				LeftTrialList
1	1	41			5												VASENTA		ResponseHandList		1	1	Left	LeftHemiProc	HemiList	2				1	1	2	LeftColorProc				LeftColorList	Red	PUNAISEN	punai	42				0	4	0	1	0	4	2	102	0	0	LeftTrialProc	0	3	1	0				LeftTrialList
1	1	41			5												VASENTA		ResponseHandList		1	1	Left	LeftHemiProc	HemiList	2				1	1	2	LeftColorProc				LeftColorList	Red	PUNAISEN	punai	43				1	4	316	0	1	3	2	103	2	2	LeftTrialProc	299	2	1	1				LeftTrialList
1	1	41			5												VASENTA		ResponseHandList		1	1	Left	LeftHemiProc	HemiList	2				1	1	2	LeftColorProc				LeftColorList	Red	PUNAISEN	punai	44				0	4	0	1	0	4	2	104	0	0	LeftTrialProc	0	3	1	0				LeftTrialList
1	1	41			5												VASENTA		ResponseHandList		1	1	Left	LeftHemiProc	HemiList	2				1	1	2	LeftColorProc				LeftColorList	Red	PUNAISEN	punai	45				0	3	315	1	1	1	2	105	1	1	LeftTrialProc	298	1	1	0				LeftTrialList
1	1	41			5												VASENTA		ResponseHandList		1	1	Left	LeftHemiProc	HemiList	2				1	1	2	LeftColorProc				LeftColorList	Red	PUNAISEN	punai	46				0	4	0	1	0	4	2	106	0	0	LeftTrialProc	0	3	1	0				LeftTrialList
1	1	41			5												VASENTA		ResponseHandList		1	1	Left	LeftHemiProc	HemiList	2				1	1	2	LeftColorProc				LeftColorList	Red	PUNAISEN	punai	47				0	4	306	1	1	1	2	107	1	1	LeftTrialProc	290	1	1	0				LeftTrialList
1	1	41			5												VASENTA		ResponseHandList		1	1	Left	LeftHemiProc	HemiList	2				1	1	2	LeftColorProc				LeftColorList	Red	PUNAISEN	punai	48				0	4	317	1	1	1	2	108	1	1	LeftTrialProc	300	1	1	0				LeftTrialList
1	1	41			5												VASENTA		ResponseHandList		1	1	Left	LeftHemiProc	HemiList	2				1	1	2	LeftColorProc				LeftColorList	Red	PUNAISEN	punai	49				0	4	0	1	0	4	2	109	0	0	LeftTrialProc	0	3	1	0				LeftTrialList
1	1	41			5												VASENTA		ResponseHandList		1	1	Left	LeftHemiProc	HemiList	2				1	1	2	LeftColorProc				LeftColorList	Red	PUNAISEN	punai	50				1	4	345	0	1	3	2	110	2	1	LeftTrialProc	328	1	0	1				LeftTrialList
1	1	41			5												VASENTA		ResponseHandList		1	1	Left	LeftHemiProc	HemiList	2				1	1	2	LeftColorProc				LeftColorList	Red	PUNAISEN	punai	51				0	4	0	1	0	4	2	111	0	0	LeftTrialProc	0	3	1	0				LeftTrialList
1	1	41			5												VASENTA		ResponseHandList		1	1	Left	LeftHemiProc	HemiList	2				1	1	2	LeftColorProc				LeftColorList	Red	PUNAISEN	punai	52				0	4	304	1	1	1	2	112	1	1	LeftTrialProc	287	1	1	0				LeftTrialList
1	1	41			5												VASENTA		ResponseHandList		1	1	Left	LeftHemiProc	HemiList	2				1	1	2	LeftColorProc				LeftColorList	Red	PUNAISEN	punai	53				1	4	297	0	1	3	2	113	2	1	LeftTrialProc	280	1	0	1				LeftTrialList
1	1	41			5												VASENTA		ResponseHandList		1	1	Left	LeftHemiProc	HemiList	2				1	1	2	LeftColorProc				LeftColorList	Red	PUNAISEN	punai	54				1	2	0	0	0	2	2	114	1	1	LeftTrialProc	0	1	1	1				LeftTrialList
1	1	41			5												VASENTA		ResponseHandList		1	1	Left	LeftHemiProc	HemiList	2				1	1	2	LeftColorProc				LeftColorList	Red	PUNAISEN	punai	55				0	4	299	1	1	1	2	115	1	1	LeftTrialProc	282	1	1	0				LeftTrialList
1	1	41			5												VASENTA		ResponseHandList		1	1	Left	LeftHemiProc	HemiList	2				1	1	2	LeftColorProc				LeftColorList	Red	PUNAISEN	punai	56				1	4	348	0	1	3	2	116	2	2	LeftTrialProc	331	2	1	1				LeftTrialList
1	1	41			5												VASENTA		ResponseHandList		1	1	Left	LeftHemiProc	HemiList	2				1	1	2	LeftColorProc				LeftColorList	Red	PUNAISEN	punai	57				0	4	329	1	1	1	2	117	1	1	LeftTrialProc	312	1	1	0				LeftTrialList
1	1	41			5												VASENTA		ResponseHandList		1	1	Left	LeftHemiProc	HemiList	2				1	1	2	LeftColorProc				LeftColorList	Red	PUNAISEN	punai	58				1	4	289	0	1	3	2	118	2	1	LeftTrialProc	272	1	0	1				LeftTrialList
1	1	41			5												VASENTA		ResponseHandList		1	1	Left	LeftHemiProc	HemiList	2				1	1	2	LeftColorProc				LeftColorList	Red	PUNAISEN	punai	59				1	4	308	0	1	3	2	119	2	1	LeftTrialProc	291	1	0	1				LeftTrialList
1	1	41			5												VASENTA		ResponseHandList		1	1	Left	LeftHemiProc	HemiList	2				1	1	2	LeftColorProc				LeftColorList	Red	PUNAISEN	punai	60				1	4	451	0	0	2	2	120	1	1	LeftTrialProc	434	1	1	1				LeftTrialList
1	1	41			5												VASENTA		ResponseHandList		1	2	Center	CenterProc	HemiList	1	2	1	1				CenterColorProc				CenterColorList	Blue	SINISEN	sini	1	1	1	1	0	4	297	0	1				1	2	CenterTrialProc	280	2	0	0				CenterTrialList
1	1	41			5												VASENTA		ResponseHandList		1	2	Center	CenterProc	HemiList	1	2	1	1				CenterColorProc				CenterColorList	Blue	SINISEN	sini	2	3	1	2	0	4	251	0	1				2	2	CenterTrialProc	234	2	1	1				CenterTrialList
1	1	41			5												VASENTA		ResponseHandList		1	2	Center	CenterProc	HemiList	1	2	1	1				CenterColorProc				CenterColorList	Blue	SINISEN	sini	3	4	1	3	0	4	0	0	0				0	0	CenterTrialProc	0	3	1	0				CenterTrialList
1	1	41			5												VASENTA		ResponseHandList		1	2	Center	CenterProc	HemiList	1	2	1	1				CenterColorProc				CenterColorList	Blue	SINISEN	sini	4	3	1	4	0	4	288	0	1				2	2	CenterTrialProc	271	2	1	1				CenterTrialList
1	1	41			5												VASENTA		ResponseHandList		1	2	Center	CenterProc	HemiList	1	2	1	1				CenterColorProc				CenterColorList	Blue	SINISEN	sini	5	3	1	5	0	4	259	0	1				2	2	CenterTrialProc	243	2	1	1				CenterTrialList
1	1	41			5												VASENTA		ResponseHandList		1	2	Center	CenterProc	HemiList	1	2	1	1				CenterColorProc				CenterColorList	Blue	SINISEN	sini	6	3	1	6	0	4	271	0	1				2	2	CenterTrialProc	254	2	1	1				CenterTrialList
1	1	41			5												VASENTA		ResponseHandList		1	2	Center	CenterProc	HemiList	1	2	1	1				CenterColorProc				CenterColorList	Blue	SINISEN	sini	7	1	1	7	0	4	286	0	1				1	1	CenterTrialProc	269	1	1	0				CenterTrialList
1	1	41			5												VASENTA		ResponseHandList		1	2	Center	CenterProc	HemiList	1	2	1	1				CenterColorProc				CenterColorList	Blue	SINISEN	sini	8	4	1	8	0	2	313	0	0				0	1	CenterTrialProc	296	1	0	0				CenterTrialList
1	1	41			5												VASENTA		ResponseHandList		1	2	Center	CenterProc	HemiList	1	2	1	1				CenterColorProc				CenterColorList	Blue	SINISEN	sini	9	4	1	9	0	4	0	0	0				0	0	CenterTrialProc	0	3	1	0				CenterTrialList
1	1	41			5												VASENTA		ResponseHandList		1	2	Center	CenterProc	HemiList	1	2	1	1				CenterColorProc				CenterColorList	Blue	SINISEN	sini	10	4	1	10	0	4	0	0	0				0	0	CenterTrialProc	0	3	1	0				CenterTrialList
1	1	41			5												VASENTA		ResponseHandList		1	2	Center	CenterProc	HemiList	1	2	1	1				CenterColorProc				CenterColorList	Blue	SINISEN	sini	11	2	1	11	0	3	0	0	0				1	0	CenterTrialProc	0	3	0	1				CenterTrialList
1	1	41			5												VASENTA		ResponseHandList		1	2	Center	CenterProc	HemiList	1	2	1	1				CenterColorProc				CenterColorList	Blue	SINISEN	sini	12	1	1	12	0	4	319	0	1				1	1	CenterTrialProc	302	1	1	0				CenterTrialList
1	1	41			5												VASENTA		ResponseHandList		1	2	Center	CenterProc	HemiList	1	2	1	1				CenterColorProc				CenterColorList	Blue	SINISEN	sini	13	1	1	13	0	4	291	0	1				1	1	CenterTrialProc	275	1	1	0				CenterTrialList
1	1	41			5												VASENTA		ResponseHandList		1	2	Center	CenterProc	HemiList	1	2	1	1				CenterColorProc				CenterColorList	Blue	SINISEN	sini	14	4	1	14	0	4	0	0	0				0	0	CenterTrialProc	0	3	1	0				CenterTrialList
1	1	41			5												VASENTA		ResponseHandList		1	2	Center	CenterProc	HemiList	1	2	1	1				CenterColorProc				CenterColorList	Blue	SINISEN	sini	15	2	1	15	0	4	255	0	0				1	1	CenterTrialProc	238	1	1	1				CenterTrialList
1	1	41			5												VASENTA		ResponseHandList		1	2	Center	CenterProc	HemiList	1	2	1	1				CenterColorProc				CenterColorList	Blue	SINISEN	sini	16	3	1	16	0	4	269	0	1				2	2	CenterTrialProc	253	2	1	1				CenterTrialList
1	1	41			5												VASENTA		ResponseHandList		1	2	Center	CenterProc	HemiList	1	2	1	1				CenterColorProc				CenterColorList	Blue	SINISEN	sini	17	1	1	17	0	4	339	0	1				1	1	CenterTrialProc	323	1	1	0				CenterTrialList
1	1	41			5												VASENTA		ResponseHandList		1	2	Center	CenterProc	HemiList	1	2	1	1				CenterColorProc				CenterColorList	Blue	SINISEN	sini	18	4	1	18	0	4	0	0	0				0	0	CenterTrialProc	0	3	1	0				CenterTrialList
1	1	41			5												VASENTA		ResponseHandList		1	2	Center	CenterProc	HemiList	1	2	1	1				CenterColorProc				CenterColorList	Blue	SINISEN	sini	19	3	1	19	0	4	280	0	1				2	2	CenterTrialProc	263	2	1	1				CenterTrialList
1	1	41			5												VASENTA		ResponseHandList		1	2	Center	CenterProc	HemiList	1	2	1	1				CenterColorProc				CenterColorList	Blue	SINISEN	sini	20	4	1	20	0	4	350	0	0				0	1	CenterTrialProc	333	1	0	0				CenterTrialList
1	1	41			5												VASENTA		ResponseHandList		1	2	Center	CenterProc	HemiList	1	2	1	1				CenterColorProc				CenterColorList	Blue	SINISEN	sini	21	3	1	21	0	4	267	0	1				2	2	CenterTrialProc	250	2	1	1				CenterTrialList
1	1	41			5												VASENTA		ResponseHandList		1	2	Center	CenterProc	HemiList	1	2	1	1				CenterColorProc				CenterColorList	Blue	SINISEN	sini	22	3	1	22	0	4	264	0	1				2	2	CenterTrialProc	248	2	1	1				CenterTrialList
1	1	41			5												VASENTA		ResponseHandList		1	2	Center	CenterProc	HemiList	1	2	1	1				CenterColorProc				CenterColorList	Blue	SINISEN	sini	23	2	1	23	0	4	307	0	0				1	1	CenterTrialProc	290	1	1	1				CenterTrialList
1	1	41			5												VASENTA		ResponseHandList		1	2	Center	CenterProc	HemiList	1	2	1	1				CenterColorProc				CenterColorList	Blue	SINISEN	sini	24	4	1	24	0	4	0	0	0				0	0	CenterTrialProc	0	3	1	0				CenterTrialList
1	1	41			5												VASENTA		ResponseHandList		1	2	Center	CenterProc	HemiList	1	2	1	1				CenterColorProc				CenterColorList	Blue	SINISEN	sini	25	3	1	25	0	3	309	0	1				2	2	CenterTrialProc	293	2	1	1				CenterTrialList
1	1	41			5												VASENTA		ResponseHandList		1	2	Center	CenterProc	HemiList	1	2	1	1				CenterColorProc				CenterColorList	Blue	SINISEN	sini	26	2	1	26	0	4	331	0	0				1	1	CenterTrialProc	314	1	1	1				CenterTrialList
1	1	41			5												VASENTA		ResponseHandList		1	2	Center	CenterProc	HemiList	1	2	1	1				CenterColorProc				CenterColorList	Blue	SINISEN	sini	27	3	1	27	0	3	358	0	1				2	1	CenterTrialProc	341	1	0	1				CenterTrialList
1	1	41			5												VASENTA		ResponseHandList		1	2	Center	CenterProc	HemiList	1	2	1	1				CenterColorProc				CenterColorList	Blue	SINISEN	sini	28	4	1	28	0	4	289	0	0				0	1	CenterTrialProc	272	1	0	0				CenterTrialList
1	1	41			5												VASENTA		ResponseHandList		1	2	Center	CenterProc	HemiList	1	2	1	1				CenterColorProc				CenterColorList	Blue	SINISEN	sini	29	4	1	29	0	4	0	0	0				0	0	CenterTrialProc	0	3	1	0				CenterTrialList
1	1	41			5												VASENTA		ResponseHandList		1	2	Center	CenterProc	HemiList	1	2	1	1				CenterColorProc				CenterColorList	Blue	SINISEN	sini	30	3	1	30	0	4	240	0	1				2	2	CenterTrialProc	223	2	1	1				CenterTrialList
1	1	41			5												VASENTA		ResponseHandList		1	2	Center	CenterProc	HemiList	1	2	1	1				CenterColorProc				CenterColorList	Blue	SINISEN	sini	31	3	1	31	0	4	281	0	1				2	2	CenterTrialProc	264	2	1	1				CenterTrialList
1	1	41			5												VASENTA		ResponseHandList		1	2	Center	CenterProc	HemiList	1	2	1	1				CenterColorProc				CenterColorList	Blue	SINISEN	sini	32	3	1	32	0	4	296	0	1				2	2	CenterTrialProc	279	2	1	1				CenterTrialList
1	1	41			5												VASENTA		ResponseHandList		1	2	Center	CenterProc	HemiList	1	2	1	1				CenterColorProc				CenterColorList	Blue	SINISEN	sini	33	2	1	33	0	3	0	0	0				1	0	CenterTrialProc	0	3	0	1				CenterTrialList
1	1	41			5												VASENTA		ResponseHandList		1	2	Center	CenterProc	HemiList	1	2	1	1				CenterColorProc				CenterColorList	Blue	SINISEN	sini	34	3	1	34	0	4	279	0	1				2	2	CenterTrialProc	262	2	1	1				CenterTrialList
1	1	41			5												VASENTA		ResponseHandList		1	2	Center	CenterProc	HemiList	1	2	1	1				CenterColorProc				CenterColorList	Blue	SINISEN	sini	35	1	1	35	0	4	314	0	1				1	1	CenterTrialProc	297	1	1	0				CenterTrialList
1	1	41			5												VASENTA		ResponseHandList		1	2	Center	CenterProc	HemiList	1	2	1	1				CenterColorProc				CenterColorList	Blue	SINISEN	sini	36	3	1	36	0	4	327	0	1				2	2	CenterTrialProc	310	2	1	1				CenterTrialList
1	1	41			5												VASENTA		ResponseHandList		1	2	Center	CenterProc	HemiList	1	2	1	1				CenterColorProc				CenterColorList	Blue	SINISEN	sini	37	4	1	37	0	4	0	0	0				0	0	CenterTrialProc	0	3	1	0				CenterTrialList
1	1	41			5												VASENTA		ResponseHandList		1	2	Center	CenterProc	HemiList	1	2	1	1				CenterColorProc				CenterColorList	Blue	SINISEN	sini	38	4	1	38	0	4	0	0	0				0	0	CenterTrialProc	0	3	1	0				CenterTrialList
1	1	41			5												VASENTA		ResponseHandList		1	2	Center	CenterProc	HemiList	1	2	1	1				CenterColorProc				CenterColorList	Blue	SINISEN	sini	39	3	1	39	0	2	285	0	1				2	2	CenterTrialProc	268	2	1	1				CenterTrialList
1	1	41			5												VASENTA		ResponseHandList		1	2	Center	CenterProc	HemiList	1	2	1	1				CenterColorProc				CenterColorList	Blue	SINISEN	sini	40	4	1	40	0	4	0	0	0				0	0	CenterTrialProc	0	3	1	0				CenterTrialList
1	1	41			5												VASENTA		ResponseHandList		1	2	Center	CenterProc	HemiList	1	2	1	1				CenterColorProc				CenterColorList	Blue	SINISEN	sini	41	4	1	41	0	4	0	0	0				0	0	CenterTrialProc	0	3	1	0				CenterTrialList
1	1	41			5												VASENTA		ResponseHandList		1	2	Center	CenterProc	HemiList	1	2	1	1				CenterColorProc				CenterColorList	Blue	SINISEN	sini	42	4	1	42	0	4	0	0	0				0	0	CenterTrialProc	0	3	1	0				CenterTrialList
1	1	41			5												VASENTA		ResponseHandList		1	2	Center	CenterProc	HemiList	1	2	1	1				CenterColorProc				CenterColorList	Blue	SINISEN	sini	43	4	1	43	0	4	0	0	0				0	0	CenterTrialProc	0	3	1	0				CenterTrialList
1	1	41			5												VASENTA		ResponseHandList		1	2	Center	CenterProc	HemiList	1	2	1	1				CenterColorProc				CenterColorList	Blue	SINISEN	sini	44	3	1	44	0	4	269	0	1				2	2	CenterTrialProc	252	2	1	1				CenterTrialList
1	1	41			5												VASENTA		ResponseHandList		1	2	Center	CenterProc	HemiList	1	2	1	1				CenterColorProc				CenterColorList	Blue	SINISEN	sini	45	3	1	45	0	4	277	0	1				2	2	CenterTrialProc	260	2	1	1				CenterTrialList
1	1	41			5												VASENTA		ResponseHandList		1	2	Center	CenterProc	HemiList	1	2	1	1				CenterColorProc				CenterColorList	Blue	SINISEN	sini	46	1	1	46	0	4	277	0	1				1	1	CenterTrialProc	260	1	1	0				CenterTrialList
1	1	41			5												VASENTA		ResponseHandList		1	2	Center	CenterProc	HemiList	1	2	1	1				CenterColorProc				CenterColorList	Blue	SINISEN	sini	47	1	1	47	0	4	343	0	1				1	1	CenterTrialProc	326	1	1	0				CenterTrialList
1	1	41			5												VASENTA		ResponseHandList		1	2	Center	CenterProc	HemiList	1	2	1	1				CenterColorProc				CenterColorList	Blue	SINISEN	sini	48	3	1	48	0	3	418	0	1				2	2	CenterTrialProc	402	2	1	1				CenterTrialList
1	1	41			5												VASENTA		ResponseHandList		1	2	Center	CenterProc	HemiList	1	2	1	1				CenterColorProc				CenterColorList	Blue	SINISEN	sini	49	3	1	49	0	4	286	0	1				2	2	CenterTrialProc	269	2	1	1				CenterTrialList
1	1	41			5												VASENTA		ResponseHandList		1	2	Center	CenterProc	HemiList	1	2	1	1				CenterColorProc				CenterColorList	Blue	SINISEN	sini	50	1	1	50	0	4	343	0	1				1	1	CenterTrialProc	326	1	1	0				CenterTrialList
1	1	41			5												VASENTA		ResponseHandList		1	2	Center	CenterProc	HemiList	1	2	1	1				CenterColorProc				CenterColorList	Blue	SINISEN	sini	51	1	1	51	0	3	308	0	1				1	1	CenterTrialProc	291	1	1	0				CenterTrialList
1	1	41			5												VASENTA		ResponseHandList		1	2	Center	CenterProc	HemiList	1	2	1	1				CenterColorProc				CenterColorList	Blue	SINISEN	sini	52	2	1	52	0	3	301	0	0				1	2	CenterTrialProc	285	2	0	1				CenterTrialList
1	1	41			5												VASENTA		ResponseHandList		1	2	Center	CenterProc	HemiList	1	2	1	1				CenterColorProc				CenterColorList	Blue	SINISEN	sini	53	2	1	53	0	4	288	0	0				1	1	CenterTrialProc	271	1	1	1				CenterTrialList
1	1	41			5												VASENTA		ResponseHandList		1	2	Center	CenterProc	HemiList	1	2	1	1				CenterColorProc				CenterColorList	Blue	SINISEN	sini	54	4	1	54	0	4	0	0	0				0	0	CenterTrialProc	0	3	1	0				CenterTrialList
1	1	41			5												VASENTA		ResponseHandList		1	2	Center	CenterProc	HemiList	1	2	1	1				CenterColorProc				CenterColorList	Blue	SINISEN	sini	55	2	1	55	0	4	259	0	0				1	1	CenterTrialProc	242	1	1	1				CenterTrialList
1	1	41			5												VASENTA		ResponseHandList		1	2	Center	CenterProc	HemiList	1	2	1	1				CenterColorProc				CenterColorList	Blue	SINISEN	sini	56	4	1	56	0	4	0	0	0				0	0	CenterTrialProc	0	3	1	0				CenterTrialList
1	1	41			5												VASENTA		ResponseHandList		1	2	Center	CenterProc	HemiList	1	2	1	1				CenterColorProc				CenterColorList	Blue	SINISEN	sini	57	4	1	57	0	4	0	0	0				0	0	CenterTrialProc	0	3	1	0				CenterTrialList
1	1	41			5												VASENTA		ResponseHandList		1	2	Center	CenterProc	HemiList	1	2	1	1				CenterColorProc				CenterColorList	Blue	SINISEN	sini	58	2	1	58	0	4	320	0	0				1	1	CenterTrialProc	303	1	1	1				CenterTrialList
1	1	41			5												VASENTA		ResponseHandList		1	2	Center	CenterProc	HemiList	1	2	1	1				CenterColorProc				CenterColorList	Blue	SINISEN	sini	59	4	1	59	0	4	0	0	0				0	0	CenterTrialProc	0	3	1	0				CenterTrialList
1	1	41			5												VASENTA		ResponseHandList		1	2	Center	CenterProc	HemiList	1	2	1	1				CenterColorProc				CenterColorList	Blue	SINISEN	sini	60	2	1	60	0	4	311	0	0				1	1	CenterTrialProc	294	1	1	1				CenterTrialList
1	1	41			5												VASENTA		ResponseHandList		1	2	Center	CenterProc	HemiList	2	1	1	2				CenterColorProc				CenterColorList	Red	PUNAISEN	punai	1	1	2	61	0	4	445	0	1				1	2	CenterTrialProc	428	2	0	0				CenterTrialList
1	1	41			5												VASENTA		ResponseHandList		1	2	Center	CenterProc	HemiList	2	1	1	2				CenterColorProc				CenterColorList	Red	PUNAISEN	punai	2	2	2	62	0	4	277	0	0				1	1	CenterTrialProc	261	1	1	1				CenterTrialList
1	1	41			5												VASENTA		ResponseHandList		1	2	Center	CenterProc	HemiList	2	1	1	2				CenterColorProc				CenterColorList	Red	PUNAISEN	punai	3	4	2	63	0	4	0	0	0				0	0	CenterTrialProc	0	3	1	0				CenterTrialList
1	1	41			5												VASENTA		ResponseHandList		1	2	Center	CenterProc	HemiList	2	1	1	2				CenterColorProc				CenterColorList	Red	PUNAISEN	punai	4	1	2	64	0	4	293	0	1				1	1	CenterTrialProc	276	1	1	0				CenterTrialList
1	1	41			5												VASENTA		ResponseHandList		1	2	Center	CenterProc	HemiList	2	1	1	2				CenterColorProc				CenterColorList	Red	PUNAISEN	punai	5	1	2	65	0	4	306	0	1				1	1	CenterTrialProc	289	1	1	0				CenterTrialList
1	1	41			5												VASENTA		ResponseHandList		1	2	Center	CenterProc	HemiList	2	1	1	2				CenterColorProc				CenterColorList	Red	PUNAISEN	punai	6	4	2	66	0	4	0	0	0				0	0	CenterTrialProc	0	3	1	0				CenterTrialList
1	1	41			5												VASENTA		ResponseHandList		1	2	Center	CenterProc	HemiList	2	1	1	2				CenterColorProc				CenterColorList	Red	PUNAISEN	punai	7	1	2	67	0	4	281	0	1				1	2	CenterTrialProc	264	2	0	0				CenterTrialList
1	1	41			5												VASENTA		ResponseHandList		1	2	Center	CenterProc	HemiList	2	1	1	2				CenterColorProc				CenterColorList	Red	PUNAISEN	punai	8	1	2	68	0	4	360	0	1				1	1	CenterTrialProc	344	1	1	0				CenterTrialList
1	1	41			5												VASENTA		ResponseHandList		1	2	Center	CenterProc	HemiList	2	1	1	2				CenterColorProc				CenterColorList	Red	PUNAISEN	punai	9	1	2	69	0	4	287	0	1				1	1	CenterTrialProc	270	1	1	0				CenterTrialList
1	1	41			5												VASENTA		ResponseHandList		1	2	Center	CenterProc	HemiList	2	1	1	2				CenterColorProc				CenterColorList	Red	PUNAISEN	punai	10	3	2	70	0	4	283	0	1				2	2	CenterTrialProc	266	2	1	1				CenterTrialList
1	1	41			5												VASENTA		ResponseHandList		1	2	Center	CenterProc	HemiList	2	1	1	2				CenterColorProc				CenterColorList	Red	PUNAISEN	punai	11	4	2	71	0	4	0	0	0				0	0	CenterTrialProc	0	3	1	0				CenterTrialList
1	1	41			5												VASENTA		ResponseHandList		1	2	Center	CenterProc	HemiList	2	1	1	2				CenterColorProc				CenterColorList	Red	PUNAISEN	punai	12	4	2	72	0	4	0	0	0				0	0	CenterTrialProc	0	3	1	0				CenterTrialList
1	1	41			5												VASENTA		ResponseHandList		1	2	Center	CenterProc	HemiList	2	1	1	2				CenterColorProc				CenterColorList	Red	PUNAISEN	punai	13	4	2	73	0	4	0	0	0				0	0	CenterTrialProc	0	3	1	0				CenterTrialList
1	1	41			5												VASENTA		ResponseHandList		1	2	Center	CenterProc	HemiList	2	1	1	2				CenterColorProc				CenterColorList	Red	PUNAISEN	punai	14	2	2	74	0	4	317	0	0				1	1	CenterTrialProc	300	1	1	1				CenterTrialList
1	1	41			5												VASENTA		ResponseHandList		1	2	Center	CenterProc	HemiList	2	1	1	2				CenterColorProc				CenterColorList	Red	PUNAISEN	punai	15	4	2	75	0	4	0	0	0				0	0	CenterTrialProc	0	3	1	0				CenterTrialList
1	1	41			5												VASENTA		ResponseHandList		1	2	Center	CenterProc	HemiList	2	1	1	2				CenterColorProc				CenterColorList	Red	PUNAISEN	punai	16	3	2	76	0	4	238	0	1				2	2	CenterTrialProc	221	2	1	1				CenterTrialList
1	1	41			5												VASENTA		ResponseHandList		1	2	Center	CenterProc	HemiList	2	1	1	2				CenterColorProc				CenterColorList	Red	PUNAISEN	punai	17	1	2	77	0	4	294	0	1				1	1	CenterTrialProc	278	1	1	0				CenterTrialList
1	1	41			5												VASENTA		ResponseHandList		1	2	Center	CenterProc	HemiList	2	1	1	2				CenterColorProc				CenterColorList	Red	PUNAISEN	punai	18	3	2	78	0	4	290	0	1				2	2	CenterTrialProc	273	2	1	1				CenterTrialList
1	1	41			5												VASENTA		ResponseHandList		1	2	Center	CenterProc	HemiList	2	1	1	2				CenterColorProc				CenterColorList	Red	PUNAISEN	punai	19	2	2	79	0	4	0	0	0				1	0	CenterTrialProc	0	3	0	1				CenterTrialList
1	1	41			5												VASENTA		ResponseHandList		1	2	Center	CenterProc	HemiList	2	1	1	2				CenterColorProc				CenterColorList	Red	PUNAISEN	punai	20	4	2	80	0	4	0	0	0				0	0	CenterTrialProc	0	3	1	0				CenterTrialList
1	1	41			5												VASENTA		ResponseHandList		1	2	Center	CenterProc	HemiList	2	1	1	2				CenterColorProc				CenterColorList	Red	PUNAISEN	punai	21	3	2	81	0	4	251	0	1				2	2	CenterTrialProc	234	2	1	1				CenterTrialList
1	1	41			5												VASENTA		ResponseHandList		1	2	Center	CenterProc	HemiList	2	1	1	2				CenterColorProc				CenterColorList	Red	PUNAISEN	punai	22	3	2	82	0	4	236	0	1				2	2	CenterTrialProc	219	2	1	1				CenterTrialList
1	1	41			5												VASENTA		ResponseHandList		1	2	Center	CenterProc	HemiList	2	1	1	2				CenterColorProc				CenterColorList	Red	PUNAISEN	punai	23	4	2	83	0	4	0	0	0				0	0	CenterTrialProc	0	3	1	0				CenterTrialList
1	1	41			5												VASENTA		ResponseHandList		1	2	Center	CenterProc	HemiList	2	1	1	2				CenterColorProc				CenterColorList	Red	PUNAISEN	punai	24	3	2	84	0	4	265	0	1				2	2	CenterTrialProc	248	2	1	1				CenterTrialList
1	1	41			5												VASENTA		ResponseHandList		1	2	Center	CenterProc	HemiList	2	1	1	2				CenterColorProc				CenterColorList	Red	PUNAISEN	punai	25	3	2	85	0	4	282	0	1				2	2	CenterTrialProc	265	2	1	1				CenterTrialList
1	1	41			5												VASENTA		ResponseHandList		1	2	Center	CenterProc	HemiList	2	1	1	2				CenterColorProc				CenterColorList	Red	PUNAISEN	punai	26	4	2	86	0	4	0	0	0				0	0	CenterTrialProc	0	3	1	0				CenterTrialList
1	1	41			5												VASENTA		ResponseHandList		1	2	Center	CenterProc	HemiList	2	1	1	2				CenterColorProc				CenterColorList	Red	PUNAISEN	punai	27	3	2	87	0	4	276	0	1				2	2	CenterTrialProc	259	2	1	1				CenterTrialList
1	1	41			5												VASENTA		ResponseHandList		1	2	Center	CenterProc	HemiList	2	1	1	2				CenterColorProc				CenterColorList	Red	PUNAISEN	punai	28	4	2	88	0	4	0	0	0				0	0	CenterTrialProc	0	3	1	0				CenterTrialList
1	1	41			5												VASENTA		ResponseHandList		1	2	Center	CenterProc	HemiList	2	1	1	2				CenterColorProc				CenterColorList	Red	PUNAISEN	punai	29	3	2	89	0	4	249	0	1				2	2	CenterTrialProc	232	2	1	1				CenterTrialList
1	1	41			5												VASENTA		ResponseHandList		1	2	Center	CenterProc	HemiList	2	1	1	2				CenterColorProc				CenterColorList	Red	PUNAISEN	punai	30	4	2	90	0	4	0	0	0				0	0	CenterTrialProc	0	3	1	0				CenterTrialList
1	1	41			5												VASENTA		ResponseHandList		1	2	Center	CenterProc	HemiList	2	1	1	2				CenterColorProc				CenterColorList	Red	PUNAISEN	punai	31	3	2	91	0	4	299	0	1				2	2	CenterTrialProc	282	2	1	1				CenterTrialList
1	1	41			5												VASENTA		ResponseHandList		1	2	Center	CenterProc	HemiList	2	1	1	2				CenterColorProc				CenterColorList	Red	PUNAISEN	punai	32	3	2	92	0	4	245	0	1				2	2	CenterTrialProc	228	2	1	1				CenterTrialList
1	1	41			5												VASENTA		ResponseHandList		1	2	Center	CenterProc	HemiList	2	1	1	2				CenterColorProc				CenterColorList	Red	PUNAISEN	punai	33	2	2	93	0	4	328	0	0				1	1	CenterTrialProc	311	1	1	1				CenterTrialList
1	1	41			5												VASENTA		ResponseHandList		1	2	Center	CenterProc	HemiList	2	1	1	2				CenterColorProc				CenterColorList	Red	PUNAISEN	punai	34	2	2	94	0	4	304	0	0				1	2	CenterTrialProc	287	2	0	1				CenterTrialList
1	1	41			5												VASENTA		ResponseHandList		1	2	Center	CenterProc	HemiList	2	1	1	2				CenterColorProc				CenterColorList	Red	PUNAISEN	punai	35	2	2	95	0	3	0	0	0				1	0	CenterTrialProc	0	3	0	1				CenterTrialList
1	1	41			5												VASENTA		ResponseHandList		1	2	Center	CenterProc	HemiList	2	1	1	2				CenterColorProc				CenterColorList	Red	PUNAISEN	punai	36	2	2	96	0	4	270	0	0				1	1	CenterTrialProc	253	1	1	1				CenterTrialList
1	1	41			5												VASENTA		ResponseHandList		1	2	Center	CenterProc	HemiList	2	1	1	2				CenterColorProc				CenterColorList	Red	PUNAISEN	punai	37	1	2	97	0	4	263	0	1				1	1	CenterTrialProc	246	1	1	0				CenterTrialList
1	1	41			5												VASENTA		ResponseHandList		1	2	Center	CenterProc	HemiList	2	1	1	2				CenterColorProc				CenterColorList	Red	PUNAISEN	punai	38	4	2	98	0	4	0	0	0				0	0	CenterTrialProc	0	3	1	0				CenterTrialList
1	1	41			5												VASENTA		ResponseHandList		1	2	Center	CenterProc	HemiList	2	1	1	2				CenterColorProc				CenterColorList	Red	PUNAISEN	punai	39	4	2	99	0	3	0	0	0				0	0	CenterTrialProc	0	3	1	0				CenterTrialList
1	1	41			5												VASENTA		ResponseHandList		1	2	Center	CenterProc	HemiList	2	1	1	2				CenterColorProc				CenterColorList	Red	PUNAISEN	punai	40	2	2	100	0	4	310	0	0				1	1	CenterTrialProc	293	1	1	1				CenterTrialList
1	1	41			5												VASENTA		ResponseHandList		1	2	Center	CenterProc	HemiList	2	1	1	2				CenterColorProc				CenterColorList	Red	PUNAISEN	punai	41	3	2	101	0	3	274	0	1				2	1	CenterTrialProc	257	1	0	1				CenterTrialList
1	1	41			5												VASENTA		ResponseHandList		1	2	Center	CenterProc	HemiList	2	1	1	2				CenterColorProc				CenterColorList	Red	PUNAISEN	punai	42	2	2	102	0	4	272	0	0				1	1	CenterTrialProc	255	1	1	1				CenterTrialList
1	1	41			5												VASENTA		ResponseHandList		1	2	Center	CenterProc	HemiList	2	1	1	2				CenterColorProc				CenterColorList	Red	PUNAISEN	punai	43	4	2	103	0	3	0	0	0				0	0	CenterTrialProc	0	3	1	0				CenterTrialList
1	1	41			5												VASENTA		ResponseHandList		1	2	Center	CenterProc	HemiList	2	1	1	2				CenterColorProc				CenterColorList	Red	PUNAISEN	punai	44	4	2	104	0	3	0	0	0				0	0	CenterTrialProc	0	3	1	0				CenterTrialList
1	1	41			5												VASENTA		ResponseHandList		1	2	Center	CenterProc	HemiList	2	1	1	2				CenterColorProc				CenterColorList	Red	PUNAISEN	punai	45	3	2	105	0	4	268	0	1				2	2	CenterTrialProc	251	2	1	1				CenterTrialList
1	1	41			5												VASENTA		ResponseHandList		1	2	Center	CenterProc	HemiList	2	1	1	2				CenterColorProc				CenterColorList	Red	PUNAISEN	punai	46	4	2	106	0	4	0	0	0				0	0	CenterTrialProc	0	3	1	0				CenterTrialList
1	1	41			5												VASENTA		ResponseHandList		1	2	Center	CenterProc	HemiList	2	1	1	2				CenterColorProc				CenterColorList	Red	PUNAISEN	punai	47	3	2	107	0	4	258	0	1				2	2	CenterTrialProc	241	2	1	1				CenterTrialList
1	1	41			5												VASENTA		ResponseHandList		1	2	Center	CenterProc	HemiList	2	1	1	2				CenterColorProc				CenterColorList	Red	PUNAISEN	punai	48	4	2	108	0	4	0	0	0				0	0	CenterTrialProc	0	3	1	0				CenterTrialList
1	1	41			5												VASENTA		ResponseHandList		1	2	Center	CenterProc	HemiList	2	1	1	2				CenterColorProc				CenterColorList	Red	PUNAISEN	punai	49	3	2	109	0	4	280	0	1				2	2	CenterTrialProc	263	2	1	1				CenterTrialList
1	1	41			5												VASENTA		ResponseHandList		1	2	Center	CenterProc	HemiList	2	1	1	2				CenterColorProc				CenterColorList	Red	PUNAISEN	punai	50	1	2	110	0	4	282	0	1				1	1	CenterTrialProc	265	1	1	0				CenterTrialList
1	1	41			5												VASENTA		ResponseHandList		1	2	Center	CenterProc	HemiList	2	1	1	2				CenterColorProc				CenterColorList	Red	PUNAISEN	punai	51	4	2	111	0	4	0	0	0				0	0	CenterTrialProc	0	3	1	0				CenterTrialList
1	1	41			5												VASENTA		ResponseHandList		1	2	Center	CenterProc	HemiList	2	1	1	2				CenterColorProc				CenterColorList	Red	PUNAISEN	punai	52	2	2	112	0	3	296	0	0				1	1	CenterTrialProc	279	1	1	1				CenterTrialList
1	1	41			5												VASENTA		ResponseHandList		1	2	Center	CenterProc	HemiList	2	1	1	2				CenterColorProc				CenterColorList	Red	PUNAISEN	punai	53	4	2	113	0	4	0	0	0				0	0	CenterTrialProc	0	3	1	0				CenterTrialList
1	1	41			5												VASENTA		ResponseHandList		1	2	Center	CenterProc	HemiList	2	1	1	2				CenterColorProc				CenterColorList	Red	PUNAISEN	punai	54	3	2	114	0	3	352	0	1				2	2	CenterTrialProc	335	2	1	1				CenterTrialList
1	1	41			5												VASENTA		ResponseHandList		1	2	Center	CenterProc	HemiList	2	1	1	2				CenterColorProc				CenterColorList	Red	PUNAISEN	punai	55	4	2	115	0	3	0	0	0				0	0	CenterTrialProc	0	3	1	0				CenterTrialList
1	1	41			5												VASENTA		ResponseHandList		1	2	Center	CenterProc	HemiList	2	1	1	2				CenterColorProc				CenterColorList	Red	PUNAISEN	punai	56	3	2	116	0	3	365	0	1				2	2	CenterTrialProc	348	2	1	1				CenterTrialList
1	1	41			5												VASENTA		ResponseHandList		1	2	Center	CenterProc	HemiList	2	1	1	2				CenterColorProc				CenterColorList	Red	PUNAISEN	punai	57	3	2	117	0	4	286	0	1				2	2	CenterTrialProc	270	2	1	1				CenterTrialList
1	1	41			5												VASENTA		ResponseHandList		1	2	Center	CenterProc	HemiList	2	1	1	2				CenterColorProc				CenterColorList	Red	PUNAISEN	punai	58	3	2	118	0	4	235	0	1				2	2	CenterTrialProc	219	2	1	1				CenterTrialList
1	1	41			5												VASENTA		ResponseHandList		1	2	Center	CenterProc	HemiList	2	1	1	2				CenterColorProc				CenterColorList	Red	PUNAISEN	punai	59	3	2	119	0	4	303	0	1				2	2	CenterTrialProc	287	2	1	1				CenterTrialList
1	1	41			5												VASENTA		ResponseHandList		1	2	Center	CenterProc	HemiList	2	1	1	2				CenterColorProc				CenterColorList	Red	PUNAISEN	punai	60	1	2	120	0	4	301	0	1				1	1	CenterTrialProc	284	1	1	0				CenterTrialList
1	1	41			5												VASENTA		ResponseHandList		1	3	Right	RightHemiProc	HemiList	1							RightColorProc	2	1	1	RightColorList	Blue	SINISEN	sini	1				1	4	324	0	1				1	1	RightTrialProc	307	1	1	0	1	1	1	RightTrialList
1	1	41			5												VASENTA		ResponseHandList		1	3	Right	RightHemiProc	HemiList	1							RightColorProc	2	1	1	RightColorList	Blue	SINISEN	sini	2				1	4	398	0	1				2	2	RightTrialProc	381	2	1	1	3	1	2	RightTrialList
1	1	41			5												VASENTA		ResponseHandList		1	3	Right	RightHemiProc	HemiList	1							RightColorProc	2	1	1	RightColorList	Blue	SINISEN	sini	3				1	4	315	0	1				1	1	RightTrialProc	298	1	1	0	1	1	3	RightTrialList
1	1	41			5												VASENTA		ResponseHandList		1	3	Right	RightHemiProc	HemiList	1							RightColorProc	2	1	1	RightColorList	Blue	SINISEN	sini	4				1	4	327	0	1				2	2	RightTrialProc	311	2	1	1	3	1	4	RightTrialList
1	1	41			5												VASENTA		ResponseHandList		1	3	Right	RightHemiProc	HemiList	1							RightColorProc	2	1	1	RightColorList	Blue	SINISEN	sini	5				0	4	0	1	0				1	0	RightTrialProc	0	3	0	1	2	1	5	RightTrialList
1	1	41			5												VASENTA		ResponseHandList		1	3	Right	RightHemiProc	HemiList	1							RightColorProc	2	1	1	RightColorList	Blue	SINISEN	sini	6				0	2	0	1	0				0	1	RightTrialProc	0	1	0	0	4	1	6	RightTrialList
1	1	41			5												VASENTA		ResponseHandList		1	3	Right	RightHemiProc	HemiList	1							RightColorProc	2	1	1	RightColorList	Blue	SINISEN	sini	7				1	4	318	0	1				2	1	RightTrialProc	301	1	0	1	3	1	7	RightTrialList
1	1	41			5												VASENTA		ResponseHandList		1	3	Right	RightHemiProc	HemiList	1							RightColorProc	2	1	1	RightColorList	Blue	SINISEN	sini	8				0	4	765	1	0				1	1	RightTrialProc	749	1	1	1	2	1	8	RightTrialList
1	1	41			5												VASENTA		ResponseHandList		1	3	Right	RightHemiProc	HemiList	1							RightColorProc	2	1	1	RightColorList	Blue	SINISEN	sini	9				0	4	0	1	0				0	0	RightTrialProc	0	3	1	0	4	1	9	RightTrialList
1	1	41			5												VASENTA		ResponseHandList		1	3	Right	RightHemiProc	HemiList	1							RightColorProc	2	1	1	RightColorList	Blue	SINISEN	sini	10				1	4	309	0	1				2	2	RightTrialProc	293	2	1	1	3	1	10	RightTrialList
1	1	41			5												VASENTA		ResponseHandList		1	3	Right	RightHemiProc	HemiList	1							RightColorProc	2	1	1	RightColorList	Blue	SINISEN	sini	11				1	4	374	0	1				1	1	RightTrialProc	357	1	1	0	1	1	11	RightTrialList
1	1	41			5												VASENTA		ResponseHandList		1	3	Right	RightHemiProc	HemiList	1							RightColorProc	2	1	1	RightColorList	Blue	SINISEN	sini	12				1	4	381	0	1				1	1	RightTrialProc	365	1	1	0	1	1	12	RightTrialList
1	1	41			5												VASENTA		ResponseHandList		1	3	Right	RightHemiProc	HemiList	1							RightColorProc	2	1	1	RightColorList	Blue	SINISEN	sini	13				0	3	683	1	0				1	1	RightTrialProc	666	1	1	1	2	1	13	RightTrialList
1	1	41			5												VASENTA		ResponseHandList		1	3	Right	RightHemiProc	HemiList	1							RightColorProc	2	1	1	RightColorList	Blue	SINISEN	sini	14				0	3	0	1	0				0	0	RightTrialProc	0	3	1	0	4	1	14	RightTrialList
1	1	41			5												VASENTA		ResponseHandList		1	3	Right	RightHemiProc	HemiList	1							RightColorProc	2	1	1	RightColorList	Blue	SINISEN	sini	15				0	3	309	1	0				1	1	RightTrialProc	292	1	1	1	2	1	15	RightTrialList
1	1	41			5												VASENTA		ResponseHandList		1	3	Right	RightHemiProc	HemiList	1							RightColorProc	2	1	1	RightColorList	Blue	SINISEN	sini	16				1	3	312	0	1				2	1	RightTrialProc	295	1	0	1	3	1	16	RightTrialList
1	1	41			5												VASENTA		ResponseHandList		1	3	Right	RightHemiProc	HemiList	1							RightColorProc	2	1	1	RightColorList	Blue	SINISEN	sini	17				1	3	393	0	1				1	0	RightTrialProc	376	3	0	0	1	1	17	RightTrialList
1	1	41			5												VASENTA		ResponseHandList		1	3	Right	RightHemiProc	HemiList	1							RightColorProc	2	1	1	RightColorList	Blue	SINISEN	sini	18				0	4	393	1	0				1	1	RightTrialProc	376	1	1	1	2	1	18	RightTrialList
1	1	41			5												VASENTA		ResponseHandList		1	3	Right	RightHemiProc	HemiList	1							RightColorProc	2	1	1	RightColorList	Blue	SINISEN	sini	19				1	3	331	0	1				2	2	RightTrialProc	314	2	1	1	3	1	19	RightTrialList
1	1	41			5												VASENTA		ResponseHandList		1	3	Right	RightHemiProc	HemiList	1							RightColorProc	2	1	1	RightColorList	Blue	SINISEN	sini	20				0	4	0	1	0				0	0	RightTrialProc	0	3	1	0	4	1	20	RightTrialList
1	1	41			5												VASENTA		ResponseHandList		1	3	Right	RightHemiProc	HemiList	1							RightColorProc	2	1	1	RightColorList	Blue	SINISEN	sini	21				1	3	292	0	1				2	1	RightTrialProc	275	1	0	1	3	1	21	RightTrialList
1	1	41			5												VASENTA		ResponseHandList		1	3	Right	RightHemiProc	HemiList	1							RightColorProc	2	1	1	RightColorList	Blue	SINISEN	sini	22				1	3	345	0	1				2	1	RightTrialProc	328	1	0	1	3	1	22	RightTrialList
1	1	41			5												VASENTA		ResponseHandList		1	3	Right	RightHemiProc	HemiList	1							RightColorProc	2	1	1	RightColorList	Blue	SINISEN	sini	23				0	4	399	1	0				1	1	RightTrialProc	383	1	1	1	2	1	23	RightTrialList
1	1	41			5												VASENTA		ResponseHandList		1	3	Right	RightHemiProc	HemiList	1							RightColorProc	2	1	1	RightColorList	Blue	SINISEN	sini	24				0	4	0	1	0				0	0	RightTrialProc	0	3	1	0	4	1	24	RightTrialList
1	1	41			5												VASENTA		ResponseHandList		1	3	Right	RightHemiProc	HemiList	1							RightColorProc	2	1	1	RightColorList	Blue	SINISEN	sini	25				1	4	304	0	1				2	1	RightTrialProc	287	1	0	1	3	1	25	RightTrialList
1	1	41			5												VASENTA		ResponseHandList		1	3	Right	RightHemiProc	HemiList	1							RightColorProc	2	1	1	RightColorList	Blue	SINISEN	sini	26				0	4	407	1	0				1	1	RightTrialProc	390	1	1	1	2	1	26	RightTrialList
1	1	41			5												VASENTA		ResponseHandList		1	3	Right	RightHemiProc	HemiList	1							RightColorProc	2	1	1	RightColorList	Blue	SINISEN	sini	27				0	4	403	1	0				1	1	RightTrialProc	386	1	1	1	2	1	27	RightTrialList
1	1	41			5												VASENTA		ResponseHandList		1	3	Right	RightHemiProc	HemiList	1							RightColorProc	2	1	1	RightColorList	Blue	SINISEN	sini	28				1	2	327	0	1				2	1	RightTrialProc	311	1	0	1	3	1	28	RightTrialList
1	1	41			5												VASENTA		ResponseHandList		1	3	Right	RightHemiProc	HemiList	1							RightColorProc	2	1	1	RightColorList	Blue	SINISEN	sini	29				0	2	345	1	0				1	1	RightTrialProc	328	1	1	1	2	1	29	RightTrialList
1	1	41			5												VASENTA		ResponseHandList		1	3	Right	RightHemiProc	HemiList	1							RightColorProc	2	1	1	RightColorList	Blue	SINISEN	sini	30				1	2	481	0	1				1	1	RightTrialProc	464	1	1	0	1	1	30	RightTrialList
1	1	41			5												VASENTA		ResponseHandList		1	3	Right	RightHemiProc	HemiList	1							RightColorProc	2	1	1	RightColorList	Blue	SINISEN	sini	31				1	4	341	0	1				1	1	RightTrialProc	324	1	1	0	1	1	31	RightTrialList
1	1	41			5												VASENTA		ResponseHandList		1	3	Right	RightHemiProc	HemiList	1							RightColorProc	2	1	1	RightColorList	Blue	SINISEN	sini	32				1	4	396	0	1				2	2	RightTrialProc	379	2	1	1	3	1	32	RightTrialList
1	1	41			5												VASENTA		ResponseHandList		1	3	Right	RightHemiProc	HemiList	1							RightColorProc	2	1	1	RightColorList	Blue	SINISEN	sini	33				0	3	0	1	0				0	0	RightTrialProc	0	3	1	0	4	1	33	RightTrialList
1	1	41			5												VASENTA		ResponseHandList		1	3	Right	RightHemiProc	HemiList	1							RightColorProc	2	1	1	RightColorList	Blue	SINISEN	sini	34				0	4	414	1	0				1	1	RightTrialProc	397	1	1	1	2	1	34	RightTrialList
1	1	41			5												VASENTA		ResponseHandList		1	3	Right	RightHemiProc	HemiList	1							RightColorProc	2	1	1	RightColorList	Blue	SINISEN	sini	35				1	4	361	0	1				1	1	RightTrialProc	344	1	1	0	1	1	35	RightTrialList
1	1	41			5												VASENTA		ResponseHandList		1	3	Right	RightHemiProc	HemiList	1							RightColorProc	2	1	1	RightColorList	Blue	SINISEN	sini	36				0	3	409	1	0				1	1	RightTrialProc	392	1	1	1	2	1	36	RightTrialList
1	1	41			5												VASENTA		ResponseHandList		1	3	Right	RightHemiProc	HemiList	1							RightColorProc	2	1	1	RightColorList	Blue	SINISEN	sini	37				0	4	0	1	0				0	0	RightTrialProc	0	3	1	0	4	1	37	RightTrialList
1	1	41			5												VASENTA		ResponseHandList		1	3	Right	RightHemiProc	HemiList	1							RightColorProc	2	1	1	RightColorList	Blue	SINISEN	sini	38				0	2	0	1	0				1	1	RightTrialProc	0	1	1	1	2	1	38	RightTrialList
1	1	41			5												VASENTA		ResponseHandList		1	3	Right	RightHemiProc	HemiList	1							RightColorProc	2	1	1	RightColorList	Blue	SINISEN	sini	39				1	4	439	0	1				2	1	RightTrialProc	423	1	0	1	3	1	39	RightTrialList
1	1	41			5												VASENTA		ResponseHandList		1	3	Right	RightHemiProc	HemiList	1							RightColorProc	2	1	1	RightColorList	Blue	SINISEN	sini	40				1	4	322	0	1				2	2	RightTrialProc	305	2	1	1	3	1	40	RightTrialList
1	1	41			5												VASENTA		ResponseHandList		1	3	Right	RightHemiProc	HemiList	1							RightColorProc	2	1	1	RightColorList	Blue	SINISEN	sini	41				0	4	0	1	0				0	0	RightTrialProc	0	3	1	0	4	1	41	RightTrialList
1	1	41			5												VASENTA		ResponseHandList		1	3	Right	RightHemiProc	HemiList	1							RightColorProc	2	1	1	RightColorList	Blue	SINISEN	sini	42				1	4	492	0	1				2	1	RightTrialProc	475	1	0	1	3	1	42	RightTrialList
1	1	41			5												VASENTA		ResponseHandList		1	3	Right	RightHemiProc	HemiList	1							RightColorProc	2	1	1	RightColorList	Blue	SINISEN	sini	43				0	4	371	1	0				1	1	RightTrialProc	355	1	1	1	2	1	43	RightTrialList
1	1	41			5												VASENTA		ResponseHandList		1	3	Right	RightHemiProc	HemiList	1							RightColorProc	2	1	1	RightColorList	Blue	SINISEN	sini	44				1	4	552	0	1				2	2	RightTrialProc	535	2	1	1	3	1	44	RightTrialList
1	1	41			5												VASENTA		ResponseHandList		1	3	Right	RightHemiProc	HemiList	1							RightColorProc	2	1	1	RightColorList	Blue	SINISEN	sini	45				0	4	647	1	0				1	1	RightTrialProc	630	1	1	1	2	1	45	RightTrialList
1	1	41			5												VASENTA		ResponseHandList		1	3	Right	RightHemiProc	HemiList	1							RightColorProc	2	1	1	RightColorList	Blue	SINISEN	sini	46				0	4	321	1	0				1	1	RightTrialProc	304	1	1	1	2	1	46	RightTrialList
1	1	41			5												VASENTA		ResponseHandList		1	3	Right	RightHemiProc	HemiList	1							RightColorProc	2	1	1	RightColorList	Blue	SINISEN	sini	47				1	4	432	0	1				2	1	RightTrialProc	415	1	0	1	3	1	47	RightTrialList
1	1	41			5												VASENTA		ResponseHandList		1	3	Right	RightHemiProc	HemiList	1							RightColorProc	2	1	1	RightColorList	Blue	SINISEN	sini	48				1	3	475	0	1				1	1	RightTrialProc	458	1	1	0	1	1	48	RightTrialList
1	1	41			5												VASENTA		ResponseHandList		1	3	Right	RightHemiProc	HemiList	1							RightColorProc	2	1	1	RightColorList	Blue	SINISEN	sini	49				1	4	393	0	1				2	1	RightTrialProc	377	1	0	1	3	1	49	RightTrialList
1	1	41			5												VASENTA		ResponseHandList		1	3	Right	RightHemiProc	HemiList	1							RightColorProc	2	1	1	RightColorList	Blue	SINISEN	sini	50				0	3	0	1	0				0	0	RightTrialProc	0	3	1	0	4	1	50	RightTrialList
1	1	41			5												VASENTA		ResponseHandList		1	3	Right	RightHemiProc	HemiList	1							RightColorProc	2	1	1	RightColorList	Blue	SINISEN	sini	51				0	4	317	1	0				1	1	RightTrialProc	300	1	1	1	2	1	51	RightTrialList
1	1	41			5												VASENTA		ResponseHandList		1	3	Right	RightHemiProc	HemiList	1							RightColorProc	2	1	1	RightColorList	Blue	SINISEN	sini	52				0	4	0	1	0				0	0	RightTrialProc	0	3	1	0	4	1	52	RightTrialList
1	1	41			5												VASENTA		ResponseHandList		1	3	Right	RightHemiProc	HemiList	1							RightColorProc	2	1	1	RightColorList	Blue	SINISEN	sini	53				1	4	390	0	1				2	1	RightTrialProc	373	1	0	1	3	1	53	RightTrialList
1	1	41			5												VASENTA		ResponseHandList		1	3	Right	RightHemiProc	HemiList	1							RightColorProc	2	1	1	RightColorList	Blue	SINISEN	sini	54				1	4	433	0	1				1	1	RightTrialProc	417	1	1	0	1	1	54	RightTrialList
1	1	41			5												VASENTA		ResponseHandList		1	3	Right	RightHemiProc	HemiList	1							RightColorProc	2	1	1	RightColorList	Blue	SINISEN	sini	55				0	3	0	1	0				1	0	RightTrialProc	0	3	0	1	2	1	55	RightTrialList
1	1	41			5												VASENTA		ResponseHandList		1	3	Right	RightHemiProc	HemiList	1							RightColorProc	2	1	1	RightColorList	Blue	SINISEN	sini	56				1	4	343	0	1				2	2	RightTrialProc	327	2	1	1	3	1	56	RightTrialList
1	1	41			5												VASENTA		ResponseHandList		1	3	Right	RightHemiProc	HemiList	1							RightColorProc	2	1	1	RightColorList	Blue	SINISEN	sini	57				0	4	508	1	0				1	1	RightTrialProc	491	1	1	1	2	1	57	RightTrialList
1	1	41			5												VASENTA		ResponseHandList		1	3	Right	RightHemiProc	HemiList	1							RightColorProc	2	1	1	RightColorList	Blue	SINISEN	sini	58				1	4	293	0	1				2	2	RightTrialProc	276	2	1	1	3	1	58	RightTrialList
1	1	41			5												VASENTA		ResponseHandList		1	3	Right	RightHemiProc	HemiList	1							RightColorProc	2	1	1	RightColorList	Blue	SINISEN	sini	59				0	4	370	1	0				1	1	RightTrialProc	353	1	1	1	2	1	59	RightTrialList
1	1	41			5												VASENTA		ResponseHandList		1	3	Right	RightHemiProc	HemiList	1							RightColorProc	2	1	1	RightColorList	Blue	SINISEN	sini	60				0	3	0	1	0				1	0	RightTrialProc	0	3	0	1	2	1	60	RightTrialList
1	1	41			5												VASENTA		ResponseHandList		1	3	Right	RightHemiProc	HemiList	2							RightColorProc	1	1	2	RightColorList	Red	PUNAISEN	punai	1				0	4	0	1	0				0	0	RightTrialProc	0	3	1	0	4	2	61	RightTrialList
1	1	41			5												VASENTA		ResponseHandList		1	3	Right	RightHemiProc	HemiList	2							RightColorProc	1	1	2	RightColorList	Red	PUNAISEN	punai	2				0	4	0	1	0				0	0	RightTrialProc	0	3	1	0	4	2	62	RightTrialList
1	1	41			5												VASENTA		ResponseHandList		1	3	Right	RightHemiProc	HemiList	2							RightColorProc	1	1	2	RightColorList	Red	PUNAISEN	punai	3				1	4	0	0	1				1	0	RightTrialProc	0	3	0	0	1	2	63	RightTrialList
1	1	41			5												VASENTA		ResponseHandList		1	3	Right	RightHemiProc	HemiList	2							RightColorProc	1	1	2	RightColorList	Red	PUNAISEN	punai	4				1	4	517	0	1				2	2	RightTrialProc	500	2	1	1	3	2	64	RightTrialList
1	1	41			5												VASENTA		ResponseHandList		1	3	Right	RightHemiProc	HemiList	2							RightColorProc	1	1	2	RightColorList	Red	PUNAISEN	punai	5				1	4	354	0	1				2	1	RightTrialProc	338	1	0	1	3	2	65	RightTrialList
1	1	41			5												VASENTA		ResponseHandList		1	3	Right	RightHemiProc	HemiList	2							RightColorProc	1	1	2	RightColorList	Red	PUNAISEN	punai	6				1	4	357	0	1				2	1	RightTrialProc	340	1	0	1	3	2	66	RightTrialList
1	1	41			5												VASENTA		ResponseHandList		1	3	Right	RightHemiProc	HemiList	2							RightColorProc	1	1	2	RightColorList	Red	PUNAISEN	punai	7				1	4	550	0	1				2	2	RightTrialProc	533	2	1	1	3	2	67	RightTrialList
1	1	41			5												VASENTA		ResponseHandList		1	3	Right	RightHemiProc	HemiList	2							RightColorProc	1	1	2	RightColorList	Red	PUNAISEN	punai	8				0	4	463	1	0				1	1	RightTrialProc	446	1	1	1	2	2	68	RightTrialList
1	1	41			5												VASENTA		ResponseHandList		1	3	Right	RightHemiProc	HemiList	2							RightColorProc	1	1	2	RightColorList	Red	PUNAISEN	punai	9				1	4	354	0	1				1	1	RightTrialProc	337	1	1	0	1	2	69	RightTrialList
1	1	41			5												VASENTA		ResponseHandList		1	3	Right	RightHemiProc	HemiList	2							RightColorProc	1	1	2	RightColorList	Red	PUNAISEN	punai	10				0	4	615	1	0				1	1	RightTrialProc	599	1	1	1	2	2	70	RightTrialList
1	1	41			5												VASENTA		ResponseHandList		1	3	Right	RightHemiProc	HemiList	2							RightColorProc	1	1	2	RightColorList	Red	PUNAISEN	punai	11				1	4	324	0	1				2	1	RightTrialProc	307	1	0	1	3	2	71	RightTrialList
1	1	41			5												VASENTA		ResponseHandList		1	3	Right	RightHemiProc	HemiList	2							RightColorProc	1	1	2	RightColorList	Red	PUNAISEN	punai	12				1	4	346	0	1				2	2	RightTrialProc	330	2	1	1	3	2	72	RightTrialList
1	1	41			5												VASENTA		ResponseHandList		1	3	Right	RightHemiProc	HemiList	2							RightColorProc	1	1	2	RightColorList	Red	PUNAISEN	punai	13				1	3	477	0	1				1	1	RightTrialProc	460	1	1	0	1	2	73	RightTrialList
1	1	41			5												VASENTA		ResponseHandList		1	3	Right	RightHemiProc	HemiList	2							RightColorProc	1	1	2	RightColorList	Red	PUNAISEN	punai	14				0	3	376	1	0				1	1	RightTrialProc	359	1	1	1	2	2	74	RightTrialList
1	1	41			5												VASENTA		ResponseHandList		1	3	Right	RightHemiProc	HemiList	2							RightColorProc	1	1	2	RightColorList	Red	PUNAISEN	punai	15				0	3	386	1	0				1	1	RightTrialProc	369	1	1	1	2	2	75	RightTrialList
1	1	41			5												VASENTA		ResponseHandList		1	3	Right	RightHemiProc	HemiList	2							RightColorProc	1	1	2	RightColorList	Red	PUNAISEN	punai	16				1	3	358	0	1				2	1	RightTrialProc	342	1	0	1	3	2	76	RightTrialList
1	1	41			5												VASENTA		ResponseHandList		1	3	Right	RightHemiProc	HemiList	2							RightColorProc	1	1	2	RightColorList	Red	PUNAISEN	punai	17				0	4	376	1	0				1	1	RightTrialProc	360	1	1	1	2	2	77	RightTrialList
1	1	41			5												VASENTA		ResponseHandList		1	3	Right	RightHemiProc	HemiList	2							RightColorProc	1	1	2	RightColorList	Red	PUNAISEN	punai	18				0	3	423	1	0				1	1	RightTrialProc	407	1	1	1	2	2	78	RightTrialList
1	1	41			5												VASENTA		ResponseHandList		1	3	Right	RightHemiProc	HemiList	2							RightColorProc	1	1	2	RightColorList	Red	PUNAISEN	punai	19				0	2	396	1	0				1	1	RightTrialProc	379	1	1	1	2	2	79	RightTrialList
1	1	41			5												VASENTA		ResponseHandList		1	3	Right	RightHemiProc	HemiList	2							RightColorProc	1	1	2	RightColorList	Red	PUNAISEN	punai	20				1	2	429	0	1				1	1	RightTrialProc	412	1	1	0	1	2	80	RightTrialList
1	1	41			5												VASENTA		ResponseHandList		1	3	Right	RightHemiProc	HemiList	2							RightColorProc	1	1	2	RightColorList	Red	PUNAISEN	punai	21				1	3	326	0	1				1	1	RightTrialProc	310	1	1	0	1	2	81	RightTrialList
1	1	41			5												VASENTA		ResponseHandList		1	3	Right	RightHemiProc	HemiList	2							RightColorProc	1	1	2	RightColorList	Red	PUNAISEN	punai	22				0	4	452	1	0				1	1	RightTrialProc	436	1	1	1	2	2	82	RightTrialList
1	1	41			5												VASENTA		ResponseHandList		1	3	Right	RightHemiProc	HemiList	2							RightColorProc	1	1	2	RightColorList	Red	PUNAISEN	punai	23				0	3	424	1	0				1	1	RightTrialProc	407	1	1	1	2	2	83	RightTrialList
1	1	41			5												VASENTA		ResponseHandList		1	3	Right	RightHemiProc	HemiList	2							RightColorProc	1	1	2	RightColorList	Red	PUNAISEN	punai	24				0	4	0	1	0				0	0	RightTrialProc	0	3	1	0	4	2	84	RightTrialList
1	1	41			5												VASENTA		ResponseHandList		1	3	Right	RightHemiProc	HemiList	2							RightColorProc	1	1	2	RightColorList	Red	PUNAISEN	punai	25				0	4	0	1	0				0	0	RightTrialProc	0	3	1	0	4	2	85	RightTrialList
1	1	41			5												VASENTA		ResponseHandList		1	3	Right	RightHemiProc	HemiList	2							RightColorProc	1	1	2	RightColorList	Red	PUNAISEN	punai	26				0	4	0	1	0				0	0	RightTrialProc	0	3	1	0	4	2	86	RightTrialList
1	1	41			5												VASENTA		ResponseHandList		1	3	Right	RightHemiProc	HemiList	2							RightColorProc	1	1	2	RightColorList	Red	PUNAISEN	punai	27				1	4	428	0	1				2	2	RightTrialProc	411	2	1	1	3	2	87	RightTrialList
1	1	41			5												VASENTA		ResponseHandList		1	3	Right	RightHemiProc	HemiList	2							RightColorProc	1	1	2	RightColorList	Red	PUNAISEN	punai	28				1	4	323	0	1				2	1	RightTrialProc	307	1	0	1	3	2	88	RightTrialList
1	1	41			5												VASENTA		ResponseHandList		1	3	Right	RightHemiProc	HemiList	2							RightColorProc	1	1	2	RightColorList	Red	PUNAISEN	punai	29				0	4	300	1	0				1	1	RightTrialProc	283	1	1	1	2	2	89	RightTrialList
1	1	41			5												VASENTA		ResponseHandList		1	3	Right	RightHemiProc	HemiList	2							RightColorProc	1	1	2	RightColorList	Red	PUNAISEN	punai	30				1	3	403	0	1				2	2	RightTrialProc	386	2	1	1	3	2	90	RightTrialList
1	1	41			5												VASENTA		ResponseHandList		1	3	Right	RightHemiProc	HemiList	2							RightColorProc	1	1	2	RightColorList	Red	PUNAISEN	punai	31				1	4	313	0	1				2	2	RightTrialProc	296	2	1	1	3	2	91	RightTrialList
1	1	41			5												VASENTA		ResponseHandList		1	3	Right	RightHemiProc	HemiList	2							RightColorProc	1	1	2	RightColorList	Red	PUNAISEN	punai	32				1	4	320	0	1				2	2	RightTrialProc	303	2	1	1	3	2	92	RightTrialList
1	1	41			5												VASENTA		ResponseHandList		1	3	Right	RightHemiProc	HemiList	2							RightColorProc	1	1	2	RightColorList	Red	PUNAISEN	punai	33				1	3	316	0	1				1	1	RightTrialProc	299	1	1	0	1	2	93	RightTrialList
1	1	41			5												VASENTA		ResponseHandList		1	3	Right	RightHemiProc	HemiList	2							RightColorProc	1	1	2	RightColorList	Red	PUNAISEN	punai	34				0	4	0	1	0				0	0	RightTrialProc	0	3	1	0	4	2	94	RightTrialList
1	1	41			5												VASENTA		ResponseHandList		1	3	Right	RightHemiProc	HemiList	2							RightColorProc	1	1	2	RightColorList	Red	PUNAISEN	punai	35				0	4	329	1	0				1	1	RightTrialProc	312	1	1	1	2	2	95	RightTrialList
1	1	41			5												VASENTA		ResponseHandList		1	3	Right	RightHemiProc	HemiList	2							RightColorProc	1	1	2	RightColorList	Red	PUNAISEN	punai	36				1	4	350	0	1				2	1	RightTrialProc	333	1	0	1	3	2	96	RightTrialList
1	1	41			5												VASENTA		ResponseHandList		1	3	Right	RightHemiProc	HemiList	2							RightColorProc	1	1	2	RightColorList	Red	PUNAISEN	punai	37				1	3	345	0	1				2	1	RightTrialProc	328	1	0	1	3	2	97	RightTrialList
1	1	41			5												VASENTA		ResponseHandList		1	3	Right	RightHemiProc	HemiList	2							RightColorProc	1	1	2	RightColorList	Red	PUNAISEN	punai	38				1	4	355	0	1				2	2	RightTrialProc	338	2	1	1	3	2	98	RightTrialList
1	1	41			5												VASENTA		ResponseHandList		1	3	Right	RightHemiProc	HemiList	2							RightColorProc	1	1	2	RightColorList	Red	PUNAISEN	punai	39				0	4	0	1	0				0	0	RightTrialProc	0	3	1	0	4	2	99	RightTrialList
1	1	41			5												VASENTA		ResponseHandList		1	3	Right	RightHemiProc	HemiList	2							RightColorProc	1	1	2	RightColorList	Red	PUNAISEN	punai	40				0	4	0	1	0				0	0	RightTrialProc	0	3	1	0	4	2	100	RightTrialList
1	1	41			5												VASENTA		ResponseHandList		1	3	Right	RightHemiProc	HemiList	2							RightColorProc	1	1	2	RightColorList	Red	PUNAISEN	punai	41				1	3	330	0	1				1	1	RightTrialProc	314	1	1	0	1	2	101	RightTrialList
1	1	41			5												VASENTA		ResponseHandList		1	3	Right	RightHemiProc	HemiList	2							RightColorProc	1	1	2	RightColorList	Red	PUNAISEN	punai	42				0	3	391	1	0				1	1	RightTrialProc	374	1	1	1	2	2	102	RightTrialList
1	1	41			5												VASENTA		ResponseHandList		1	3	Right	RightHemiProc	HemiList	2							RightColorProc	1	1	2	RightColorList	Red	PUNAISEN	punai	43				1	4	342	0	1				1	1	RightTrialProc	325	1	1	0	1	2	103	RightTrialList
1	1	41			5												VASENTA		ResponseHandList		1	3	Right	RightHemiProc	HemiList	2							RightColorProc	1	1	2	RightColorList	Red	PUNAISEN	punai	44				1	3	375	0	1				2	2	RightTrialProc	358	2	1	1	3	2	104	RightTrialList
1	1	41			5												VASENTA		ResponseHandList		1	3	Right	RightHemiProc	HemiList	2							RightColorProc	1	1	2	RightColorList	Red	PUNAISEN	punai	45				0	4	441	1	0				1	1	RightTrialProc	424	1	1	1	2	2	105	RightTrialList
1	1	41			5												VASENTA		ResponseHandList		1	3	Right	RightHemiProc	HemiList	2							RightColorProc	1	1	2	RightColorList	Red	PUNAISEN	punai	46				1	4	309	0	1				1	1	RightTrialProc	292	1	1	0	1	2	106	RightTrialList
1	1	41			5												VASENTA		ResponseHandList		1	3	Right	RightHemiProc	HemiList	2							RightColorProc	1	1	2	RightColorList	Red	PUNAISEN	punai	47				1	4	363	0	1				2	2	RightTrialProc	347	2	1	1	3	2	107	RightTrialList
1	1	41			5												VASENTA		ResponseHandList		1	3	Right	RightHemiProc	HemiList	2							RightColorProc	1	1	2	RightColorList	Red	PUNAISEN	punai	48				1	4	326	0	1				2	2	RightTrialProc	309	2	1	1	3	2	108	RightTrialList
1	1	41			5												VASENTA		ResponseHandList		1	3	Right	RightHemiProc	HemiList	2							RightColorProc	1	1	2	RightColorList	Red	PUNAISEN	punai	49				0	4	0	1	0				0	0	RightTrialProc	0	3	1	0	4	2	109	RightTrialList
1	1	41			5												VASENTA		ResponseHandList		1	3	Right	RightHemiProc	HemiList	2							RightColorProc	1	1	2	RightColorList	Red	PUNAISEN	punai	50				1	4	390	0	1				2	2	RightTrialProc	373	2	1	1	3	2	110	RightTrialList
1	1	41			5												VASENTA		ResponseHandList		1	3	Right	RightHemiProc	HemiList	2							RightColorProc	1	1	2	RightColorList	Red	PUNAISEN	punai	51				1	4	341	0	1				2	2	RightTrialProc	324	2	1	1	3	2	111	RightTrialList
1	1	41			5												VASENTA		ResponseHandList		1	3	Right	RightHemiProc	HemiList	2							RightColorProc	1	1	2	RightColorList	Red	PUNAISEN	punai	52				0	4	500	1	0				1	1	RightTrialProc	483	1	1	1	2	2	112	RightTrialList
1	1	41			5												VASENTA		ResponseHandList		1	3	Right	RightHemiProc	HemiList	2							RightColorProc	1	1	2	RightColorList	Red	PUNAISEN	punai	53				0	2	0	1	0				1	0	RightTrialProc	0	3	0	1	2	2	113	RightTrialList
1	1	41			5												VASENTA		ResponseHandList		1	3	Right	RightHemiProc	HemiList	2							RightColorProc	1	1	2	RightColorList	Red	PUNAISEN	punai	54				0	4	0	1	0				0	0	RightTrialProc	0	3	1	0	4	2	114	RightTrialList
1	1	41			5												VASENTA		ResponseHandList		1	3	Right	RightHemiProc	HemiList	2							RightColorProc	1	1	2	RightColorList	Red	PUNAISEN	punai	55				0	4	332	1	0				1	1	RightTrialProc	315	1	1	1	2	2	115	RightTrialList
1	1	41			5												VASENTA		ResponseHandList		1	3	Right	RightHemiProc	HemiList	2							RightColorProc	1	1	2	RightColorList	Red	PUNAISEN	punai	56				0	4	458	1	0				1	1	RightTrialProc	441	1	1	1	2	2	116	RightTrialList
1	1	41			5												VASENTA		ResponseHandList		1	3	Right	RightHemiProc	HemiList	2							RightColorProc	1	1	2	RightColorList	Red	PUNAISEN	punai	57				0	4	348	1	0				1	1	RightTrialProc	331	1	1	1	2	2	117	RightTrialList
1	1	41			5												VASENTA		ResponseHandList		1	3	Right	RightHemiProc	HemiList	2							RightColorProc	1	1	2	RightColorList	Red	PUNAISEN	punai	58				0	4	354	1	0				1	1	RightTrialProc	338	1	1	1	2	2	118	RightTrialList
1	1	41			5												VASENTA		ResponseHandList		1	3	Right	RightHemiProc	HemiList	2							RightColorProc	1	1	2	RightColorList	Red	PUNAISEN	punai	59				1	4	0	0	1				1	0	RightTrialProc	0	3	0	0	1	2	119	RightTrialList
1	1	41			5												VASENTA		ResponseHandList		1	3	Right	RightHemiProc	HemiList	2							RightColorProc	1	1	2	RightColorList	Red	PUNAISEN	punai	60				0	3	348	1	0				1	1	RightTrialProc	331	1	1	1	2	2	120	RightTrialList
1	1	42			6												OIKEAA		ResponseHandList		1	1	Left	LeftHemiProc	HemiList	1				2	2	3	LeftColorProc				LeftColorList	Blue	SINISEN	sini	1				1	4	362	0	1	3	3	121	2	1	LeftTrialProc	345	1	0	1				LeftTrialList
1	1	42			6												OIKEAA		ResponseHandList		1	1	Left	LeftHemiProc	HemiList	1				2	2	3	LeftColorProc				LeftColorList	Blue	SINISEN	sini	2				0	4	292	1	1	1	3	122	1	1	LeftTrialProc	275	1	1	0				LeftTrialList
1	1	42			6												OIKEAA		ResponseHandList		1	1	Left	LeftHemiProc	HemiList	1				2	2	3	LeftColorProc				LeftColorList	Blue	SINISEN	sini	3				1	4	296	0	1	3	3	123	2	1	LeftTrialProc	279	1	0	1				LeftTrialList
1	1	42			6												OIKEAA		ResponseHandList		1	1	Left	LeftHemiProc	HemiList	1				2	2	3	LeftColorProc				LeftColorList	Blue	SINISEN	sini	4				0	4	0	1	0	4	3	124	0	0	LeftTrialProc	0	3	1	0				LeftTrialList
1	1	42			6												OIKEAA		ResponseHandList		1	1	Left	LeftHemiProc	HemiList	1				2	2	3	LeftColorProc				LeftColorList	Blue	SINISEN	sini	5				0	4	290	1	1	1	3	125	1	1	LeftTrialProc	273	1	1	0				LeftTrialList
1	1	42			6												OIKEAA		ResponseHandList		1	1	Left	LeftHemiProc	HemiList	1				2	2	3	LeftColorProc				LeftColorList	Blue	SINISEN	sini	6				0	4	329	1	1	1	3	126	1	1	LeftTrialProc	313	1	1	0				LeftTrialList
1	1	42			6												OIKEAA		ResponseHandList		1	1	Left	LeftHemiProc	HemiList	1				2	2	3	LeftColorProc				LeftColorList	Blue	SINISEN	sini	7				1	4	264	0	1	3	3	127	2	1	LeftTrialProc	248	1	0	1				LeftTrialList
1	1	42			6												OIKEAA		ResponseHandList		1	1	Left	LeftHemiProc	HemiList	1				2	2	3	LeftColorProc				LeftColorList	Blue	SINISEN	sini	8				1	4	285	0	1	3	3	128	2	1	LeftTrialProc	269	1	0	1				LeftTrialList
1	1	42			6												OIKEAA		ResponseHandList		1	1	Left	LeftHemiProc	HemiList	1				2	2	3	LeftColorProc				LeftColorList	Blue	SINISEN	sini	9				0	4	294	1	1	1	3	129	1	1	LeftTrialProc	278	1	1	0				LeftTrialList
1	1	42			6												OIKEAA		ResponseHandList		1	1	Left	LeftHemiProc	HemiList	1				2	2	3	LeftColorProc				LeftColorList	Blue	SINISEN	sini	10				1	4	279	0	1	3	3	130	2	1	LeftTrialProc	262	1	0	1				LeftTrialList
1	1	42			6												OIKEAA		ResponseHandList		1	1	Left	LeftHemiProc	HemiList	1				2	2	3	LeftColorProc				LeftColorList	Blue	SINISEN	sini	11				1	4	0	0	0	2	3	131	1	0	LeftTrialProc	0	3	0	1				LeftTrialList
1	1	42			6												OIKEAA		ResponseHandList		1	1	Left	LeftHemiProc	HemiList	1				2	2	3	LeftColorProc				LeftColorList	Blue	SINISEN	sini	12				1	4	310	0	1	3	3	132	2	1	LeftTrialProc	293	1	0	1				LeftTrialList
1	1	42			6												OIKEAA		ResponseHandList		1	1	Left	LeftHemiProc	HemiList	1				2	2	3	LeftColorProc				LeftColorList	Blue	SINISEN	sini	13				1	4	323	0	1	3	3	133	2	1	LeftTrialProc	306	1	0	1				LeftTrialList
1	1	42			6												OIKEAA		ResponseHandList		1	1	Left	LeftHemiProc	HemiList	1				2	2	3	LeftColorProc				LeftColorList	Blue	SINISEN	sini	14				1	4	0	0	0	2	3	134	1	0	LeftTrialProc	0	3	0	1				LeftTrialList
1	1	42			6												OIKEAA		ResponseHandList		1	1	Left	LeftHemiProc	HemiList	1				2	2	3	LeftColorProc				LeftColorList	Blue	SINISEN	sini	15				1	2	316	0	1	3	3	135	2	1	LeftTrialProc	299	1	0	1				LeftTrialList
1	1	42			6												OIKEAA		ResponseHandList		1	1	Left	LeftHemiProc	HemiList	1				2	2	3	LeftColorProc				LeftColorList	Blue	SINISEN	sini	16				0	4	306	1	1	1	3	136	1	1	LeftTrialProc	290	1	1	0				LeftTrialList
1	1	42			6												OIKEAA		ResponseHandList		1	1	Left	LeftHemiProc	HemiList	1				2	2	3	LeftColorProc				LeftColorList	Blue	SINISEN	sini	17				1	4	0	0	1	3	3	137	2	0	LeftTrialProc	0	3	0	1				LeftTrialList
1	1	42			6												OIKEAA		ResponseHandList		1	1	Left	LeftHemiProc	HemiList	1				2	2	3	LeftColorProc				LeftColorList	Blue	SINISEN	sini	18				0	4	318	1	1	1	3	138	1	1	LeftTrialProc	301	1	1	0				LeftTrialList
1	1	42			6												OIKEAA		ResponseHandList		1	1	Left	LeftHemiProc	HemiList	1				2	2	3	LeftColorProc				LeftColorList	Blue	SINISEN	sini	19				1	4	0	0	0	2	3	139	1	0	LeftTrialProc	0	3	0	1				LeftTrialList
1	1	42			6												OIKEAA		ResponseHandList		1	1	Left	LeftHemiProc	HemiList	1				2	2	3	LeftColorProc				LeftColorList	Blue	SINISEN	sini	20				1	4	326	0	1	3	3	140	2	1	LeftTrialProc	309	1	0	1				LeftTrialList
1	1	42			6												OIKEAA		ResponseHandList		1	1	Left	LeftHemiProc	HemiList	1				2	2	3	LeftColorProc				LeftColorList	Blue	SINISEN	sini	21				1	4	0	0	0	2	3	141	1	0	LeftTrialProc	0	3	0	1				LeftTrialList
1	1	42			6												OIKEAA		ResponseHandList		1	1	Left	LeftHemiProc	HemiList	1				2	2	3	LeftColorProc				LeftColorList	Blue	SINISEN	sini	22				0	4	307	1	1	1	3	142	1	1	LeftTrialProc	290	1	1	0				LeftTrialList
1	1	42			6												OIKEAA		ResponseHandList		1	1	Left	LeftHemiProc	HemiList	1				2	2	3	LeftColorProc				LeftColorList	Blue	SINISEN	sini	23				1	4	0	0	0	2	3	143	1	0	LeftTrialProc	0	3	0	1				LeftTrialList
1	1	42			6												OIKEAA		ResponseHandList		1	1	Left	LeftHemiProc	HemiList	1				2	2	3	LeftColorProc				LeftColorList	Blue	SINISEN	sini	24				0	3	330	1	1	1	3	144	1	1	LeftTrialProc	313	1	1	0				LeftTrialList
1	1	42			6												OIKEAA		ResponseHandList		1	1	Left	LeftHemiProc	HemiList	1				2	2	3	LeftColorProc				LeftColorList	Blue	SINISEN	sini	25				1	4	284	0	1	3	3	145	2	1	LeftTrialProc	267	1	0	1				LeftTrialList
1	1	42			6												OIKEAA		ResponseHandList		1	1	Left	LeftHemiProc	HemiList	1				2	2	3	LeftColorProc				LeftColorList	Blue	SINISEN	sini	26				1	4	349	0	1	3	3	146	2	1	LeftTrialProc	332	1	0	1				LeftTrialList
1	1	42			6												OIKEAA		ResponseHandList		1	1	Left	LeftHemiProc	HemiList	1				2	2	3	LeftColorProc				LeftColorList	Blue	SINISEN	sini	27				0	4	0	1	0	4	3	147	0	0	LeftTrialProc	0	3	1	0				LeftTrialList
1	1	42			6												OIKEAA		ResponseHandList		1	1	Left	LeftHemiProc	HemiList	1				2	2	3	LeftColorProc				LeftColorList	Blue	SINISEN	sini	28				0	4	328	1	1	1	3	148	1	1	LeftTrialProc	311	1	1	0				LeftTrialList
1	1	42			6												OIKEAA		ResponseHandList		1	1	Left	LeftHemiProc	HemiList	1				2	2	3	LeftColorProc				LeftColorList	Blue	SINISEN	sini	29				0	4	0	1	0	4	3	149	0	0	LeftTrialProc	0	3	1	0				LeftTrialList
1	1	42			6												OIKEAA		ResponseHandList		1	1	Left	LeftHemiProc	HemiList	1				2	2	3	LeftColorProc				LeftColorList	Blue	SINISEN	sini	30				1	4	293	0	1	3	3	150	2	1	LeftTrialProc	276	1	0	1				LeftTrialList
1	1	42			6												OIKEAA		ResponseHandList		1	1	Left	LeftHemiProc	HemiList	1				2	2	3	LeftColorProc				LeftColorList	Blue	SINISEN	sini	31				0	4	324	1	1	1	3	151	1	1	LeftTrialProc	307	1	1	0				LeftTrialList
1	1	42			6												OIKEAA		ResponseHandList		1	1	Left	LeftHemiProc	HemiList	1				2	2	3	LeftColorProc				LeftColorList	Blue	SINISEN	sini	32				0	4	0	1	0	4	3	152	0	0	LeftTrialProc	0	3	1	0				LeftTrialList
1	1	42			6												OIKEAA		ResponseHandList		1	1	Left	LeftHemiProc	HemiList	1				2	2	3	LeftColorProc				LeftColorList	Blue	SINISEN	sini	33				1	4	283	0	1	3	3	153	2	1	LeftTrialProc	266	1	0	1				LeftTrialList
1	1	42			6												OIKEAA		ResponseHandList		1	1	Left	LeftHemiProc	HemiList	1				2	2	3	LeftColorProc				LeftColorList	Blue	SINISEN	sini	34				0	4	0	1	0	4	3	154	0	0	LeftTrialProc	0	3	1	0				LeftTrialList
1	1	42			6												OIKEAA		ResponseHandList		1	1	Left	LeftHemiProc	HemiList	1				2	2	3	LeftColorProc				LeftColorList	Blue	SINISEN	sini	35				0	4	335	1	1	1	3	155	1	1	LeftTrialProc	318	1	1	0				LeftTrialList
1	1	42			6												OIKEAA		ResponseHandList		1	1	Left	LeftHemiProc	HemiList	1				2	2	3	LeftColorProc				LeftColorList	Blue	SINISEN	sini	36				1	4	307	0	1	3	3	156	2	1	LeftTrialProc	290	1	0	1				LeftTrialList
1	1	42			6												OIKEAA		ResponseHandList		1	1	Left	LeftHemiProc	HemiList	1				2	2	3	LeftColorProc				LeftColorList	Blue	SINISEN	sini	37				1	4	289	0	1	3	3	157	2	1	LeftTrialProc	272	1	0	1				LeftTrialList
1	1	42			6												OIKEAA		ResponseHandList		1	1	Left	LeftHemiProc	HemiList	1				2	2	3	LeftColorProc				LeftColorList	Blue	SINISEN	sini	38				1	4	0	0	0	2	3	158	1	0	LeftTrialProc	0	3	0	1				LeftTrialList
1	1	42			6												OIKEAA		ResponseHandList		1	1	Left	LeftHemiProc	HemiList	1				2	2	3	LeftColorProc				LeftColorList	Blue	SINISEN	sini	39				1	4	376	0	1	3	3	159	2	1	LeftTrialProc	360	1	0	1				LeftTrialList
1	1	42			6												OIKEAA		ResponseHandList		1	1	Left	LeftHemiProc	HemiList	1				2	2	3	LeftColorProc				LeftColorList	Blue	SINISEN	sini	40				0	4	302	1	1	1	3	160	1	1	LeftTrialProc	285	1	1	0				LeftTrialList
1	1	42			6												OIKEAA		ResponseHandList		1	1	Left	LeftHemiProc	HemiList	1				2	2	3	LeftColorProc				LeftColorList	Blue	SINISEN	sini	41				0	4	0	1	0	4	3	161	0	0	LeftTrialProc	0	3	1	0				LeftTrialList
1	1	42			6												OIKEAA		ResponseHandList		1	1	Left	LeftHemiProc	HemiList	1				2	2	3	LeftColorProc				LeftColorList	Blue	SINISEN	sini	42				0	4	289	1	1	1	3	162	1	1	LeftTrialProc	272	1	1	0				LeftTrialList
1	1	42			6												OIKEAA		ResponseHandList		1	1	Left	LeftHemiProc	HemiList	1				2	2	3	LeftColorProc				LeftColorList	Blue	SINISEN	sini	43				0	4	0	1	0	4	3	163	0	0	LeftTrialProc	0	3	1	0				LeftTrialList
1	1	42			6												OIKEAA		ResponseHandList		1	1	Left	LeftHemiProc	HemiList	1				2	2	3	LeftColorProc				LeftColorList	Blue	SINISEN	sini	44				0	3	0	1	1	1	3	164	1	0	LeftTrialProc	0	3	0	0				LeftTrialList
1	1	42			6												OIKEAA		ResponseHandList		1	1	Left	LeftHemiProc	HemiList	1				2	2	3	LeftColorProc				LeftColorList	Blue	SINISEN	sini	45				0	3	0	1	0	4	3	165	0	0	LeftTrialProc	0	3	1	0				LeftTrialList
1	1	42			6												OIKEAA		ResponseHandList		1	1	Left	LeftHemiProc	HemiList	1				2	2	3	LeftColorProc				LeftColorList	Blue	SINISEN	sini	46				0	3	305	1	1	1	3	166	1	1	LeftTrialProc	288	1	1	0				LeftTrialList
1	1	42			6												OIKEAA		ResponseHandList		1	1	Left	LeftHemiProc	HemiList	1				2	2	3	LeftColorProc				LeftColorList	Blue	SINISEN	sini	47				0	4	272	1	1	1	3	167	1	1	LeftTrialProc	256	1	1	0				LeftTrialList
1	1	42			6												OIKEAA		ResponseHandList		1	1	Left	LeftHemiProc	HemiList	1				2	2	3	LeftColorProc				LeftColorList	Blue	SINISEN	sini	48				1	4	0	0	0	2	3	168	1	0	LeftTrialProc	0	3	0	1				LeftTrialList
1	1	42			6												OIKEAA		ResponseHandList		1	1	Left	LeftHemiProc	HemiList	1				2	2	3	LeftColorProc				LeftColorList	Blue	SINISEN	sini	49				1	3	311	0	1	3	3	169	2	1	LeftTrialProc	295	1	0	1				LeftTrialList
1	1	42			6												OIKEAA		ResponseHandList		1	1	Left	LeftHemiProc	HemiList	1				2	2	3	LeftColorProc				LeftColorList	Blue	SINISEN	sini	50				0	4	278	1	1	1	3	170	1	1	LeftTrialProc	261	1	1	0				LeftTrialList
1	1	42			6												OIKEAA		ResponseHandList		1	1	Left	LeftHemiProc	HemiList	1				2	2	3	LeftColorProc				LeftColorList	Blue	SINISEN	sini	51				1	4	371	0	1	3	3	171	2	1	LeftTrialProc	354	1	0	1				LeftTrialList
1	1	42			6												OIKEAA		ResponseHandList		1	1	Left	LeftHemiProc	HemiList	1				2	2	3	LeftColorProc				LeftColorList	Blue	SINISEN	sini	52				0	4	302	1	1	1	3	172	1	1	LeftTrialProc	285	1	1	0				LeftTrialList
1	1	42			6												OIKEAA		ResponseHandList		1	1	Left	LeftHemiProc	HemiList	1				2	2	3	LeftColorProc				LeftColorList	Blue	SINISEN	sini	53				0	4	279	1	1	1	3	173	1	1	LeftTrialProc	262	1	1	0				LeftTrialList
1	1	42			6												OIKEAA		ResponseHandList		1	1	Left	LeftHemiProc	HemiList	1				2	2	3	LeftColorProc				LeftColorList	Blue	SINISEN	sini	54				1	4	311	0	1	3	3	174	2	1	LeftTrialProc	294	1	0	1				LeftTrialList
1	1	42			6												OIKEAA		ResponseHandList		1	1	Left	LeftHemiProc	HemiList	1				2	2	3	LeftColorProc				LeftColorList	Blue	SINISEN	sini	55				0	4	318	1	1	1	3	175	1	1	LeftTrialProc	301	1	1	0				LeftTrialList
1	1	42			6												OIKEAA		ResponseHandList		1	1	Left	LeftHemiProc	HemiList	1				2	2	3	LeftColorProc				LeftColorList	Blue	SINISEN	sini	56				1	4	0	0	0	2	3	176	1	0	LeftTrialProc	0	3	0	1				LeftTrialList
1	1	42			6												OIKEAA		ResponseHandList		1	1	Left	LeftHemiProc	HemiList	1				2	2	3	LeftColorProc				LeftColorList	Blue	SINISEN	sini	57				0	4	0	1	0	4	3	177	0	0	LeftTrialProc	0	3	1	0				LeftTrialList
1	1	42			6												OIKEAA		ResponseHandList		1	1	Left	LeftHemiProc	HemiList	1				2	2	3	LeftColorProc				LeftColorList	Blue	SINISEN	sini	58				1	4	0	0	0	2	3	178	1	0	LeftTrialProc	0	3	0	1				LeftTrialList
1	1	42			6												OIKEAA		ResponseHandList		1	1	Left	LeftHemiProc	HemiList	1				2	2	3	LeftColorProc				LeftColorList	Blue	SINISEN	sini	59				1	4	0	0	0	2	3	179	1	0	LeftTrialProc	0	3	0	1				LeftTrialList
1	1	42			6												OIKEAA		ResponseHandList		1	1	Left	LeftHemiProc	HemiList	1				2	2	3	LeftColorProc				LeftColorList	Blue	SINISEN	sini	60				0	4	0	1	0	4	3	180	0	0	LeftTrialProc	0	3	1	0				LeftTrialList
1	1	42			6												OIKEAA		ResponseHandList		1	1	Left	LeftHemiProc	HemiList	2				1	2	4	LeftColorProc				LeftColorList	Red	PUNAISEN	punai	1				0	4	326	1	1	1	4	181	1	1	LeftTrialProc	309	1	1	0				LeftTrialList
1	1	42			6												OIKEAA		ResponseHandList		1	1	Left	LeftHemiProc	HemiList	2				1	2	4	LeftColorProc				LeftColorList	Red	PUNAISEN	punai	2				1	3	260	0	1	3	4	182	2	1	LeftTrialProc	244	1	0	1				LeftTrialList
1	1	42			6												OIKEAA		ResponseHandList		1	1	Left	LeftHemiProc	HemiList	2				1	2	4	LeftColorProc				LeftColorList	Red	PUNAISEN	punai	3				0	3	320	1	1	1	4	183	1	1	LeftTrialProc	303	1	1	0				LeftTrialList
1	1	42			6												OIKEAA		ResponseHandList		1	1	Left	LeftHemiProc	HemiList	2				1	2	4	LeftColorProc				LeftColorList	Red	PUNAISEN	punai	4				0	4	317	1	1	1	4	184	1	1	LeftTrialProc	300	1	1	0				LeftTrialList
1	1	42			6												OIKEAA		ResponseHandList		1	1	Left	LeftHemiProc	HemiList	2				1	2	4	LeftColorProc				LeftColorList	Red	PUNAISEN	punai	5				0	4	0	1	0	4	4	185	0	0	LeftTrialProc	0	3	1	0				LeftTrialList
1	1	42			6												OIKEAA		ResponseHandList		1	1	Left	LeftHemiProc	HemiList	2				1	2	4	LeftColorProc				LeftColorList	Red	PUNAISEN	punai	6				1	4	288	0	1	3	4	186	2	1	LeftTrialProc	271	1	0	1				LeftTrialList
1	1	42			6												OIKEAA		ResponseHandList		1	1	Left	LeftHemiProc	HemiList	2				1	2	4	LeftColorProc				LeftColorList	Red	PUNAISEN	punai	7				1	4	296	0	1	3	4	187	2	1	LeftTrialProc	280	1	0	1				LeftTrialList
1	1	42			6												OIKEAA		ResponseHandList		1	1	Left	LeftHemiProc	HemiList	2				1	2	4	LeftColorProc				LeftColorList	Red	PUNAISEN	punai	8				0	4	277	1	1	1	4	188	1	1	LeftTrialProc	260	1	1	0				LeftTrialList
1	1	42			6												OIKEAA		ResponseHandList		1	1	Left	LeftHemiProc	HemiList	2				1	2	4	LeftColorProc				LeftColorList	Red	PUNAISEN	punai	9				0	4	0	1	0	4	4	189	0	0	LeftTrialProc	0	3	1	0				LeftTrialList
1	1	42			6												OIKEAA		ResponseHandList		1	1	Left	LeftHemiProc	HemiList	2				1	2	4	LeftColorProc				LeftColorList	Red	PUNAISEN	punai	10				1	4	0	0	0	2	4	190	1	0	LeftTrialProc	0	3	0	1				LeftTrialList
1	1	42			6												OIKEAA		ResponseHandList		1	1	Left	LeftHemiProc	HemiList	2				1	2	4	LeftColorProc				LeftColorList	Red	PUNAISEN	punai	11				0	4	274	1	1	1	4	191	1	1	LeftTrialProc	257	1	1	0				LeftTrialList
1	1	42			6												OIKEAA		ResponseHandList		1	1	Left	LeftHemiProc	HemiList	2				1	2	4	LeftColorProc				LeftColorList	Red	PUNAISEN	punai	12				0	2	0	1	1	1	4	192	1	0	LeftTrialProc	0	3	0	0				LeftTrialList
1	1	42			6												OIKEAA		ResponseHandList		1	1	Left	LeftHemiProc	HemiList	2				1	2	4	LeftColorProc				LeftColorList	Red	PUNAISEN	punai	13				0	4	0	1	0	4	4	193	0	0	LeftTrialProc	0	3	1	0				LeftTrialList
1	1	42			6												OIKEAA		ResponseHandList		1	1	Left	LeftHemiProc	HemiList	2				1	2	4	LeftColorProc				LeftColorList	Red	PUNAISEN	punai	14				0	4	291	1	1	1	4	194	1	1	LeftTrialProc	274	1	1	0				LeftTrialList
1	1	42			6												OIKEAA		ResponseHandList		1	1	Left	LeftHemiProc	HemiList	2				1	2	4	LeftColorProc				LeftColorList	Red	PUNAISEN	punai	15				0	4	0	1	0	4	4	195	0	0	LeftTrialProc	0	3	1	0				LeftTrialList
1	1	42			6												OIKEAA		ResponseHandList		1	1	Left	LeftHemiProc	HemiList	2				1	2	4	LeftColorProc				LeftColorList	Red	PUNAISEN	punai	16				0	4	270	1	1	1	4	196	1	1	LeftTrialProc	253	1	1	0				LeftTrialList
1	1	42			6												OIKEAA		ResponseHandList		1	1	Left	LeftHemiProc	HemiList	2				1	2	4	LeftColorProc				LeftColorList	Red	PUNAISEN	punai	17				0	3	0	1	0	4	4	197	0	0	LeftTrialProc	0	3	1	0				LeftTrialList
1	1	42			6												OIKEAA		ResponseHandList		1	1	Left	LeftHemiProc	HemiList	2				1	2	4	LeftColorProc				LeftColorList	Red	PUNAISEN	punai	18				1	3	0	0	0	2	4	198	1	0	LeftTrialProc	0	3	0	1				LeftTrialList
1	1	42			6												OIKEAA		ResponseHandList		1	1	Left	LeftHemiProc	HemiList	2				1	2	4	LeftColorProc				LeftColorList	Red	PUNAISEN	punai	19				0	4	333	1	1	1	4	199	1	1	LeftTrialProc	316	1	1	0				LeftTrialList
1	1	42			6												OIKEAA		ResponseHandList		1	1	Left	LeftHemiProc	HemiList	2				1	2	4	LeftColorProc				LeftColorList	Red	PUNAISEN	punai	20				1	2	0	0	0	2	4	200	1	0	LeftTrialProc	0	3	0	1				LeftTrialList
1	1	42			6												OIKEAA		ResponseHandList		1	1	Left	LeftHemiProc	HemiList	2				1	2	4	LeftColorProc				LeftColorList	Red	PUNAISEN	punai	21				1	4	262	0	1	3	4	201	2	1	LeftTrialProc	246	1	0	1				LeftTrialList
1	1	42			6												OIKEAA		ResponseHandList		1	1	Left	LeftHemiProc	HemiList	2				1	2	4	LeftColorProc				LeftColorList	Red	PUNAISEN	punai	22				1	4	301	0	1	3	4	202	2	1	LeftTrialProc	284	1	0	1				LeftTrialList
1	1	42			6												OIKEAA		ResponseHandList		1	1	Left	LeftHemiProc	HemiList	2				1	2	4	LeftColorProc				LeftColorList	Red	PUNAISEN	punai	23				0	3	271	1	1	1	4	203	1	1	LeftTrialProc	255	1	1	0				LeftTrialList
1	1	42			6												OIKEAA		ResponseHandList		1	1	Left	LeftHemiProc	HemiList	2				1	2	4	LeftColorProc				LeftColorList	Red	PUNAISEN	punai	24				1	4	0	0	0	2	4	204	1	0	LeftTrialProc	0	3	0	1				LeftTrialList
1	1	42			6												OIKEAA		ResponseHandList		1	1	Left	LeftHemiProc	HemiList	2				1	2	4	LeftColorProc				LeftColorList	Red	PUNAISEN	punai	25				1	3	252	0	1	3	4	205	2	1	LeftTrialProc	235	1	0	1				LeftTrialList
