experiment,subject,uniqueID,block,trial,trial_cumulative,age,gender,color_cond_blocking,color_history,shape_type,set_size,distractor,rt,acc,target_orient,response_key,response_made,iti,target_color,target_item,distractor_item,target_X,target_Y,distractor_X,distractor_Y,item1_X,item1_Y,item2_X,item2_Y,item3_X,item3_Y,item4_X,item4_Y,item1_shape,item2_shape,item3_shape,item4_shape,item1_line,item2_line,item3_line,item4_line
3b,10,100334,1,1,1,21,M,blocked,constant,homogeneous,4,present,NaN,0,vertical,none,0,5,green,4,1,615.445130110311,784.554869889689,984.554869889689,784.554869889689,984.554869889689,784.554869889689,984.554869889689,415.445130110311,615.445130110311,415.445130110311,615.445130110311,784.554869889689,0,0,0,4,horizontal,horizontal,horizontal,vertical
3b,10,100334,1,2,2,21,M,blocked,constant,homogeneous,4,absent,1.34006094932556,1,vertical,vertical,1,8,green,1,NaN,984.554869889689,784.554869889689,NaN,NaN,984.554869889689,784.554869889689,984.554869889689,415.445130110311,615.445130110311,415.445130110311,615.445130110311,784.554869889689,4,0,0,0,vertical,horizontal,horizontal,horizontal
3b,10,100334,1,3,3,21,M,blocked,constant,homogeneous,4,present,0.680701017379761,1,horizontal,horizontal,1,3,green,2,3,984.554869889689,415.445130110311,615.445130110311,415.445130110311,984.554869889689,784.554869889689,984.554869889689,415.445130110311,615.445130110311,415.445130110311,615.445130110311,784.554869889689,0,4,0,0,horizontal,horizontal,horizontal,vertical
3b,10,100334,1,4,4,21,M,blocked,constant,homogeneous,4,present,0.764906883239746,1,vertical,vertical,1,2,green,3,1,615.445130110311,415.445130110311,984.554869889689,784.554869889689,984.554869889689,784.554869889689,984.554869889689,415.445130110311,615.445130110311,415.445130110311,615.445130110311,784.554869889689,0,0,4,0,vertical,horizontal,vertical,horizontal
3b,10,100334,1,5,5,21,M,blocked,constant,homogeneous,4,present,0.921077966690063,1,horizontal,horizontal,1,5,green,2,4,984.554869889689,415.445130110311,615.445130110311,784.554869889689,984.554869889689,784.554869889689,984.554869889689,415.445130110311,615.445130110311,415.445130110311,615.445130110311,784.554869889689,0,4,0,0,horizontal,horizontal,horizontal,vertical
3b,10,100334,1,6,6,21,M,blocked,constant,homogeneous,4,absent,1.41324186325073,1,horizontal,horizontal,1,3,green,1,NaN,984.554869889689,784.554869889689,NaN,NaN,984.554869889689,784.554869889689,984.554869889689,415.445130110311,615.445130110311,415.445130110311,615.445130110311,784.554869889689,4,0,0,0,horizontal,vertical,vertical,horizontal
3b,10,100334,1,7,7,21,M,blocked,constant,homogeneous,4,present,1.12192797660828,1,horizontal,horizontal,1,3,green,3,4,615.445130110311,415.445130110311,615.445130110311,784.554869889689,984.554869889689,784.554869889689,984.554869889689,415.445130110311,615.445130110311,415.445130110311,615.445130110311,784.554869889689,0,0,4,0,vertical,horizontal,horizontal,horizontal
3b,10,100334,1,8,8,21,M,blocked,constant,homogeneous,4,present,0.718204021453857,1,vertical,vertical,1,3,green,2,1,984.554869889689,415.445130110311,984.554869889689,784.554869889689,984.554869889689,784.554869889689,984.554869889689,415.445130110311,615.445130110311,415.445130110311,615.445130110311,784.554869889689,0,4,0,0,horizontal,vertical,vertical,horizontal
3b,10,100334,1,9,9,21,M,blocked,constant,homogeneous,4,present,1.22669291496277,0,horizontal,vertical,1,5,green,2,3,984.554869889689,415.445130110311,615.445130110311,415.445130110311,984.554869889689,784.554869889689,984.554869889689,415.445130110311,615.445130110311,415.445130110311,615.445130110311,784.554869889689,0,4,0,0,vertical,horizontal,horizontal,horizontal
3b,10,100334,1,10,10,21,M,blocked,constant,homogeneous,4,present,0.654995203018188,1,horizontal,horizontal,1,2,green,3,1,615.445130110311,415.445130110311,984.554869889689,784.554869889689,984.554869889689,784.554869889689,984.554869889689,415.445130110311,615.445130110311,415.445130110311,615.445130110311,784.554869889689,0,0,4,0,vertical,horizontal,horizontal,vertical
3b,10,100334,1,11,11,21,M,blocked,constant,homogeneous,4,absent,0.611363172531128,1,horizontal,horizontal,1,2,green,3,NaN,615.445130110311,415.445130110311,NaN,NaN,984.554869889689,784.554869889689,984.554869889689,415.445130110311,615.445130110311,415.445130110311,615.445130110311,784.554869889689,0,0,4,0,vertical,vertical,horizontal,vertical
3b,10,100334,1,12,12,21,M,blocked,constant,homogeneous,4,present,NaN,0,vertical,none,0,8,green,4,2,615.445130110311,784.554869889689,984.554869889689,415.445130110311,984.554869889689,784.554869889689,984.554869889689,415.445130110311,615.445130110311,415.445130110311,615.445130110311,784.554869889689,0,0,0,4,horizontal,vertical,horizontal,vertical
3b,10,100334,1,13,13,21,M,blocked,constant,homogeneous,4,absent,NaN,0,vertical,none,0,5,green,3,NaN,615.445130110311,415.445130110311,NaN,NaN,984.554869889689,784.554869889689,984.554869889689,415.445130110311,615.445130110311,415.445130110311,615.445130110311,784.554869889689,0,0,4,0,vertical,vertical,vertical,vertical
3b,10,100334,1,14,14,21,M,blocked,constant,homogeneous,4,present,0.768496036529541,1,vertical,vertical,1,3,green,1,4,984.554869889689,784.554869889689,615.445130110311,784.554869889689,984.554869889689,784.554869889689,984.554869889689,415.445130110311,615.445130110311,415.445130110311,615.445130110311,784.554869889689,4,0,0,0,vertical,vertical,vertical,vertical
3b,10,100334,1,15,15,21,M,blocked,constant,homogeneous,4,absent,0.709142208099365,1,horizontal,horizontal,1,8,green,4,NaN,615.445130110311,784.554869889689,NaN,NaN,984.554869889689,784.554869889689,984.554869889689,415.445130110311,615.445130110311,415.445130110311,615.445130110311,784.554869889689,0,0,0,4,horizontal,vertical,vertical,horizontal
3b,10,100334,1,16,16,21,M,blocked,constant,homogeneous,4,present,NaN,0,vertical,none,0,5,green,1,4,984.554869889689,784.554869889689,615.445130110311,784.554869889689,984.554869889689,784.554869889689,984.554869889689,415.445130110311,615.445130110311,415.445130110311,615.445130110311,784.554869889689,4,0,0,0,vertical,horizontal,vertical,horizontal
3b,10,100334,1,17,17,21,M,blocked,constant,homogeneous,4,absent,0.741957902908325,1,horizontal,horizontal,1,2,green,3,NaN,615.445130110311,415.445130110311,NaN,NaN,984.554869889689,784.554869889689,984.554869889689,415.445130110311,615.445130110311,415.445130110311,615.445130110311,784.554869889689,0,0,4,0,vertical,vertical,horizontal,horizontal
3b,10,100334,1,18,18,21,M,blocked,constant,homogeneous,4,present,1.26587009429932,1,vertical,vertical,1,3,green,4,1,615.445130110311,784.554869889689,984.554869889689,784.554869889689,984.554869889689,784.554869889689,984.554869889689,415.445130110311,615.445130110311,415.445130110311,615.445130110311,784.554869889689,0,0,0,4,horizontal,horizontal,horizontal,vertical
3b,10,100334,1,19,19,21,M,blocked,constant,homogeneous,4,absent,1.34241986274719,1,horizontal,horizontal,1,5,green,2,NaN,984.554869889689,415.445130110311,NaN,NaN,984.554869889689,784.554869889689,984.554869889689,415.445130110311,615.445130110311,415.445130110311,615.445130110311,784.554869889689,0,4,0,0,vertical,horizontal,horizontal,horizontal
3b,10,100334,1,20,20,21,M,blocked,constant,homogeneous,4,present,NaN,0,horizontal,none,0,5,green,4,2,615.445130110311,784.554869889689,984.554869889689,415.445130110311,984.554869889689,784.554869889689,984.554869889689,415.445130110311,615.445130110311,415.445130110311,615.445130110311,784.554869889689,0,0,0,4,horizontal,vertical,horizontal,horizontal
3b,10,100334,1,21,21,21,M,blocked,constant,homogeneous,4,present,0.839346885681152,1,vertical,vertical,1,5,green,1,2,984.554869889689,784.554869889689,984.554869889689,415.445130110311,984.554869889689,784.554869889689,984.554869889689,415.445130110311,615.445130110311,415.445130110311,615.445130110311,784.554869889689,4,0,0,0,vertical,horizontal,vertical,vertical
3b,10,100334,1,22,22,21,M,blocked,constant,homogeneous,4,present,1.11562991142273,1,horizontal,horizontal,1,8,green,2,1,984.554869889689,415.445130110311,984.554869889689,784.554869889689,984.554869889689,784.554869889689,984.554869889689,415.445130110311,615.445130110311,415.445130110311,615.445130110311,784.554869889689,0,4,0,0,vertical,horizontal,horizontal,vertical
3b,10,100334,1,23,23,21,M,blocked,constant,homogeneous,4,absent,1.24817514419556,1,horizontal,horizontal,1,2,green,1,NaN,984.554869889689,784.554869889689,NaN,NaN,984.554869889689,784.554869889689,984.554869889689,415.445130110311,615.445130110311,415.445130110311,615.445130110311,784.554869889689,4,0,0,0,horizontal,horizontal,vertical,horizontal
3b,10,100334,1,24,24,21,M,blocked,constant,homogeneous,4,absent,0.964503049850464,1,vertical,vertical,1,2,green,3,NaN,615.445130110311,415.445130110311,NaN,NaN,984.554869889689,784.554869889689,984.554869889689,415.445130110311,615.445130110311,415.445130110311,615.445130110311,784.554869889689,0,0,4,0,horizontal,vertical,vertical,vertical
3b,10,100334,1,25,25,21,M,blocked,constant,homogeneous,4,present,1.24080514907837,0,vertical,horizontal,1,2,green,4,1,615.445130110311,784.554869889689,984.554869889689,784.554869889689,984.554869889689,784.554869889689,984.554869889689,415.445130110311,615.445130110311,415.445130110311,615.445130110311,784.554869889689,0,0,0,4,horizontal,vertical,vertical,vertical
3b,10,100334,1,26,26,21,M,blocked,constant,homogeneous,4,absent,0.828898191452026,1,vertical,vertical,1,2,green,3,NaN,615.445130110311,415.445130110311,NaN,NaN,984.554869889689,784.554869889689,984.554869889689,415.445130110311,615.445130110311,415.445130110311,615.445130110311,784.554869889689,0,0,4,0,horizontal,vertical,vertical,vertical
3b,10,100334,1,27,27,21,M,blocked,constant,homogeneous,4,absent,0.921453952789307,1,horizontal,horizontal,1,3,green,2,NaN,984.554869889689,415.445130110311,NaN,NaN,984.554869889689,784.554869889689,984.554869889689,415.445130110311,615.445130110311,415.445130110311,615.445130110311,784.554869889689,0,4,0,0,horizontal,horizontal,horizontal,vertical
3b,10,100334,1,28,28,21,M,blocked,constant,homogeneous,4,present,1.45375990867615,1,horizontal,horizontal,1,2,green,1,4,984.554869889689,784.554869889689,615.445130110311,784.554869889689,984.554869889689,784.554869889689,984.554869889689,415.445130110311,615.445130110311,415.445130110311,615.445130110311,784.554869889689,4,0,0,0,horizontal,horizontal,vertical,horizontal
3b,10,100334,1,29,29,21,M,blocked,constant,homogeneous,4,present,0.818147897720337,1,horizontal,horizontal,1,2,green,2,3,984.554869889689,415.445130110311,615.445130110311,415.445130110311,984.554869889689,784.554869889689,984.554869889689,415.445130110311,615.445130110311,415.445130110311,615.445130110311,784.554869889689,0,4,0,0,vertical,horizontal,vertical,vertical
3b,10,100334,1,30,30,21,M,blocked,constant,homogeneous,4,present,0.838427066802979,1,horizontal,horizontal,1,8,green,1,2,984.554869889689,784.554869889689,984.554869889689,415.445130110311,984.554869889689,784.554869889689,984.554869889689,415.445130110311,615.445130110311,415.445130110311,615.445130110311,784.554869889689,4,0,0,0,horizontal,vertical,vertical,horizontal
3b,10,100334,1,31,31,21,M,blocked,constant,homogeneous,4,present,1.77106904983521,1,vertical,vertical,1,2,green,2,4,984.554869889689,415.445130110311,615.445130110311,784.554869889689,984.554869889689,784.554869889689,984.554869889689,415.445130110311,615.445130110311,415.445130110311,615.445130110311,784.554869889689,0,4,0,0,horizontal,vertical,vertical,horizontal
3b,10,100334,1,32,32,21,M,blocked,constant,homogeneous,4,present,0.919556856155396,1,vertical,vertical,1,5,green,3,2,615.445130110311,415.445130110311,984.554869889689,415.445130110311,984.554869889689,784.554869889689,984.554869889689,415.445130110311,615.445130110311,415.445130110311,615.445130110311,784.554869889689,0,0,4,0,vertical,vertical,vertical,horizontal
3b,10,100334,1,33,33,21,M,blocked,constant,homogeneous,4,absent,0.867913961410522,1,vertical,vertical,1,5,green,1,NaN,984.554869889689,784.554869889689,NaN,NaN,984.554869889689,784.554869889689,984.554869889689,415.445130110311,615.445130110311,415.445130110311,615.445130110311,784.554869889689,4,0,0,0,vertical,vertical,vertical,vertical
3b,10,100334,1,34,34,21,M,blocked,constant,homogeneous,4,present,0.632354974746704,1,vertical,vertical,1,8,green,1,4,984.554869889689,784.554869889689,615.445130110311,784.554869889689,984.554869889689,784.554869889689,984.554869889689,415.445130110311,615.445130110311,415.445130110311,615.445130110311,784.554869889689,4,0,0,0,vertical,horizontal,vertical,horizontal
3b,10,100334,1,35,35,21,M,blocked,constant,homogeneous,4,absent,NaN,0,horizontal,none,0,5,green,4,NaN,615.445130110311,784.554869889689,NaN,NaN,984.554869889689,784.554869889689,984.554869889689,415.445130110311,615.445130110311,415.445130110311,615.445130110311,784.554869889689,0,0,0,4,horizontal,horizontal,horizontal,horizontal
3b,10,100334,1,36,36,21,M,blocked,constant,homogeneous,4,present,1.32878398895264,1,vertical,vertical,1,3,green,2,3,984.554869889689,415.445130110311,615.445130110311,415.445130110311,984.554869889689,784.554869889689,984.554869889689,415.445130110311,615.445130110311,415.445130110311,615.445130110311,784.554869889689,0,4,0,0,horizontal,vertical,horizontal,vertical
3b,10,100334,1,37,37,21,M,blocked,constant,homogeneous,4,absent,1.39704704284668,1,vertical,vertical,1,2,green,4,NaN,615.445130110311,784.554869889689,NaN,NaN,984.554869889689,784.554869889689,984.554869889689,415.445130110311,615.445130110311,415.445130110311,615.445130110311,784.554869889689,0,0,0,4,horizontal,horizontal,horizontal,vertical
3b,10,100334,1,38,38,21,M,blocked,constant,homogeneous,4,present,1.78541803359985,0,horizontal,vertical,1,2,green,4,3,615.445130110311,784.554869889689,615.445130110311,415.445130110311,984.554869889689,784.554869889689,984.554869889689,415.445130110311,615.445130110311,415.445130110311,615.445130110311,784.554869889689,0,0,0,4,vertical,vertical,horizontal,horizontal
3b,10,100334,1,39,39,21,M,blocked,constant,homogeneous,4,present,NaN,0,horizontal,none,0,3,green,2,4,984.554869889689,415.445130110311,615.445130110311,784.554869889689,984.554869889689,784.554869889689,984.554869889689,415.445130110311,615.445130110311,415.445130110311,615.445130110311,784.554869889689,0,4,0,0,vertical,horizontal,horizontal,horizontal
3b,10,100334,1,40,40,21,M,blocked,constant,homogeneous,4,present,1.9222240447998,1,horizontal,horizontal,1,3,green,2,4,984.554869889689,415.445130110311,615.445130110311,784.554869889689,984.554869889689,784.554869889689,984.554869889689,415.445130110311,615.445130110311,415.445130110311,615.445130110311,784.554869889689,0,4,0,0,vertical,horizontal,vertical,vertical
3b,10,100334,1,41,41,21,M,blocked,constant,homogeneous,4,present,0.742829084396362,1,vertical,vertical,1,2,green,4,1,615.445130110311,784.554869889689,984.554869889689,784.554869889689,984.554869889689,784.554869889689,984.554869889689,415.445130110311,615.445130110311,415.445130110311,615.445130110311,784.554869889689,0,0,0,4,vertical,horizontal,vertical,vertical
3b,10,100334,1,42,42,21,M,blocked,constant,homogeneous,4,present,1.90719509124756,1,horizontal,horizontal,1,5,green,1,4,984.554869889689,784.554869889689,615.445130110311,784.554869889689,984.554869889689,784.554869889689,984.554869889689,415.445130110311,615.445130110311,415.445130110311,615.445130110311,784.554869889689,4,0,0,0,horizontal,vertical,vertical,horizontal
3b,10,100334,1,43,43,21,M,blocked,constant,homogeneous,4,present,0.647739887237549,1,horizontal,horizontal,1,2,green,1,3,984.554869889689,784.554869889689,615.445130110311,415.445130110311,984.554869889689,784.554869889689,984.554869889689,415.445130110311,615.445130110311,415.445130110311,615.445130110311,784.554869889689,4,0,0,0,horizontal,horizontal,vertical,vertical
3b,10,100334,1,44,44,21,M,blocked,constant,homogeneous,4,present,0.779796838760376,1,vertical,vertical,1,2,green,4,1,615.445130110311,784.554869889689,984.554869889689,784.554869889689,984.554869889689,784.554869889689,984.554869889689,415.445130110311,615.445130110311,415.445130110311,615.445130110311,784.554869889689,0,0,0,4,vertical,vertical,vertical,vertical
3b,10,100334,1,45,45,21,M,blocked,constant,homogeneous,4,present,0.768244028091431,1,vertical,vertical,1,2,green,4,2,615.445130110311,784.554869889689,984.554869889689,415.445130110311,984.554869889689,784.554869889689,984.554869889689,415.445130110311,615.445130110311,415.445130110311,615.445130110311,784.554869889689,0,0,0,4,horizontal,horizontal,vertical,vertical
3b,10,100334,1,46,46,21,M,blocked,constant,homogeneous,4,present,0.868613004684448,1,horizontal,horizontal,1,2,green,3,4,615.445130110311,415.445130110311,615.445130110311,784.554869889689,984.554869889689,784.554869889689,984.554869889689,415.445130110311,615.445130110311,415.445130110311,615.445130110311,784.554869889689,0,0,4,0,vertical,vertical,horizontal,vertical
3b,10,100334,1,47,47,21,M,blocked,constant,homogeneous,4,absent,0.768671035766602,1,vertical,vertical,1,3,green,3,NaN,615.445130110311,415.445130110311,NaN,NaN,984.554869889689,784.554869889689,984.554869889689,415.445130110311,615.445130110311,415.445130110311,615.445130110311,784.554869889689,0,0,4,0,vertical,horizontal,vertical,horizontal
3b,10,100334,1,48,48,21,M,blocked,constant,homogeneous,4,absent,0.749132871627808,1,vertical,vertical,1,3,green,3,NaN,615.445130110311,415.445130110311,NaN,NaN,984.554869889689,784.554869889689,984.554869889689,415.445130110311,615.445130110311,415.445130110311,615.445130110311,784.554869889689,0,0,4,0,vertical,vertical,vertical,horizontal
3b,10,100334,2,1,49,21,M,blocked,constant,homogeneous,4,present,1.25340914726257,1,vertical,vertical,1,8,green,4,1,615.445130110311,784.554869889689,984.554869889689,784.554869889689,984.554869889689,784.554869889689,984.554869889689,415.445130110311,615.445130110311,415.445130110311,615.445130110311,784.554869889689,0,0,0,4,horizontal,horizontal,horizontal,vertical
3b,10,100334,2,2,50,21,M,blocked,constant,homogeneous,4,absent,0.897888898849487,1,vertical,vertical,1,5,green,3,NaN,615.445130110311,415.445130110311,NaN,NaN,984.554869889689,784.554869889689,984.554869889689,415.445130110311,615.445130110311,415.445130110311,615.445130110311,784.554869889689,0,0,4,0,horizontal,vertical,vertical,vertical
3b,10,100334,2,3,51,21,M,blocked,constant,homogeneous,4,absent,0.710523128509521,1,horizontal,horizontal,1,8,green,2,NaN,984.554869889689,415.445130110311,NaN,NaN,984.554869889689,784.554869889689,984.554869889689,415.445130110311,615.445130110311,415.445130110311,615.445130110311,784.554869889689,0,4,0,0,vertical,horizontal,vertical,horizontal
3b,10,100334,2,4,52,21,M,blocked,constant,homogeneous,4,present,1.13875317573547,1,vertical,vertical,1,5,green,4,1,615.445130110311,784.554869889689,984.554869889689,784.554869889689,984.554869889689,784.554869889689,984.554869889689,415.445130110311,615.445130110311,415.445130110311,615.445130110311,784.554869889689,0,0,0,4,vertical,vertical,vertical,vertical
3b,10,100334,2,5,53,21,M,blocked,constant,homogeneous,4,present,0.839267015457153,1,horizontal,horizontal,1,2,green,1,3,984.554869889689,784.554869889689,615.445130110311,415.445130110311,984.554869889689,784.554869889689,984.554869889689,415.445130110311,615.445130110311,415.445130110311,615.445130110311,784.554869889689,4,0,0,0,horizontal,horizontal,vertical,vertical
3b,10,100334,2,6,54,21,M,blocked,constant,homogeneous,4,absent,0.643585920333862,1,vertical,vertical,1,3,green,1,NaN,984.554869889689,784.554869889689,NaN,NaN,984.554869889689,784.554869889689,984.554869889689,415.445130110311,615.445130110311,415.445130110311,615.445130110311,784.554869889689,4,0,0,0,vertical,vertical,horizontal,horizontal
3b,10,100334,2,7,55,21,M,blocked,constant,homogeneous,4,present,0.704018115997314,1,horizontal,horizontal,1,5,green,1,2,984.554869889689,784.554869889689,984.554869889689,415.445130110311,984.554869889689,784.554869889689,984.554869889689,415.445130110311,615.445130110311,415.445130110311,615.445130110311,784.554869889689,4,0,0,0,horizontal,vertical,horizontal,vertical
3b,10,100334,2,8,56,21,M,blocked,constant,homogeneous,4,absent,0.828390836715698,1,vertical,vertical,1,3,green,1,NaN,984.554869889689,784.554869889689,NaN,NaN,984.554869889689,784.554869889689,984.554869889689,415.445130110311,615.445130110311,415.445130110311,615.445130110311,784.554869889689,4,0,0,0,vertical,horizontal,vertical,horizontal
3b,10,100334,2,9,57,21,M,blocked,constant,homogeneous,4,present,0.576579093933105,1,vertical,vertical,1,2,green,1,4,984.554869889689,784.554869889689,615.445130110311,784.554869889689,984.554869889689,784.554869889689,984.554869889689,415.445130110311,615.445130110311,415.445130110311,615.445130110311,784.554869889689,4,0,0,0,vertical,vertical,horizontal,horizontal
3b,10,100334,2,10,58,21,M,blocked,constant,homogeneous,4,present,0.948768138885498,1,vertical,vertical,1,2,green,4,1,615.445130110311,784.554869889689,984.554869889689,784.554869889689,984.554869889689,784.554869889689,984.554869889689,415.445130110311,615.445130110311,415.445130110311,615.445130110311,784.554869889689,0,0,0,4,horizontal,horizontal,horizontal,vertical
3b,10,100334,2,11,59,21,M,blocked,constant,homogeneous,4,present,0.681448936462402,1,horizontal,horizontal,1,2,green,2,1,984.554869889689,415.445130110311,984.554869889689,784.554869889689,984.554869889689,784.554869889689,984.554869889689,415.445130110311,615.445130110311,415.445130110311,615.445130110311,784.554869889689,0,4,0,0,vertical,horizontal,vertical,horizontal
3b,10,100334,2,12,60,21,M,blocked,constant,homogeneous,4,absent,0.957880020141602,1,vertical,vertical,1,2,green,1,NaN,984.554869889689,784.554869889689,NaN,NaN,984.554869889689,784.554869889689,984.554869889689,415.445130110311,615.445130110311,415.445130110311,615.445130110311,784.554869889689,4,0,0,0,vertical,horizontal,horizontal,horizontal
3b,10,100334,2,13,61,21,M,blocked,constant,homogeneous,4,present,1.77804684638977,1,horizontal,horizontal,1,2,green,3,4,615.445130110311,415.445130110311,615.445130110311,784.554869889689,984.554869889689,784.554869889689,984.554869889689,415.445130110311,615.445130110311,415.445130110311,615.445130110311,784.554869889689,0,0,4,0,vertical,horizontal,horizontal,horizontal
3b,10,100334,2,14,62,21,M,blocked,constant,homogeneous,4,present,1.8943338394165,1,horizontal,horizontal,1,2,green,4,1,615.445130110311,784.554869889689,984.554869889689,784.554869889689,984.554869889689,784.554869889689,984.554869889689,415.445130110311,615.445130110311,415.445130110311,615.445130110311,784.554869889689,0,0,0,4,horizontal,horizontal,vertical,horizontal
3b,10,100334,2,15,63,21,M,blocked,constant,homogeneous,4,absent,1.17885589599609,1,vertical,vertical,1,8,green,1,NaN,984.554869889689,784.554869889689,NaN,NaN,984.554869889689,784.554869889689,984.554869889689,415.445130110311,615.445130110311,415.445130110311,615.445130110311,784.554869889689,4,0,0,0,vertical,vertical,vertical,horizontal
3b,10,100334,2,16,64,21,M,blocked,constant,homogeneous,4,present,1.59109091758728,1,horizontal,horizontal,1,5,green,2,4,984.554869889689,415.445130110311,615.445130110311,784.554869889689,984.554869889689,784.554869889689,984.554869889689,415.445130110311,615.445130110311,415.445130110311,615.445130110311,784.554869889689,0,4,0,0,horizontal,horizontal,vertical,vertical
3b,10,100334,2,17,65,21,M,blocked,constant,homogeneous,4,present,0.867510795593262,1,horizontal,horizontal,1,5,green,2,3,984.554869889689,415.445130110311,615.445130110311,415.445130110311,984.554869889689,784.554869889689,984.554869889689,415.445130110311,615.445130110311,415.445130110311,615.445130110311,784.554869889689,0,4,0,0,vertical,horizontal,horizontal,vertical
3b,10,100334,2,18,66,21,M,blocked,constant,homogeneous,4,present,0.927924871444702,1,vertical,vertical,1,3,green,4,3,615.445130110311,784.554869889689,615.445130110311,415.445130110311,984.554869889689,784.554869889689,984.554869889689,415.445130110311,615.445130110311,415.445130110311,615.445130110311,784.554869889689,0,0,0,4,vertical,horizontal,horizontal,vertical
3b,10,100334,2,19,67,21,M,blocked,constant,homogeneous,4,present,0.828301906585693,1,horizontal,horizontal,1,3,green,2,1,984.554869889689,415.445130110311,984.554869889689,784.554869889689,984.554869889689,784.554869889689,984.554869889689,415.445130110311,615.445130110311,415.445130110311,615.445130110311,784.554869889689,0,4,0,0,horizontal,horizontal,horizontal,horizontal
3b,10,100334,2,20,68,21,M,blocked,constant,homogeneous,4,present,1.02480792999268,1,vertical,vertical,1,2,green,4,3,615.445130110311,784.554869889689,615.445130110311,415.445130110311,984.554869889689,784.554869889689,984.554869889689,415.445130110311,615.445130110311,415.445130110311,615.445130110311,784.554869889689,0,0,0,4,vertical,vertical,horizontal,vertical
3b,10,100334,2,21,69,21,M,blocked,constant,homogeneous,4,present,NaN,0,horizontal,none,0,5,green,3,1,615.445130110311,415.445130110311,984.554869889689,784.554869889689,984.554869889689,784.554869889689,984.554869889689,415.445130110311,615.445130110311,415.445130110311,615.445130110311,784.554869889689,0,0,4,0,horizontal,horizontal,horizontal,vertical
3b,10,100334,2,22,70,21,M,blocked,constant,homogeneous,4,absent,0.697558879852295,1,horizontal,horizontal,1,5,green,3,NaN,615.445130110311,415.445130110311,NaN,NaN,984.554869889689,784.554869889689,984.554869889689,415.445130110311,615.445130110311,415.445130110311,615.445130110311,784.554869889689,0,0,4,0,vertical,vertical,horizontal,vertical
3b,10,100334,2,23,71,21,M,blocked,constant,homogeneous,4,present,1.10187983512878,1,horizontal,horizontal,1,2,green,4,2,615.445130110311,784.554869889689,984.554869889689,415.445130110311,984.554869889689,784.554869889689,984.554869889689,415.445130110311,615.445130110311,415.445130110311,615.445130110311,784.554869889689,0,0,0,4,vertical,vertical,vertical,horizontal
3b,10,100334,2,24,72,21,M,blocked,constant,homogeneous,4,present,0.89833402633667,1,horizontal,horizontal,1,8,green,1,2,984.554869889689,784.554869889689,984.554869889689,415.445130110311,984.554869889689,784.554869889689,984.554869889689,415.445130110311,615.445130110311,415.445130110311,615.445130110311,784.554869889689,4,0,0,0,horizontal,vertical,vertical,horizontal
3b,10,100334,2,25,73,21,M,blocked,constant,homogeneous,4,present,0.654775142669678,1,vertical,vertical,1,3,green,2,1,984.554869889689,415.445130110311,984.554869889689,784.554869889689,984.554869889689,784.554869889689,984.554869889689,415.445130110311,615.445130110311,415.445130110311,615.445130110311,784.554869889689,0,4,0,0,vertical,vertical,horizontal,vertical
3b,10,100334,2,26,74,21,M,blocked,constant,homogeneous,4,absent,0.875169038772583,1,horizontal,horizontal,1,3,green,3,NaN,615.445130110311,415.445130110311,NaN,NaN,984.554869889689,784.554869889689,984.554869889689,415.445130110311,615.445130110311,415.445130110311,615.445130110311,784.554869889689,0,0,4,0,vertical,horizontal,horizontal,horizontal
3b,10,100334,2,27,75,21,M,blocked,constant,homogeneous,4,absent,0.655431985855103,1,horizontal,horizontal,1,2,green,2,NaN,984.554869889689,415.445130110311,NaN,NaN,984.554869889689,784.554869889689,984.554869889689,415.445130110311,615.445130110311,415.445130110311,615.445130110311,784.554869889689,0,4,0,0,horizontal,horizontal,vertical,vertical
3b,10,100334,2,28,76,21,M,blocked,constant,homogeneous,4,present,0.851762056350708,1,vertical,vertical,1,2,green,3,1,615.445130110311,415.445130110311,984.554869889689,784.554869889689,984.554869889689,784.554869889689,984.554869889689,415.445130110311,615.445130110311,415.445130110311,615.445130110311,784.554869889689,0,0,4,0,vertical,horizontal,vertical,vertical
3b,10,100334,2,29,77,21,M,blocked,constant,homogeneous,4,absent,1.20022892951965,1,horizontal,horizontal,1,5,green,4,NaN,615.445130110311,784.554869889689,NaN,NaN,984.554869889689,784.554869889689,984.554869889689,415.445130110311,615.445130110311,415.445130110311,615.445130110311,784.554869889689,0,0,0,4,vertical,vertical,vertical,horizontal
3b,10,100334,2,30,78,21,M,blocked,constant,homogeneous,4,absent,1.00445580482483,1,vertical,vertical,1,5,green,4,NaN,615.445130110311,784.554869889689,NaN,NaN,984.554869889689,784.554869889689,984.554869889689,415.445130110311,615.445130110311,415.445130110311,615.445130110311,784.554869889689,0,0,0,4,vertical,horizontal,vertical,vertical
3b,10,100334,2,31,79,21,M,blocked,constant,homogeneous,4,absent,0.832877159118652,1,horizontal,horizontal,1,2,green,3,NaN,615.445130110311,415.445130110311,NaN,NaN,984.554869889689,784.554869889689,984.554869889689,415.445130110311,615.445130110311,415.445130110311,615.445130110311,784.554869889689,0,0,4,0,vertical,horizontal,horizontal,vertical
3b,10,100334,2,32,80,21,M,blocked,constant,homogeneous,4,absent,0.997215032577515,1,horizontal,horizontal,1,2,green,4,NaN,615.445130110311,784.554869889689,NaN,NaN,984.554869889689,784.554869889689,984.554869889689,415.445130110311,615.445130110311,415.445130110311,615.445130110311,784.554869889689,0,0,0,4,horizontal,vertical,horizontal,horizontal
3b,10,100334,2,33,81,21,M,blocked,constant,homogeneous,4,absent,0.745693922042847,1,vertical,vertical,1,2,green,1,NaN,984.554869889689,784.554869889689,NaN,NaN,984.554869889689,784.554869889689,984.554869889689,415.445130110311,615.445130110311,415.445130110311,615.445130110311,784.554869889689,4,0,0,0,vertical,vertical,vertical,horizontal
3b,10,100334,2,34,82,21,M,blocked,constant,homogeneous,4,present,1.91794395446777,1,horizontal,horizontal,1,8,green,2,4,984.554869889689,415.445130110311,615.445130110311,784.554869889689,984.554869889689,784.554869889689,984.554869889689,415.445130110311,615.445130110311,415.445130110311,615.445130110311,784.554869889689,0,4,0,0,vertical,horizontal,horizontal,horizontal
3b,10,100334,2,35,83,21,M,blocked,constant,homogeneous,4,present,0.954311847686768,1,vertical,vertical,1,3,green,3,2,615.445130110311,415.445130110311,984.554869889689,415.445130110311,984.554869889689,784.554869889689,984.554869889689,415.445130110311,615.445130110311,415.445130110311,615.445130110311,784.554869889689,0,0,4,0,horizontal,vertical,vertical,horizontal
3b,10,100334,2,36,84,21,M,blocked,constant,homogeneous,4,present,0.742682933807373,1,horizontal,horizontal,1,3,green,3,4,615.445130110311,415.445130110311,615.445130110311,784.554869889689,984.554869889689,784.554869889689,984.554869889689,415.445130110311,615.445130110311,415.445130110311,615.445130110311,784.554869889689,0,0,4,0,vertical,horizontal,horizontal,horizontal
3b,10,100334,2,37,85,21,M,blocked,constant,homogeneous,4,present,1.63522291183472,1,vertical,vertical,1,3,green,4,2,615.445130110311,784.554869889689,984.554869889689,415.445130110311,984.554869889689,784.554869889689,984.554869889689,415.445130110311,615.445130110311,415.445130110311,615.445130110311,784.554869889689,0,0,0,4,vertical,horizontal,vertical,vertical
3b,10,100334,2,38,86,21,M,blocked,constant,homogeneous,4,present,0.839364051818848,1,vertical,vertical,1,2,green,2,3,984.554869889689,415.445130110311,615.445130110311,415.445130110311,984.554869889689,784.554869889689,984.554869889689,415.445130110311,615.445130110311,415.445130110311,615.445130110311,784.554869889689,0,4,0,0,horizontal,vertical,vertical,vertical
3b,10,100334,2,39,87,21,M,blocked,constant,homogeneous,4,present,1.31579399108887,1,horizontal,horizontal,1,3,green,2,3,984.554869889689,415.445130110311,615.445130110311,415.445130110311,984.554869889689,784.554869889689,984.554869889689,415.445130110311,615.445130110311,415.445130110311,615.445130110311,784.554869889689,0,4,0,0,vertical,horizontal,horizontal,vertical
3b,10,100334,2,40,88,21,M,blocked,constant,homogeneous,4,present,0.78428316116333,1,vertical,vertical,1,5,green,1,4,984.554869889689,784.554869889689,615.445130110311,784.554869889689,984.554869889689,784.554869889689,984.554869889689,415.445130110311,615.445130110311,415.445130110311,615.445130110311,784.554869889689,4,0,0,0,vertical,vertical,vertical,vertical
3b,10,100334,2,41,89,21,M,blocked,constant,homogeneous,4,present,1.20468401908875,1,vertical,vertical,1,8,green,3,2,615.445130110311,415.445130110311,984.554869889689,415.445130110311,984.554869889689,784.554869889689,984.554869889689,415.445130110311,615.445130110311,415.445130110311,615.445130110311,784.554869889689,0,0,4,0,horizontal,horizontal,vertical,vertical
3b,10,100334,2,42,90,21,M,blocked,constant,homogeneous,4,present,0.777109861373901,1,vertical,vertical,1,2,green,3,4,615.445130110311,415.445130110311,615.445130110311,784.554869889689,984.554869889689,784.554869889689,984.554869889689,415.445130110311,615.445130110311,415.445130110311,615.445130110311,784.554869889689,0,0,4,0,horizontal,horizontal,vertical,horizontal
3b,10,100334,2,43,91,21,M,blocked,constant,homogeneous,4,absent,1.02953100204468,1,horizontal,horizontal,1,3,green,2,NaN,984.554869889689,415.445130110311,NaN,NaN,984.554869889689,784.554869889689,984.554869889689,415.445130110311,615.445130110311,415.445130110311,615.445130110311,784.554869889689,0,4,0,0,horizontal,horizontal,horizontal,vertical
3b,10,100334,2,44,92,21,M,blocked,constant,homogeneous,4,present,0.929948091506958,1,vertical,vertical,1,5,green,3,4,615.445130110311,415.445130110311,615.445130110311,784.554869889689,984.554869889689,784.554869889689,984.554869889689,415.445130110311,615.445130110311,415.445130110311,615.445130110311,784.554869889689,0,0,4,0,vertical,horizontal,vertical,horizontal
3b,10,100334,2,45,93,21,M,blocked,constant,homogeneous,4,absent,0.838051080703735,1,vertical,vertical,1,2,green,1,NaN,984.554869889689,784.554869889689,NaN,NaN,984.554869889689,784.554869889689,984.554869889689,415.445130110311,615.445130110311,415.445130110311,615.445130110311,784.554869889689,4,0,0,0,vertical,vertical,horizontal,vertical
3b,10,100334,2,46,94,21,M,blocked,constant,homogeneous,4,present,1.02661609649658,1,horizontal,horizontal,1,3,green,3,2,615.445130110311,415.445130110311,984.554869889689,415.445130110311,984.554869889689,784.554869889689,984.554869889689,415.445130110311,615.445130110311,415.445130110311,615.445130110311,784.554869889689,0,0,4,0,horizontal,horizontal,horizontal,vertical
3b,10,100334,2,47,95,21,M,blocked,constant,homogeneous,4,present,0.870954036712646,0,horizontal,vertical,1,2,green,3,2,615.445130110311,415.445130110311,984.554869889689,415.445130110311,984.554869889689,784.554869889689,984.554869889689,415.445130110311,615.445130110311,415.445130110311,615.445130110311,784.554869889689,0,0,4,0,vertical,vertical,horizontal,horizontal
3b,10,100334,2,48,96,21,M,blocked,constant,homogeneous,4,present,1.39516997337341,1,vertical,vertical,1,5,green,2,4,984.554869889689,415.445130110311,615.445130110311,784.554869889689,984.554869889689,784.554869889689,984.554869889689,415.445130110311,615.445130110311,415.445130110311,615.445130110311,784.554869889689,0,4,0,0,vertical,vertical,vertical,vertical
3b,10,100334,3,1,97,21,M,blocked,constant,homogeneous,4,present,1.90965890884399,1,vertical,vertical,1,8,green,2,1,984.554869889689,415.445130110311,984.554869889689,784.554869889689,984.554869889689,784.554869889689,984.554869889689,415.445130110311,615.445130110311,415.445130110311,615.445130110311,784.554869889689,0,4,0,0,horizontal,vertical,horizontal,vertical
3b,10,100334,3,2,98,21,M,blocked,constant,homogeneous,4,present,1.62590789794922,1,vertical,vertical,1,2,green,1,3,984.554869889689,784.554869889689,615.445130110311,415.445130110311,984.554869889689,784.554869889689,984.554869889689,415.445130110311,615.445130110311,415.445130110311,615.445130110311,784.554869889689,4,0,0,0,vertical,horizontal,vertical,horizontal
3b,10,100334,3,3,99,21,M,blocked,constant,homogeneous,4,present,1.07831215858459,1,vertical,vertical,1,3,green,2,1,984.554869889689,415.445130110311,984.554869889689,784.554869889689,984.554869889689,784.554869889689,984.554869889689,415.445130110311,615.445130110311,415.445130110311,615.445130110311,784.554869889689,0,4,0,0,vertical,vertical,vertical,horizontal
3b,10,100334,3,4,100,21,M,blocked,constant,homogeneous,4,absent,0.89867901802063,1,vertical,vertical,1,3,green,2,NaN,984.554869889689,415.445130110311,NaN,NaN,984.554869889689,784.554869889689,984.554869889689,415.445130110311,615.445130110311,415.445130110311,615.445130110311,784.554869889689,0,4,0,0,vertical,vertical,vertical,horizontal
3b,10,100334,3,5,101,21,M,blocked,constant,homogeneous,4,present,1.73522996902466,1,horizontal,horizontal,1,2,green,4,2,615.445130110311,784.554869889689,984.554869889689,415.445130110311,984.554869889689,784.554869889689,984.554869889689,415.445130110311,615.445130110311,415.445130110311,615.445130110311,784.554869889689,0,0,0,4,horizontal,vertical,horizontal,horizontal
3b,10,100334,3,6,102,21,M,blocked,constant,homogeneous,4,absent,1.22743916511536,1,vertical,vertical,1,2,green,4,NaN,615.445130110311,784.554869889689,NaN,NaN,984.554869889689,784.554869889689,984.554869889689,415.445130110311,615.445130110311,415.445130110311,615.445130110311,784.554869889689,0,0,0,4,horizontal,horizontal,vertical,vertical
3b,10,100334,3,7,103,21,M,blocked,constant,homogeneous,4,present,1.17591786384583,1,vertical,vertical,1,5,green,3,1,615.445130110311,415.445130110311,984.554869889689,784.554869889689,984.554869889689,784.554869889689,984.554869889689,415.445130110311,615.445130110311,415.445130110311,615.445130110311,784.554869889689,0,0,4,0,vertical,vertical,vertical,horizontal
3b,10,100334,3,8,104,21,M,blocked,constant,homogeneous,4,present,0.980282068252563,1,horizontal,horizontal,1,5,green,3,4,615.445130110311,415.445130110311,615.445130110311,784.554869889689,984.554869889689,784.554869889689,984.554869889689,415.445130110311,615.445130110311,415.445130110311,615.445130110311,784.554869889689,0,0,4,0,vertical,horizontal,horizontal,horizontal
3b,10,100334,3,9,105,21,M,blocked,constant,homogeneous,4,present,0.752496957778931,1,vertical,vertical,1,5,green,1,4,984.554869889689,784.554869889689,615.445130110311,784.554869889689,984.554869889689,784.554869889689,984.554869889689,415.445130110311,615.445130110311,415.445130110311,615.445130110311,784.554869889689,4,0,0,0,vertical,horizontal,horizontal,vertical
3b,10,100334,3,10,106,21,M,blocked,constant,homogeneous,4,absent,0.709000825881958,1,vertical,vertical,1,2,green,2,NaN,984.554869889689,415.445130110311,NaN,NaN,984.554869889689,784.554869889689,984.554869889689,415.445130110311,615.445130110311,415.445130110311,615.445130110311,784.554869889689,0,4,0,0,horizontal,vertical,vertical,horizontal
3b,10,100334,3,11,107,21,M,blocked,constant,homogeneous,4,present,0.577345848083496,1,vertical,vertical,1,3,green,1,3,984.554869889689,784.554869889689,615.445130110311,415.445130110311,984.554869889689,784.554869889689,984.554869889689,415.445130110311,615.445130110311,415.445130110311,615.445130110311,784.554869889689,4,0,0,0,vertical,horizontal,horizontal,vertical
3b,10,100334,3,12,108,21,M,blocked,constant,homogeneous,4,absent,0.781774044036865,1,vertical,vertical,1,3,green,3,NaN,615.445130110311,415.445130110311,NaN,NaN,984.554869889689,784.554869889689,984.554869889689,415.445130110311,615.445130110311,415.445130110311,615.445130110311,784.554869889689,0,0,4,0,horizontal,vertical,vertical,vertical
3b,10,100334,3,13,109,21,M,blocked,constant,homogeneous,4,present,1.01017689704895,1,horizontal,horizontal,1,2,green,4,1,615.445130110311,784.554869889689,984.554869889689,784.554869889689,984.554869889689,784.554869889689,984.554869889689,415.445130110311,615.445130110311,415.445130110311,615.445130110311,784.554869889689,0,0,0,4,horizontal,vertical,horizontal,horizontal
3b,10,100334,3,14,110,21,M,blocked,constant,homogeneous,4,present,1.19048595428467,1,horizontal,horizontal,1,2,green,3,2,615.445130110311,415.445130110311,984.554869889689,415.445130110311,984.554869889689,784.554869889689,984.554869889689,415.445130110311,615.445130110311,415.445130110311,615.445130110311,784.554869889689,0,0,4,0,horizontal,vertical,horizontal,vertical
3b,10,100334,3,15,111,21,M,blocked,constant,homogeneous,4,present,0.778646945953369,1,horizontal,horizontal,1,8,green,2,1,984.554869889689,415.445130110311,984.554869889689,784.554869889689,984.554869889689,784.554869889689,984.554869889689,415.445130110311,615.445130110311,415.445130110311,615.445130110311,784.554869889689,0,4,0,0,vertical,horizontal,vertical,horizontal
3b,10,100334,3,16,112,21,M,blocked,constant,homogeneous,4,present,1.02335405349731,1,vertical,vertical,1,2,green,3,2,615.445130110311,415.445130110311,984.554869889689,415.445130110311,984.554869889689,784.554869889689,984.554869889689,415.445130110311,615.445130110311,415.445130110311,615.445130110311,784.554869889689,0,0,4,0,horizontal,vertical,vertical,vertical
3b,10,100334,3,17,113,21,M,blocked,constant,homogeneous,4,present,1.28345799446106,1,horizontal,horizontal,1,2,green,3,4,615.445130110311,415.445130110311,615.445130110311,784.554869889689,984.554869889689,784.554869889689,984.554869889689,415.445130110311,615.445130110311,415.445130110311,615.445130110311,784.554869889689,0,0,4,0,horizontal,horizontal,horizontal,vertical
3b,10,100334,3,18,114,21,M,blocked,constant,homogeneous,4,present,1.02395510673523,1,horizontal,horizontal,1,3,green,3,1,615.445130110311,415.445130110311,984.554869889689,784.554869889689,984.554869889689,784.554869889689,984.554869889689,415.445130110311,615.445130110311,415.445130110311,615.445130110311,784.554869889689,0,0,4,0,horizontal,vertical,horizontal,horizontal
3b,10,100334,3,19,115,21,M,blocked,constant,homogeneous,4,present,0.836318016052246,1,vertical,vertical,1,2,green,3,1,615.445130110311,415.445130110311,984.554869889689,784.554869889689,984.554869889689,784.554869889689,984.554869889689,415.445130110311,615.445130110311,415.445130110311,615.445130110311,784.554869889689,0,0,4,0,vertical,vertical,vertical,vertical
3b,10,100334,3,20,116,21,M,blocked,constant,homogeneous,4,present,0.720611095428467,1,vertical,vertical,1,3,green,3,4,615.445130110311,415.445130110311,615.445130110311,784.554869889689,984.554869889689,784.554869889689,984.554869889689,415.445130110311,615.445130110311,415.445130110311,615.445130110311,784.554869889689,0,0,4,0,horizontal,vertical,vertical,horizontal
3b,10,100334,3,21,117,21,M,blocked,constant,homogeneous,4,absent,1.08478999137878,1,horizontal,horizontal,1,5,green,1,NaN,984.554869889689,784.554869889689,NaN,NaN,984.554869889689,784.554869889689,984.554869889689,415.445130110311,615.445130110311,415.445130110311,615.445130110311,784.554869889689,4,0,0,0,horizontal,vertical,vertical,vertical
3b,10,100334,3,22,118,21,M,blocked,constant,homogeneous,4,present,0.825392961502075,1,vertical,vertical,1,5,green,4,3,615.445130110311,784.554869889689,615.445130110311,415.445130110311,984.554869889689,784.554869889689,984.554869889689,415.445130110311,615.445130110311,415.445130110311,615.445130110311,784.554869889689,0,0,0,4,horizontal,vertical,horizontal,vertical
3b,10,100334,3,23,119,21,M,blocked,constant,homogeneous,4,absent,1.10174989700317,1,horizontal,horizontal,1,2,green,2,NaN,984.554869889689,415.445130110311,NaN,NaN,984.554869889689,784.554869889689,984.554869889689,415.445130110311,615.445130110311,415.445130110311,615.445130110311,784.554869889689,0,4,0,0,horizontal,horizontal,vertical,vertical
3b,10,100334,3,24,120,21,M,blocked,constant,homogeneous,4,present,0.681978940963745,1,horizontal,horizontal,1,5,green,3,1,615.445130110311,415.445130110311,984.554869889689,784.554869889689,984.554869889689,784.554869889689,984.554869889689,415.445130110311,615.445130110311,415.445130110311,615.445130110311,784.554869889689,0,0,4,0,horizontal,horizontal,horizontal,vertical
3b,10,100334,3,25,121,21,M,blocked,constant,homogeneous,4,present,0.582690000534058,1,horizontal,horizontal,1,5,green,3,1,615.445130110311,415.445130110311,984.554869889689,784.554869889689,984.554869889689,784.554869889689,984.554869889689,415.445130110311,615.445130110311,415.445130110311,615.445130110311,784.554869889689,0,0,4,0,vertical,horizontal,horizontal,vertical
3b,10,100334,3,26,122,21,M,blocked,constant,homogeneous,4,present,0.507320880889893,0,vertical,horizontal,1,8,green,3,1,615.445130110311,415.445130110311,984.554869889689,784.554869889689,984.554869889689,784.554869889689,984.554869889689,415.445130110311,615.445130110311,415.445130110311,615.445130110311,784.554869889689,0,0,4,0,horizontal,horizontal,vertical,vertical
3b,10,100334,3,27,123,21,M,blocked,constant,homogeneous,4,present,1.24749088287354,1,vertical,vertical,1,2,green,3,4,615.445130110311,415.445130110311,615.445130110311,784.554869889689,984.554869889689,784.554869889689,984.554869889689,415.445130110311,615.445130110311,415.445130110311,615.445130110311,784.554869889689,0,0,4,0,horizontal,horizontal,vertical,horizontal
3b,10,100334,3,28,124,21,M,blocked,constant,homogeneous,4,absent,0.708227872848511,1,horizontal,horizontal,1,2,green,1,NaN,984.554869889689,784.554869889689,NaN,NaN,984.554869889689,784.554869889689,984.554869889689,415.445130110311,615.445130110311,415.445130110311,615.445130110311,784.554869889689,4,0,0,0,horizontal,horizontal,horizontal,horizontal
3b,10,100334,3,29,125,21,M,blocked,constant,homogeneous,4,present,0.712074995040894,1,horizontal,horizontal,1,2,green,2,3,984.554869889689,415.445130110311,615.445130110311,415.445130110311,984.554869889689,784.554869889689,984.554869889689,415.445130110311,615.445130110311,415.445130110311,615.445130110311,784.554869889689,0,4,0,0,vertical,horizontal,horizontal,horizontal
3b,10,100334,3,30,126,21,M,blocked,constant,homogeneous,4,absent,0.724318027496338,1,horizontal,horizontal,1,3,green,1,NaN,984.554869889689,784.554869889689,NaN,NaN,984.554869889689,784.554869889689,984.554869889689,415.445130110311,615.445130110311,415.445130110311,615.445130110311,784.554869889689,4,0,0,0,horizontal,horizontal,vertical,vertical
3b,10,100334,3,31,127,21,M,blocked,constant,homogeneous,4,absent,0.848844051361084,1,horizontal,horizontal,1,3,green,3,NaN,615.445130110311,415.445130110311,NaN,NaN,984.554869889689,784.554869889689,984.554869889689,415.445130110311,615.445130110311,415.445130110311,615.445130110311,784.554869889689,0,0,4,0,vertical,vertical,horizontal,vertical
3b,10,100334,3,32,128,21,M,blocked,constant,homogeneous,4,present,0.757201194763184,1,vertical,vertical,1,2,green,3,4,615.445130110311,415.445130110311,615.445130110311,784.554869889689,984.554869889689,784.554869889689,984.554869889689,415.445130110311,615.445130110311,415.445130110311,615.445130110311,784.554869889689,0,0,4,0,vertical,vertical,vertical,vertical
3b,10,100334,3,33,129,21,M,blocked,constant,homogeneous,4,absent,0.817589998245239,1,vertical,vertical,1,5,green,4,NaN,615.445130110311,784.554869889689,NaN,NaN,984.554869889689,784.554869889689,984.554869889689,415.445130110311,615.445130110311,415.445130110311,615.445130110311,784.554869889689,0,0,0,4,vertical,horizontal,vertical,vertical
3b,10,100334,3,34,130,21,M,blocked,constant,homogeneous,4,absent,0.758235931396484,1,vertical,vertical,1,2,green,2,NaN,984.554869889689,415.445130110311,NaN,NaN,984.554869889689,784.554869889689,984.554869889689,415.445130110311,615.445130110311,415.445130110311,615.445130110311,784.554869889689,0,4,0,0,vertical,vertical,vertical,horizontal
3b,10,100334,3,35,131,21,M,blocked,constant,homogeneous,4,absent,0.514171838760376,1,vertical,vertical,1,5,green,2,NaN,984.554869889689,415.445130110311,NaN,NaN,984.554869889689,784.554869889689,984.554869889689,415.445130110311,615.445130110311,415.445130110311,615.445130110311,784.554869889689,0,4,0,0,vertical,vertical,horizontal,horizontal
3b,10,100334,3,36,132,21,M,blocked,constant,homogeneous,4,present,0.63099193572998,1,horizontal,horizontal,1,2,green,2,3,984.554869889689,415.445130110311,615.445130110311,415.445130110311,984.554869889689,784.554869889689,984.554869889689,415.445130110311,615.445130110311,415.445130110311,615.445130110311,784.554869889689,0,4,0,0,horizontal,horizontal,horizontal,horizontal
3b,10,100334,3,37,133,21,M,blocked,constant,homogeneous,4,present,1.26705312728882,1,horizontal,horizontal,1,3,green,1,3,984.554869889689,784.554869889689,615.445130110311,415.445130110311,984.554869889689,784.554869889689,984.554869889689,415.445130110311,615.445130110311,415.445130110311,615.445130110311,784.554869889689,4,0,0,0,horizontal,vertical,horizontal,vertical
3b,10,100334,3,38,134,21,M,blocked,constant,homogeneous,4,absent,0.8873450756073,1,vertical,vertical,1,8,green,2,NaN,984.554869889689,415.445130110311,NaN,NaN,984.554869889689,784.554869889689,984.554869889689,415.445130110311,615.445130110311,415.445130110311,615.445130110311,784.554869889689,0,4,0,0,vertical,vertical,horizontal,horizontal
3b,10,100334,3,39,135,21,M,blocked,constant,homogeneous,4,present,0.739930152893066,1,horizontal,horizontal,1,3,green,2,3,984.554869889689,415.445130110311,615.445130110311,415.445130110311,984.554869889689,784.554869889689,984.554869889689,415.445130110311,615.445130110311,415.445130110311,615.445130110311,784.554869889689,0,4,0,0,horizontal,horizontal,horizontal,horizontal
3b,10,100334,3,40,136,21,M,blocked,constant,homogeneous,4,present,0.863996982574463,1,vertical,vertical,1,3,green,3,2,615.445130110311,415.445130110311,984.554869889689,415.445130110311,984.554869889689,784.554869889689,984.554869889689,415.445130110311,615.445130110311,415.445130110311,615.445130110311,784.554869889689,0,0,4,0,vertical,horizontal,vertical,horizontal
3b,10,100334,3,41,137,21,M,blocked,constant,homogeneous,4,present,0.916738033294678,1,horizontal,horizontal,1,8,green,1,2,984.554869889689,784.554869889689,984.554869889689,415.445130110311,984.554869889689,784.554869889689,984.554869889689,415.445130110311,615.445130110311,415.445130110311,615.445130110311,784.554869889689,4,0,0,0,horizontal,vertical,vertical,horizontal
3b,10,100334,3,42,138,21,M,blocked,constant,homogeneous,4,present,0.665111064910889,1,vertical,vertical,1,2,green,4,3,615.445130110311,784.554869889689,615.445130110311,415.445130110311,984.554869889689,784.554869889689,984.554869889689,415.445130110311,615.445130110311,415.445130110311,615.445130110311,784.554869889689,0,0,0,4,horizontal,horizontal,vertical,vertical
3b,10,100334,3,43,139,21,M,blocked,constant,homogeneous,4,present,0.901406049728394,1,horizontal,horizontal,1,5,green,1,3,984.554869889689,784.554869889689,615.445130110311,415.445130110311,984.554869889689,784.554869889689,984.554869889689,415.445130110311,615.445130110311,415.445130110311,615.445130110311,784.554869889689,4,0,0,0,horizontal,vertical,horizontal,horizontal
3b,10,100334,3,44,140,21,M,blocked,constant,homogeneous,4,absent,0.601861953735352,1,horizontal,horizontal,1,8,green,1,NaN,984.554869889689,784.554869889689,NaN,NaN,984.554869889689,784.554869889689,984.554869889689,415.445130110311,615.445130110311,415.445130110311,615.445130110311,784.554869889689,4,0,0,0,horizontal,horizontal,vertical,horizontal
3b,10,100334,3,45,141,21,M,blocked,constant,homogeneous,4,present,0.646282911300659,1,vertical,vertical,1,5,green,1,3,984.554869889689,784.554869889689,615.445130110311,415.445130110311,984.554869889689,784.554869889689,984.554869889689,415.445130110311,615.445130110311,415.445130110311,615.445130110311,784.554869889689,4,0,0,0,vertical,horizontal,vertical,vertical
3b,10,100334,3,46,142,21,M,blocked,constant,homogeneous,4,absent,0.859040975570679,1,horizontal,horizontal,1,2,green,2,NaN,984.554869889689,415.445130110311,NaN,NaN,984.554869889689,784.554869889689,984.554869889689,415.445130110311,615.445130110311,415.445130110311,615.445130110311,784.554869889689,0,4,0,0,vertical,horizontal,horizontal,horizontal
3b,10,100334,3,47,143,21,M,blocked,constant,homogeneous,4,absent,0.678900957107544,1,horizontal,horizontal,1,5,green,2,NaN,984.554869889689,415.445130110311,NaN,NaN,984.554869889689,784.554869889689,984.554869889689,415.445130110311,615.445130110311,415.445130110311,615.445130110311,784.554869889689,0,4,0,0,horizontal,horizontal,horizontal,vertical
3b,10,100334,3,48,144,21,M,blocked,constant,homogeneous,4,present,0.88335108757019,1,horizontal,horizontal,1,3,green,4,2,615.445130110311,784.554869889689,984.554869889689,415.445130110311,984.554869889689,784.554869889689,984.554869889689,415.445130110311,615.445130110311,415.445130110311,615.445130110311,784.554869889689,0,0,0,4,vertical,vertical,vertical,horizontal
3b,10,100334,4,1,145,21,M,blocked,constant,homogeneous,4,absent,1.3193199634552,1,horizontal,horizontal,1,5,red,4,NaN,615.445130110311,784.554869889689,NaN,NaN,984.554869889689,784.554869889689,984.554869889689,415.445130110311,615.445130110311,415.445130110311,615.445130110311,784.554869889689,0,0,0,4,horizontal,horizontal,horizontal,horizontal
3b,10,100334,4,2,146,21,M,blocked,constant,homogeneous,4,present,1.29962301254272,1,vertical,vertical,1,5,red,4,1,615.445130110311,784.554869889689,984.554869889689,784.554869889689,984.554869889689,784.554869889689,984.554869889689,415.445130110311,615.445130110311,415.445130110311,615.445130110311,784.554869889689,0,0,0,4,horizontal,horizontal,vertical,vertical
3b,10,100334,4,3,147,21,M,blocked,constant,homogeneous,4,present,1.96825289726257,1,horizontal,horizontal,1,5,red,3,1,615.445130110311,415.445130110311,984.554869889689,784.554869889689,984.554869889689,784.554869889689,984.554869889689,415.445130110311,615.445130110311,415.445130110311,615.445130110311,784.554869889689,0,0,4,0,vertical,vertical,horizontal,horizontal
3b,10,100334,4,4,148,21,M,blocked,constant,homogeneous,4,present,0.50059700012207,1,vertical,vertical,1,2,red,2,4,984.554869889689,415.445130110311,615.445130110311,784.554869889689,984.554869889689,784.554869889689,984.554869889689,415.445130110311,615.445130110311,415.445130110311,615.445130110311,784.554869889689,0,4,0,0,vertical,vertical,horizontal,horizontal
3b,10,100334,4,5,149,21,M,blocked,constant,homogeneous,4,present,1.05693197250366,1,vertical,vertical,1,3,red,1,3,984.554869889689,784.554869889689,615.445130110311,415.445130110311,984.554869889689,784.554869889689,984.554869889689,415.445130110311,615.445130110311,415.445130110311,615.445130110311,784.554869889689,4,0,0,0,vertical,horizontal,horizontal,horizontal
3b,10,100334,4,6,150,21,M,blocked,constant,homogeneous,4,absent,0.62930703163147,1,vertical,vertical,1,2,red,1,NaN,984.554869889689,784.554869889689,NaN,NaN,984.554869889689,784.554869889689,984.554869889689,415.445130110311,615.445130110311,415.445130110311,615.445130110311,784.554869889689,4,0,0,0,vertical,horizontal,horizontal,horizontal
3b,10,100334,4,7,151,21,M,blocked,constant,homogeneous,4,absent,0.833679914474487,1,horizontal,horizontal,1,3,red,3,NaN,615.445130110311,415.445130110311,NaN,NaN,984.554869889689,784.554869889689,984.554869889689,415.445130110311,615.445130110311,415.445130110311,615.445130110311,784.554869889689,0,0,4,0,vertical,vertical,horizontal,horizontal
3b,10,100334,4,8,152,21,M,blocked,constant,homogeneous,4,present,0.741758108139038,1,vertical,vertical,1,2,red,2,4,984.554869889689,415.445130110311,615.445130110311,784.554869889689,984.554869889689,784.554869889689,984.554869889689,415.445130110311,615.445130110311,415.445130110311,615.445130110311,784.554869889689,0,4,0,0,horizontal,vertical,vertical,horizontal
3b,10,100334,4,9,153,21,M,blocked,constant,homogeneous,4,absent,0.722337961196899,1,vertical,vertical,1,3,red,3,NaN,615.445130110311,415.445130110311,NaN,NaN,984.554869889689,784.554869889689,984.554869889689,415.445130110311,615.445130110311,415.445130110311,615.445130110311,784.554869889689,0,0,4,0,vertical,horizontal,vertical,vertical
3b,10,100334,4,10,154,21,M,blocked,constant,homogeneous,4,present,0.670585870742798,1,horizontal,horizontal,1,5,red,1,3,984.554869889689,784.554869889689,615.445130110311,415.445130110311,984.554869889689,784.554869889689,984.554869889689,415.445130110311,615.445130110311,415.445130110311,615.445130110311,784.554869889689,4,0,0,0,horizontal,horizontal,horizontal,vertical
3b,10,100334,4,11,155,21,M,blocked,constant,homogeneous,4,absent,1.0269410610199,1,horizontal,horizontal,1,2,red,2,NaN,984.554869889689,415.445130110311,NaN,NaN,984.554869889689,784.554869889689,984.554869889689,415.445130110311,615.445130110311,415.445130110311,615.445130110311,784.554869889689,0,4,0,0,vertical,horizontal,horizontal,horizontal
3b,10,100334,4,12,156,21,M,blocked,constant,homogeneous,4,absent,0.679232835769653,1,vertical,vertical,1,2,red,2,NaN,984.554869889689,415.445130110311,NaN,NaN,984.554869889689,784.554869889689,984.554869889689,415.445130110311,615.445130110311,415.445130110311,615.445130110311,784.554869889689,0,4,0,0,horizontal,vertical,horizontal,horizontal
3b,10,100334,4,13,157,21,M,blocked,constant,homogeneous,4,present,1.09957480430603,1,vertical,vertical,1,2,red,2,4,984.554869889689,415.445130110311,615.445130110311,784.554869889689,984.554869889689,784.554869889689,984.554869889689,415.445130110311,615.445130110311,415.445130110311,615.445130110311,784.554869889689,0,4,0,0,horizontal,vertical,vertical,horizontal
3b,10,100334,4,14,158,21,M,blocked,constant,homogeneous,4,absent,0.855916023254395,1,horizontal,horizontal,1,5,red,1,NaN,984.554869889689,784.554869889689,NaN,NaN,984.554869889689,784.554869889689,984.554869889689,415.445130110311,615.445130110311,415.445130110311,615.445130110311,784.554869889689,4,0,0,0,horizontal,horizontal,vertical,vertical
3b,10,100334,4,15,159,21,M,blocked,constant,homogeneous,4,present,0.868558883666992,1,horizontal,horizontal,1,3,red,3,1,615.445130110311,415.445130110311,984.554869889689,784.554869889689,984.554869889689,784.554869889689,984.554869889689,415.445130110311,615.445130110311,415.445130110311,615.445130110311,784.554869889689,0,0,4,0,horizontal,horizontal,horizontal,horizontal
3b,10,100334,4,16,160,21,M,blocked,constant,homogeneous,4,present,0.760890960693359,1,horizontal,horizontal,1,2,red,4,3,615.445130110311,784.554869889689,615.445130110311,415.445130110311,984.554869889689,784.554869889689,984.554869889689,415.445130110311,615.445130110311,415.445130110311,615.445130110311,784.554869889689,0,0,0,4,vertical,horizontal,horizontal,horizontal
3b,10,100334,4,17,161,21,M,blocked,constant,homogeneous,4,present,1.72521090507507,1,vertical,vertical,1,8,red,1,4,984.554869889689,784.554869889689,615.445130110311,784.554869889689,984.554869889689,784.554869889689,984.554869889689,415.445130110311,615.445130110311,415.445130110311,615.445130110311,784.554869889689,4,0,0,0,vertical,vertical,vertical,vertical
3b,10,100334,4,18,162,21,M,blocked,constant,homogeneous,4,present,0.625748872756958,1,horizontal,horizontal,1,2,red,2,4,984.554869889689,415.445130110311,615.445130110311,784.554869889689,984.554869889689,784.554869889689,984.554869889689,415.445130110311,615.445130110311,415.445130110311,615.445130110311,784.554869889689,0,4,0,0,horizontal,horizontal,vertical,vertical
3b,10,100334,4,19,163,21,M,blocked,constant,homogeneous,4,absent,0.621860027313232,1,vertical,vertical,1,3,red,2,NaN,984.554869889689,415.445130110311,NaN,NaN,984.554869889689,784.554869889689,984.554869889689,415.445130110311,615.445130110311,415.445130110311,615.445130110311,784.554869889689,0,4,0,0,horizontal,vertical,horizontal,horizontal
3b,10,100334,4,20,164,21,M,blocked,constant,homogeneous,4,present,0.794242858886719,1,horizontal,horizontal,1,3,red,3,4,615.445130110311,415.445130110311,615.445130110311,784.554869889689,984.554869889689,784.554869889689,984.554869889689,415.445130110311,615.445130110311,415.445130110311,615.445130110311,784.554869889689,0,0,4,0,vertical,vertical,horizontal,horizontal
3b,10,100334,4,21,165,21,M,blocked,constant,homogeneous,4,present,0.74287486076355,1,horizontal,horizontal,1,5,red,3,4,615.445130110311,415.445130110311,615.445130110311,784.554869889689,984.554869889689,784.554869889689,984.554869889689,415.445130110311,615.445130110311,415.445130110311,615.445130110311,784.554869889689,0,0,4,0,vertical,horizontal,horizontal,horizontal
3b,10,100334,4,22,166,21,M,blocked,constant,homogeneous,4,present,0.882942914962769,1,vertical,vertical,1,3,red,2,3,984.554869889689,415.445130110311,615.445130110311,415.445130110311,984.554869889689,784.554869889689,984.554869889689,415.445130110311,615.445130110311,415.445130110311,615.445130110311,784.554869889689,0,4,0,0,horizontal,vertical,horizontal,horizontal
3b,10,100334,4,23,167,21,M,blocked,constant,homogeneous,4,absent,0.631511926651001,1,horizontal,horizontal,1,2,red,3,NaN,615.445130110311,415.445130110311,NaN,NaN,984.554869889689,784.554869889689,984.554869889689,415.445130110311,615.445130110311,415.445130110311,615.445130110311,784.554869889689,0,0,4,0,vertical,horizontal,horizontal,horizontal
3b,10,100334,4,24,168,21,M,blocked,constant,homogeneous,4,present,0.619877099990845,1,vertical,vertical,1,2,red,3,4,615.445130110311,415.445130110311,615.445130110311,784.554869889689,984.554869889689,784.554869889689,984.554869889689,415.445130110311,615.445130110311,415.445130110311,615.445130110311,784.554869889689,0,0,4,0,vertical,horizontal,vertical,vertical
3b,10,100334,4,25,169,21,M,blocked,constant,homogeneous,4,present,1.0641930103302,1,horizontal,horizontal,1,5,red,2,4,984.554869889689,415.445130110311,615.445130110311,784.554869889689,984.554869889689,784.554869889689,984.554869889689,415.445130110311,615.445130110311,415.445130110311,615.445130110311,784.554869889689,0,4,0,0,horizontal,horizontal,horizontal,horizontal
3b,10,100334,4,26,170,21,M,blocked,constant,homogeneous,4,present,0.892616033554077,1,horizontal,horizontal,1,8,red,4,3,615.445130110311,784.554869889689,615.445130110311,415.445130110311,984.554869889689,784.554869889689,984.554869889689,415.445130110311,615.445130110311,415.445130110311,615.445130110311,784.554869889689,0,0,0,4,vertical,horizontal,horizontal,horizontal
3b,10,100334,4,27,171,21,M,blocked,constant,homogeneous,4,present,0.929021835327148,1,horizontal,horizontal,1,2,red,1,4,984.554869889689,784.554869889689,615.445130110311,784.554869889689,984.554869889689,784.554869889689,984.554869889689,415.445130110311,615.445130110311,415.445130110311,615.445130110311,784.554869889689,4,0,0,0,horizontal,horizontal,vertical,vertical
3b,10,100334,4,28,172,21,M,blocked,constant,homogeneous,4,present,0.733339071273804,1,vertical,vertical,1,3,red,2,1,984.554869889689,415.445130110311,984.554869889689,784.554869889689,984.554869889689,784.554869889689,984.554869889689,415.445130110311,615.445130110311,415.445130110311,615.445130110311,784.554869889689,0,4,0,0,horizontal,vertical,vertical,vertical
3b,10,100334,4,29,173,21,M,blocked,constant,homogeneous,4,present,0.609844923019409,1,horizontal,horizontal,1,2,red,1,4,984.554869889689,784.554869889689,615.445130110311,784.554869889689,984.554869889689,784.554869889689,984.554869889689,415.445130110311,615.445130110311,415.445130110311,615.445130110311,784.554869889689,4,0,0,0,horizontal,vertical,horizontal,vertical
3b,10,100334,4,30,174,21,M,blocked,constant,homogeneous,4,present,0.702077865600586,1,horizontal,horizontal,1,3,red,2,4,984.554869889689,415.445130110311,615.445130110311,784.554869889689,984.554869889689,784.554869889689,984.554869889689,415.445130110311,615.445130110311,415.445130110311,615.445130110311,784.554869889689,0,4,0,0,vertical,horizontal,horizontal,horizontal
3b,10,100334,4,31,175,21,M,blocked,constant,homogeneous,4,present,0.570494890213013,1,vertical,vertical,1,3,red,1,4,984.554869889689,784.554869889689,615.445130110311,784.554869889689,984.554869889689,784.554869889689,984.554869889689,415.445130110311,615.445130110311,415.445130110311,615.445130110311,784.554869889689,4,0,0,0,vertical,vertical,horizontal,horizontal
3b,10,100334,4,32,176,21,M,blocked,constant,homogeneous,4,present,0.934725999832153,1,vertical,vertical,1,5,red,3,2,615.445130110311,415.445130110311,984.554869889689,415.445130110311,984.554869889689,784.554869889689,984.554869889689,415.445130110311,615.445130110311,415.445130110311,615.445130110311,784.554869889689,0,0,4,0,vertical,horizontal,vertical,horizontal
3b,10,100334,4,33,177,21,M,blocked,constant,homogeneous,4,present,0.539309024810791,1,vertical,vertical,1,2,red,3,1,615.445130110311,415.445130110311,984.554869889689,784.554869889689,984.554869889689,784.554869889689,984.554869889689,415.445130110311,615.445130110311,415.445130110311,615.445130110311,784.554869889689,0,0,4,0,vertical,horizontal,vertical,vertical
3b,10,100334,4,34,178,21,M,blocked,constant,homogeneous,4,absent,0.927548885345459,1,horizontal,horizontal,1,2,red,1,NaN,984.554869889689,784.554869889689,NaN,NaN,984.554869889689,784.554869889689,984.554869889689,415.445130110311,615.445130110311,415.445130110311,615.445130110311,784.554869889689,4,0,0,0,horizontal,horizontal,vertical,vertical
3b,10,100334,4,35,179,21,M,blocked,constant,homogeneous,4,absent,0.819994926452637,1,vertical,vertical,1,8,red,4,NaN,615.445130110311,784.554869889689,NaN,NaN,984.554869889689,784.554869889689,984.554869889689,415.445130110311,615.445130110311,415.445130110311,615.445130110311,784.554869889689,0,0,0,4,horizontal,horizontal,vertical,vertical
3b,10,100334,4,36,180,21,M,blocked,constant,homogeneous,4,present,0.760428905487061,1,vertical,vertical,1,2,red,2,4,984.554869889689,415.445130110311,615.445130110311,784.554869889689,984.554869889689,784.554869889689,984.554869889689,415.445130110311,615.445130110311,415.445130110311,615.445130110311,784.554869889689,0,4,0,0,horizontal,vertical,vertical,horizontal
3b,10,100334,4,37,181,21,M,blocked,constant,homogeneous,4,present,0.724687099456787,1,vertical,vertical,1,5,red,4,3,615.445130110311,784.554869889689,615.445130110311,415.445130110311,984.554869889689,784.554869889689,984.554869889689,415.445130110311,615.445130110311,415.445130110311,615.445130110311,784.554869889689,0,0,0,4,horizontal,horizontal,horizontal,vertical
3b,10,100334,4,38,182,21,M,blocked,constant,homogeneous,4,absent,0.777155160903931,1,vertical,vertical,1,2,red,3,NaN,615.445130110311,415.445130110311,NaN,NaN,984.554869889689,784.554869889689,984.554869889689,415.445130110311,615.445130110311,415.445130110311,615.445130110311,784.554869889689,0,0,4,0,horizontal,horizontal,vertical,horizontal
3b,10,100334,4,39,183,21,M,blocked,constant,homogeneous,4,present,0.909517049789429,1,horizontal,horizontal,1,8,red,4,3,615.445130110311,784.554869889689,615.445130110311,415.445130110311,984.554869889689,784.554869889689,984.554869889689,415.445130110311,615.445130110311,415.445130110311,615.445130110311,784.554869889689,0,0,0,4,horizontal,horizontal,vertical,horizontal
3b,10,100334,4,40,184,21,M,blocked,constant,homogeneous,4,absent,0.825850009918213,1,horizontal,horizontal,1,3,red,3,NaN,615.445130110311,415.445130110311,NaN,NaN,984.554869889689,784.554869889689,984.554869889689,415.445130110311,615.445130110311,415.445130110311,615.445130110311,784.554869889689,0,0,4,0,horizontal,vertical,horizontal,horizontal
3b,10,100334,4,41,185,21,M,blocked,constant,homogeneous,4,present,1.0783360004425,1,vertical,vertical,1,5,red,2,1,984.554869889689,415.445130110311,984.554869889689,784.554869889689,984.554869889689,784.554869889689,984.554869889689,415.445130110311,615.445130110311,415.445130110311,615.445130110311,784.554869889689,0,4,0,0,vertical,vertical,vertical,horizontal
3b,10,100334,4,42,186,21,M,blocked,constant,homogeneous,4,absent,0.754597902297974,1,vertical,vertical,1,5,red,3,NaN,615.445130110311,415.445130110311,NaN,NaN,984.554869889689,784.554869889689,984.554869889689,415.445130110311,615.445130110311,415.445130110311,615.445130110311,784.554869889689,0,0,4,0,vertical,vertical,vertical,vertical
3b,10,100334,4,43,187,21,M,blocked,constant,homogeneous,4,absent,1.19910407066345,1,vertical,vertical,1,5,red,3,NaN,615.445130110311,415.445130110311,NaN,NaN,984.554869889689,784.554869889689,984.554869889689,415.445130110311,615.445130110311,415.445130110311,615.445130110311,784.554869889689,0,0,4,0,vertical,horizontal,vertical,horizontal
3b,10,100334,4,44,188,21,M,blocked,constant,homogeneous,4,present,0.987512111663818,1,horizontal,horizontal,1,3,red,4,3,615.445130110311,784.554869889689,615.445130110311,415.445130110311,984.554869889689,784.554869889689,984.554869889689,415.445130110311,615.445130110311,415.445130110311,615.445130110311,784.554869889689,0,0,0,4,horizontal,vertical,vertical,horizontal
3b,10,100334,4,45,189,21,M,blocked,constant,homogeneous,4,absent,1.1519730091095,1,horizontal,horizontal,1,8,red,2,NaN,984.554869889689,415.445130110311,NaN,NaN,984.554869889689,784.554869889689,984.554869889689,415.445130110311,615.445130110311,415.445130110311,615.445130110311,784.554869889689,0,4,0,0,vertical,horizontal,horizontal,vertical
3b,10,100334,4,46,190,21,M,blocked,constant,homogeneous,4,present,0.516480922698975,1,horizontal,horizontal,1,2,red,2,1,984.554869889689,415.445130110311,984.554869889689,784.554869889689,984.554869889689,784.554869889689,984.554869889689,415.445130110311,615.445130110311,415.445130110311,615.445130110311,784.554869889689,0,4,0,0,vertical,horizontal,vertical,horizontal
3b,10,100334,4,47,191,21,M,blocked,constant,homogeneous,4,present,0.84075403213501,1,vertical,vertical,1,8,red,4,3,615.445130110311,784.554869889689,615.445130110311,415.445130110311,984.554869889689,784.554869889689,984.554869889689,415.445130110311,615.445130110311,415.445130110311,615.445130110311,784.554869889689,0,0,0,4,vertical,vertical,horizontal,vertical
3b,10,100334,4,48,192,21,M,blocked,constant,homogeneous,4,present,0.525345087051392,1,horizontal,horizontal,1,2,red,4,1,615.445130110311,784.554869889689,984.554869889689,784.554869889689,984.554869889689,784.554869889689,984.554869889689,415.445130110311,615.445130110311,415.445130110311,615.445130110311,784.554869889689,0,0,0,4,vertical,horizontal,vertical,horizontal
3b,10,100334,5,1,193,21,M,blocked,constant,homogeneous,4,present,0.807837963104248,1,horizontal,horizontal,1,5,red,1,3,984.554869889689,784.554869889689,615.445130110311,415.445130110311,984.554869889689,784.554869889689,984.554869889689,415.445130110311,615.445130110311,415.445130110311,615.445130110311,784.554869889689,4,0,0,0,horizontal,vertical,horizontal,vertical
3b,10,100334,5,2,194,21,M,blocked,constant,homogeneous,4,present,0.844587802886963,1,vertical,vertical,1,2,red,1,3,984.554869889689,784.554869889689,615.445130110311,415.445130110311,984.554869889689,784.554869889689,984.554869889689,415.445130110311,615.445130110311,415.445130110311,615.445130110311,784.554869889689,4,0,0,0,vertical,vertical,horizontal,horizontal
3b,10,100334,5,3,195,21,M,blocked,constant,homogeneous,4,present,0.704694032669067,1,vertical,vertical,1,2,red,2,4,984.554869889689,415.445130110311,615.445130110311,784.554869889689,984.554869889689,784.554869889689,984.554869889689,415.445130110311,615.445130110311,415.445130110311,615.445130110311,784.554869889689,0,4,0,0,vertical,vertical,horizontal,vertical
3b,10,100334,5,4,196,21,M,blocked,constant,homogeneous,4,absent,0.708889007568359,1,vertical,vertical,1,2,red,1,NaN,984.554869889689,784.554869889689,NaN,NaN,984.554869889689,784.554869889689,984.554869889689,415.445130110311,615.445130110311,415.445130110311,615.445130110311,784.554869889689,4,0,0,0,vertical,horizontal,horizontal,horizontal
3b,10,100334,5,5,197,21,M,blocked,constant,homogeneous,4,absent,0.617377042770386,1,vertical,vertical,1,2,red,3,NaN,615.445130110311,415.445130110311,NaN,NaN,984.554869889689,784.554869889689,984.554869889689,415.445130110311,615.445130110311,415.445130110311,615.445130110311,784.554869889689,0,0,4,0,horizontal,vertical,vertical,horizontal
3b,10,100334,5,6,198,21,M,blocked,constant,homogeneous,4,present,1.09337306022644,1,horizontal,horizontal,1,3,red,1,2,984.554869889689,784.554869889689,984.554869889689,415.445130110311,984.554869889689,784.554869889689,984.554869889689,415.445130110311,615.445130110311,415.445130110311,615.445130110311,784.554869889689,4,0,0,0,horizontal,horizontal,horizontal,horizontal
3b,10,100334,5,7,199,21,M,blocked,constant,homogeneous,4,absent,0.642091989517212,1,horizontal,horizontal,1,3,red,1,NaN,984.554869889689,784.554869889689,NaN,NaN,984.554869889689,784.554869889689,984.554869889689,415.445130110311,615.445130110311,415.445130110311,615.445130110311,784.554869889689,4,0,0,0,horizontal,vertical,horizontal,vertical
3b,10,100334,5,8,200,21,M,blocked,constant,homogeneous,4,absent,0.886641979217529,1,horizontal,horizontal,1,8,red,3,NaN,615.445130110311,415.445130110311,NaN,NaN,984.554869889689,784.554869889689,984.554869889689,415.445130110311,615.445130110311,415.445130110311,615.445130110311,784.554869889689,0,0,4,0,vertical,horizontal,horizontal,vertical
3b,10,100334,5,9,201,21,M,blocked,constant,homogeneous,4,present,0.618627071380615,1,horizontal,horizontal,1,2,red,1,3,984.554869889689,784.554869889689,615.445130110311,415.445130110311,984.554869889689,784.554869889689,984.554869889689,415.445130110311,615.445130110311,415.445130110311,615.445130110311,784.554869889689,4,0,0,0,horizontal,horizontal,vertical,horizontal
3b,10,100334,5,10,202,21,M,blocked,constant,homogeneous,4,present,0.647310972213745,1,horizontal,horizontal,1,5,red,1,4,984.554869889689,784.554869889689,615.445130110311,784.554869889689,984.554869889689,784.554869889689,984.554869889689,415.445130110311,615.445130110311,415.445130110311,615.445130110311,784.554869889689,4,0,0,0,horizontal,horizontal,horizontal,horizontal
3b,10,100334,5,11,203,21,M,blocked,constant,homogeneous,4,absent,0.804003000259399,1,vertical,vertical,1,5,red,2,NaN,984.554869889689,415.445130110311,NaN,NaN,984.554869889689,784.554869889689,984.554869889689,415.445130110311,615.445130110311,415.445130110311,615.445130110311,784.554869889689,0,4,0,0,horizontal,vertical,horizontal,horizontal
3b,10,100334,5,12,204,21,M,blocked,constant,homogeneous,4,present,0.591974020004272,0,vertical,horizontal,1,5,red,3,1,615.445130110311,415.445130110311,984.554869889689,784.554869889689,984.554869889689,784.554869889689,984.554869889689,415.445130110311,615.445130110311,415.445130110311,615.445130110311,784.554869889689,0,0,4,0,horizontal,vertical,vertical,vertical
3b,10,100334,5,13,205,21,M,blocked,constant,homogeneous,4,present,1.01244807243347,1,vertical,vertical,1,2,red,1,4,984.554869889689,784.554869889689,615.445130110311,784.554869889689,984.554869889689,784.554869889689,984.554869889689,415.445130110311,615.445130110311,415.445130110311,615.445130110311,784.554869889689,4,0,0,0,vertical,vertical,vertical,horizontal
3b,10,100334,5,14,206,21,M,blocked,constant,homogeneous,4,present,0.928963899612427,1,vertical,vertical,1,5,red,3,2,615.445130110311,415.445130110311,984.554869889689,415.445130110311,984.554869889689,784.554869889689,984.554869889689,415.445130110311,615.445130110311,415.445130110311,615.445130110311,784.554869889689,0,0,4,0,horizontal,horizontal,vertical,horizontal
3b,10,100334,5,15,207,21,M,blocked,constant,homogeneous,4,absent,0.996984004974365,1,horizontal,horizontal,1,2,red,2,NaN,984.554869889689,415.445130110311,NaN,NaN,984.554869889689,784.554869889689,984.554869889689,415.445130110311,615.445130110311,415.445130110311,615.445130110311,784.554869889689,0,4,0,0,vertical,horizontal,vertical,horizontal
3b,10,100334,5,16,208,21,M,blocked,constant,homogeneous,4,present,1.29742002487183,1,horizontal,horizontal,1,5,red,3,2,615.445130110311,415.445130110311,984.554869889689,415.445130110311,984.554869889689,784.554869889689,984.554869889689,415.445130110311,615.445130110311,415.445130110311,615.445130110311,784.554869889689,0,0,4,0,horizontal,horizontal,horizontal,vertical
3b,10,100334,5,17,209,21,M,blocked,constant,homogeneous,4,present,0.693872928619385,1,horizontal,horizontal,1,2,red,3,2,615.445130110311,415.445130110311,984.554869889689,415.445130110311,984.554869889689,784.554869889689,984.554869889689,415.445130110311,615.445130110311,415.445130110311,615.445130110311,784.554869889689,0,0,4,0,horizontal,horizontal,horizontal,horizontal
3b,10,100334,5,18,210,21,M,blocked,constant,homogeneous,4,present,0.538331031799316,1,vertical,vertical,1,2,red,2,1,984.554869889689,415.445130110311,984.554869889689,784.554869889689,984.554869889689,784.554869889689,984.554869889689,415.445130110311,615.445130110311,415.445130110311,615.445130110311,784.554869889689,0,4,0,0,vertical,vertical,horizontal,horizontal
3b,10,100334,5,19,211,21,M,blocked,constant,homogeneous,4,present,0.710654973983765,1,horizontal,horizontal,1,3,red,3,4,615.445130110311,415.445130110311,615.445130110311,784.554869889689,984.554869889689,784.554869889689,984.554869889689,415.445130110311,615.445130110311,415.445130110311,615.445130110311,784.554869889689,0,0,4,0,horizontal,vertical,horizontal,vertical
3b,10,100334,5,20,212,21,M,blocked,constant,homogeneous,4,absent,0.626830816268921,1,vertical,vertical,1,3,red,3,NaN,615.445130110311,415.445130110311,NaN,NaN,984.554869889689,784.554869889689,984.554869889689,415.445130110311,615.445130110311,415.445130110311,615.445130110311,784.554869889689,0,0,4,0,horizontal,horizontal,vertical,vertical
3b,10,100334,5,21,213,21,M,blocked,constant,homogeneous,4,present,0.759321928024292,1,vertical,vertical,1,8,red,4,3,615.445130110311,784.554869889689,615.445130110311,415.445130110311,984.554869889689,784.554869889689,984.554869889689,415.445130110311,615.445130110311,415.445130110311,615.445130110311,784.554869889689,0,0,0,4,horizontal,vertical,horizontal,vertical
3b,10,100334,5,22,214,21,M,blocked,constant,homogeneous,4,present,0.69178295135498,1,horizontal,horizontal,1,3,red,3,1,615.445130110311,415.445130110311,984.554869889689,784.554869889689,984.554869889689,784.554869889689,984.554869889689,415.445130110311,615.445130110311,415.445130110311,615.445130110311,784.554869889689,0,0,4,0,horizontal,vertical,horizontal,horizontal
3b,10,100334,5,23,215,21,M,blocked,constant,homogeneous,4,absent,0.616008996963501,1,horizontal,horizontal,1,2,red,2,NaN,984.554869889689,415.445130110311,NaN,NaN,984.554869889689,784.554869889689,984.554869889689,415.445130110311,615.445130110311,415.445130110311,615.445130110311,784.554869889689,0,4,0,0,vertical,horizontal,vertical,vertical
3b,10,100334,5,24,216,21,M,blocked,constant,homogeneous,4,absent,0.668499946594238,1,horizontal,horizontal,1,2,red,3,NaN,615.445130110311,415.445130110311,NaN,NaN,984.554869889689,784.554869889689,984.554869889689,415.445130110311,615.445130110311,415.445130110311,615.445130110311,784.554869889689,0,0,4,0,horizontal,vertical,horizontal,horizontal
3b,10,100334,5,25,217,21,M,blocked,constant,homogeneous,4,present,1.32920408248901,1,horizontal,horizontal,1,2,red,2,1,984.554869889689,415.445130110311,984.554869889689,784.554869889689,984.554869889689,784.554869889689,984.554869889689,415.445130110311,615.445130110311,415.445130110311,615.445130110311,784.554869889689,0,4,0,0,vertical,horizontal,vertical,horizontal
3b,10,100334,5,26,218,21,M,blocked,constant,homogeneous,4,absent,0.637253999710083,1,horizontal,horizontal,1,5,red,1,NaN,984.554869889689,784.554869889689,NaN,NaN,984.554869889689,784.554869889689,984.554869889689,415.445130110311,615.445130110311,415.445130110311,615.445130110311,784.554869889689,4,0,0,0,horizontal,horizontal,horizontal,vertical
3b,10,100334,5,27,219,21,M,blocked,constant,homogeneous,4,present,0.897639989852905,1,vertical,vertical,1,2,red,3,2,615.445130110311,415.445130110311,984.554869889689,415.445130110311,984.554869889689,784.554869889689,984.554869889689,415.445130110311,615.445130110311,415.445130110311,615.445130110311,784.554869889689,0,0,4,0,vertical,vertical,vertical,vertical
3b,10,100334,5,28,220,21,M,blocked,constant,homogeneous,4,absent,0.701722860336304,1,vertical,vertical,1,3,red,4,NaN,615.445130110311,784.554869889689,NaN,NaN,984.554869889689,784.554869889689,984.554869889689,415.445130110311,615.445130110311,415.445130110311,615.445130110311,784.554869889689,0,0,0,4,horizontal,vertical,vertical,vertical
3b,10,100334,5,29,221,21,M,blocked,constant,homogeneous,4,present,0.554158926010132,1,vertical,vertical,1,3,red,3,1,615.445130110311,415.445130110311,984.554869889689,784.554869889689,984.554869889689,784.554869889689,984.554869889689,415.445130110311,615.445130110311,415.445130110311,615.445130110311,784.554869889689,0,0,4,0,horizontal,vertical,vertical,horizontal
3b,10,100334,5,30,222,21,M,blocked,constant,homogeneous,4,present,0.566720962524414,1,vertical,vertical,1,3,red,1,3,984.554869889689,784.554869889689,615.445130110311,415.445130110311,984.554869889689,784.554869889689,984.554869889689,415.445130110311,615.445130110311,415.445130110311,615.445130110311,784.554869889689,4,0,0,0,vertical,vertical,horizontal,vertical
3b,10,100334,5,31,223,21,M,blocked,constant,homogeneous,4,absent,1.49088907241821,1,horizontal,horizontal,1,3,red,3,NaN,615.445130110311,415.445130110311,NaN,NaN,984.554869889689,784.554869889689,984.554869889689,415.445130110311,615.445130110311,415.445130110311,615.445130110311,784.554869889689,0,0,4,0,vertical,vertical,horizontal,vertical
3b,10,100334,5,32,224,21,M,blocked,constant,homogeneous,4,present,0.951474905014038,1,vertical,vertical,1,8,red,4,2,615.445130110311,784.554869889689,984.554869889689,415.445130110311,984.554869889689,784.554869889689,984.554869889689,415.445130110311,615.445130110311,415.445130110311,615.445130110311,784.554869889689,0,0,0,4,horizontal,horizontal,vertical,vertical
3b,10,100334,5,33,225,21,M,blocked,constant,homogeneous,4,absent,0.763878107070923,1,vertical,vertical,1,2,red,3,NaN,615.445130110311,415.445130110311,NaN,NaN,984.554869889689,784.554869889689,984.554869889689,415.445130110311,615.445130110311,415.445130110311,615.445130110311,784.554869889689,0,0,4,0,vertical,horizontal,vertical,vertical
3b,10,100334,5,34,226,21,M,blocked,constant,homogeneous,4,present,0.680619955062866,1,vertical,vertical,1,5,red,4,3,615.445130110311,784.554869889689,615.445130110311,415.445130110311,984.554869889689,784.554869889689,984.554869889689,415.445130110311,615.445130110311,415.445130110311,615.445130110311,784.554869889689,0,0,0,4,vertical,vertical,vertical,vertical
3b,10,100334,5,35,227,21,M,blocked,constant,homogeneous,4,present,0.988761901855469,1,horizontal,horizontal,1,8,red,2,4,984.554869889689,415.445130110311,615.445130110311,784.554869889689,984.554869889689,784.554869889689,984.554869889689,415.445130110311,615.445130110311,415.445130110311,615.445130110311,784.554869889689,0,4,0,0,vertical,horizontal,vertical,vertical
3b,10,100334,5,36,228,21,M,blocked,constant,homogeneous,4,present,0.577197074890137,1,horizontal,horizontal,1,2,red,4,3,615.445130110311,784.554869889689,615.445130110311,415.445130110311,984.554869889689,784.554869889689,984.554869889689,415.445130110311,615.445130110311,415.445130110311,615.445130110311,784.554869889689,0,0,0,4,horizontal,horizontal,vertical,horizontal
3b,10,100334,5,37,229,21,M,blocked,constant,homogeneous,4,absent,0.621318101882935,1,horizontal,horizontal,1,5,red,2,NaN,984.554869889689,415.445130110311,NaN,NaN,984.554869889689,784.554869889689,984.554869889689,415.445130110311,615.445130110311,415.445130110311,615.445130110311,784.554869889689,0,4,0,0,vertical,horizontal,horizontal,vertical
3b,10,100334,5,38,230,21,M,blocked,constant,homogeneous,4,present,0.69806694984436,1,horizontal,horizontal,1,3,red,4,1,615.445130110311,784.554869889689,984.554869889689,784.554869889689,984.554869889689,784.554869889689,984.554869889689,415.445130110311,615.445130110311,415.445130110311,615.445130110311,784.554869889689,0,0,0,4,vertical,vertical,vertical,horizontal
3b,10,100334,5,39,231,21,M,blocked,constant,homogeneous,4,present,0.726310014724731,1,vertical,vertical,1,3,red,4,2,615.445130110311,784.554869889689,984.554869889689,415.445130110311,984.554869889689,784.554869889689,984.554869889689,415.445130110311,615.445130110311,415.445130110311,615.445130110311,784.554869889689,0,0,0,4,horizontal,vertical,vertical,vertical
3b,10,100334,5,40,232,21,M,blocked,constant,homogeneous,4,present,0.682630062103271,1,horizontal,horizontal,1,2,red,4,2,615.445130110311,784.554869889689,984.554869889689,415.445130110311,984.554869889689,784.554869889689,984.554869889689,415.445130110311,615.445130110311,415.445130110311,615.445130110311,784.554869889689,0,0,0,4,horizontal,horizontal,vertical,horizontal
3b,10,100334,5,41,233,21,M,blocked,constant,homogeneous,4,present,0.615111112594604,1,horizontal,horizontal,1,5,red,3,2,615.445130110311,415.445130110311,984.554869889689,415.445130110311,984.554869889689,784.554869889689,984.554869889689,415.445130110311,615.445130110311,415.445130110311,615.445130110311,784.554869889689,0,0,4,0,horizontal,horizontal,horizontal,horizontal
3b,10,100334,5,42,234,21,M,blocked,constant,homogeneous,4,absent,0.723628997802734,1,vertical,vertical,1,5,red,3,NaN,615.445130110311,415.445130110311,NaN,NaN,984.554869889689,784.554869889689,984.554869889689,415.445130110311,615.445130110311,415.445130110311,615.445130110311,784.554869889689,0,0,4,0,vertical,vertical,vertical,vertical
3b,10,100334,5,43,235,21,M,blocked,constant,homogeneous,4,present,0.70409107208252,1,vertical,vertical,1,5,red,1,4,984.554869889689,784.554869889689,615.445130110311,784.554869889689,984.554869889689,784.554869889689,984.554869889689,415.445130110311,615.445130110311,415.445130110311,615.445130110311,784.554869889689,4,0,0,0,vertical,horizontal,horizontal,horizontal
3b,10,100334,5,44,236,21,M,blocked,constant,homogeneous,4,absent,0.980210065841675,1,vertical,vertical,1,8,red,2,NaN,984.554869889689,415.445130110311,NaN,NaN,984.554869889689,784.554869889689,984.554869889689,415.445130110311,615.445130110311,415.445130110311,615.445130110311,784.554869889689,0,4,0,0,vertical,vertical,horizontal,vertical
3b,10,100334,5,45,237,21,M,blocked,constant,homogeneous,4,present,0.600685834884644,1,vertical,vertical,1,2,red,1,4,984.554869889689,784.554869889689,615.445130110311,784.554869889689,984.554869889689,784.554869889689,984.554869889689,415.445130110311,615.445130110311,415.445130110311,615.445130110311,784.554869889689,4,0,0,0,vertical,vertical,horizontal,horizontal
3b,10,100334,5,46,238,21,M,blocked,constant,homogeneous,4,present,0.564985990524292,1,vertical,vertical,1,3,red,2,3,984.554869889689,415.445130110311,615.445130110311,415.445130110311,984.554869889689,784.554869889689,984.554869889689,415.445130110311,615.445130110311,415.445130110311,615.445130110311,784.554869889689,0,4,0,0,horizontal,vertical,horizontal,horizontal
3b,10,100334,5,47,239,21,M,blocked,constant,homogeneous,4,present,0.713606119155884,1,horizontal,horizontal,1,2,red,4,3,615.445130110311,784.554869889689,615.445130110311,415.445130110311,984.554869889689,784.554869889689,984.554869889689,415.445130110311,615.445130110311,415.445130110311,615.445130110311,784.554869889689,0,0,0,4,vertical,vertical,vertical,horizontal
3b,10,100334,5,48,240,21,M,blocked,constant,homogeneous,4,present,0.621814966201782,1,horizontal,horizontal,1,8,red,4,2,615.445130110311,784.554869889689,984.554869889689,415.445130110311,984.554869889689,784.554869889689,984.554869889689,415.445130110311,615.445130110311,415.445130110311,615.445130110311,784.554869889689,0,0,0,4,vertical,vertical,vertical,horizontal
3b,10,100334,6,1,241,21,M,blocked,constant,homogeneous,4,absent,NaN,0,horizontal,none,0,3,red,2,NaN,984.554869889689,415.445130110311,NaN,NaN,984.554869889689,784.554869889689,984.554869889689,415.445130110311,615.445130110311,415.445130110311,615.445130110311,784.554869889689,0,4,0,0,vertical,horizontal,horizontal,horizontal
3b,10,100334,6,2,242,21,M,blocked,constant,homogeneous,4,present,1.08410978317261,1,vertical,vertical,1,5,red,1,3,984.554869889689,784.554869889689,615.445130110311,415.445130110311,984.554869889689,784.554869889689,984.554869889689,415.445130110311,615.445130110311,415.445130110311,615.445130110311,784.554869889689,4,0,0,0,vertical,vertical,horizontal,horizontal
3b,10,100334,6,3,243,21,M,blocked,constant,homogeneous,4,present,0.624693870544434,1,vertical,vertical,1,2,red,3,4,615.445130110311,415.445130110311,615.445130110311,784.554869889689,984.554869889689,784.554869889689,984.554869889689,415.445130110311,615.445130110311,415.445130110311,615.445130110311,784.554869889689,0,0,4,0,horizontal,vertical,vertical,horizontal
3b,10,100334,6,4,244,21,M,blocked,constant,homogeneous,4,absent,0.533033847808838,1,vertical,vertical,1,2,red,1,NaN,984.554869889689,784.554869889689,NaN,NaN,984.554869889689,784.554869889689,984.554869889689,415.445130110311,615.445130110311,415.445130110311,615.445130110311,784.554869889689,4,0,0,0,vertical,vertical,horizontal,vertical
3b,10,100334,6,5,245,21,M,blocked,constant,homogeneous,4,absent,0.465413808822632,1,vertical,vertical,1,3,red,1,NaN,984.554869889689,784.554869889689,NaN,NaN,984.554869889689,784.554869889689,984.554869889689,415.445130110311,615.445130110311,415.445130110311,615.445130110311,784.554869889689,4,0,0,0,vertical,horizontal,vertical,horizontal
3b,10,100334,6,6,246,21,M,blocked,constant,homogeneous,4,present,0.637766122817993,1,horizontal,horizontal,1,3,red,1,2,984.554869889689,784.554869889689,984.554869889689,415.445130110311,984.554869889689,784.554869889689,984.554869889689,415.445130110311,615.445130110311,415.445130110311,615.445130110311,784.554869889689,4,0,0,0,horizontal,horizontal,horizontal,horizontal
3b,10,100334,6,7,247,21,M,blocked,constant,homogeneous,4,present,0.817975997924805,1,horizontal,horizontal,1,2,red,4,2,615.445130110311,784.554869889689,984.554869889689,415.445130110311,984.554869889689,784.554869889689,984.554869889689,415.445130110311,615.445130110311,415.445130110311,615.445130110311,784.554869889689,0,0,0,4,vertical,vertical,vertical,horizontal
3b,10,100334,6,8,248,21,M,blocked,constant,homogeneous,4,absent,0.550601005554199,1,horizontal,horizontal,1,8,red,3,NaN,615.445130110311,415.445130110311,NaN,NaN,984.554869889689,784.554869889689,984.554869889689,415.445130110311,615.445130110311,415.445130110311,615.445130110311,784.554869889689,0,0,4,0,horizontal,horizontal,horizontal,horizontal
3b,10,100334,6,9,249,21,M,blocked,constant,homogeneous,4,present,0.930665016174316,1,vertical,vertical,1,3,red,4,3,615.445130110311,784.554869889689,615.445130110311,415.445130110311,984.554869889689,784.554869889689,984.554869889689,415.445130110311,615.445130110311,415.445130110311,615.445130110311,784.554869889689,0,0,0,4,vertical,horizontal,vertical,vertical
3b,10,100334,6,10,250,21,M,blocked,constant,homogeneous,4,present,1.02341818809509,1,horizontal,horizontal,1,5,red,2,4,984.554869889689,415.445130110311,615.445130110311,784.554869889689,984.554869889689,784.554869889689,984.554869889689,415.445130110311,615.445130110311,415.445130110311,615.445130110311,784.554869889689,0,4,0,0,vertical,horizontal,horizontal,horizontal
3b,10,100334,6,11,251,21,M,blocked,constant,homogeneous,4,absent,0.859468936920166,1,vertical,vertical,1,5,red,4,NaN,615.445130110311,784.554869889689,NaN,NaN,984.554869889689,784.554869889689,984.554869889689,415.445130110311,615.445130110311,415.445130110311,615.445130110311,784.554869889689,0,0,0,4,horizontal,vertical,vertical,vertical
3b,10,100334,6,12,252,21,M,blocked,constant,homogeneous,4,present,1.16810202598572,1,vertical,vertical,1,2,red,3,2,615.445130110311,415.445130110311,984.554869889689,415.445130110311,984.554869889689,784.554869889689,984.554869889689,415.445130110311,615.445130110311,415.445130110311,615.445130110311,784.554869889689,0,0,4,0,vertical,vertical,vertical,horizontal
3b,10,100334,6,13,253,21,M,blocked,constant,homogeneous,4,present,0.82044506072998,1,horizontal,horizontal,1,2,red,1,2,984.554869889689,784.554869889689,984.554869889689,415.445130110311,984.554869889689,784.554869889689,984.554869889689,415.445130110311,615.445130110311,415.445130110311,615.445130110311,784.554869889689,4,0,0,0,horizontal,horizontal,vertical,vertical
3b,10,100334,6,14,254,21,M,blocked,constant,homogeneous,4,absent,1.04854798316956,1,horizontal,horizontal,1,2,red,3,NaN,615.445130110311,415.445130110311,NaN,NaN,984.554869889689,784.554869889689,984.554869889689,415.445130110311,615.445130110311,415.445130110311,615.445130110311,784.554869889689,0,0,4,0,horizontal,horizontal,horizontal,vertical
3b,10,100334,6,15,255,21,M,blocked,constant,homogeneous,4,present,0.669392824172974,0,vertical,horizontal,1,8,red,4,1,615.445130110311,784.554869889689,984.554869889689,784.554869889689,984.554869889689,784.554869889689,984.554869889689,415.445130110311,615.445130110311,415.445130110311,615.445130110311,784.554869889689,0,0,0,4,horizontal,vertical,vertical,vertical
3b,10,100334,6,16,256,21,M,blocked,constant,homogeneous,4,present,0.617516040802002,1,horizontal,horizontal,1,3,red,1,3,984.554869889689,784.554869889689,615.445130110311,415.445130110311,984.554869889689,784.554869889689,984.554869889689,415.445130110311,615.445130110311,415.445130110311,615.445130110311,784.554869889689,4,0,0,0,horizontal,horizontal,vertical,horizontal
3b,10,100334,6,17,257,21,M,blocked,constant,homogeneous,4,present,0.565975904464722,1,vertical,vertical,1,3,red,2,1,984.554869889689,415.445130110311,984.554869889689,784.554869889689,984.554869889689,784.554869889689,984.554869889689,415.445130110311,615.445130110311,415.445130110311,615.445130110311,784.554869889689,0,4,0,0,horizontal,vertical,horizontal,vertical
3b,10,100334,6,18,258,21,M,blocked,constant,homogeneous,4,present,0.722311019897461,1,horizontal,horizontal,1,5,red,2,4,984.554869889689,415.445130110311,615.445130110311,784.554869889689,984.554869889689,784.554869889689,984.554869889689,415.445130110311,615.445130110311,415.445130110311,615.445130110311,784.554869889689,0,4,0,0,vertical,horizontal,vertical,horizontal
3b,10,100334,6,19,259,21,M,blocked,constant,homogeneous,4,absent,0.670858144760132,1,horizontal,horizontal,1,5,red,4,NaN,615.445130110311,784.554869889689,NaN,NaN,984.554869889689,784.554869889689,984.554869889689,415.445130110311,615.445130110311,415.445130110311,615.445130110311,784.554869889689,0,0,0,4,horizontal,vertical,vertical,horizontal
3b,10,100334,6,20,260,21,M,blocked,constant,homogeneous,4,present,0.915284156799316,1,horizontal,horizontal,1,8,red,3,4,615.445130110311,415.445130110311,615.445130110311,784.554869889689,984.554869889689,784.554869889689,984.554869889689,415.445130110311,615.445130110311,415.445130110311,615.445130110311,784.554869889689,0,0,4,0,vertical,vertical,horizontal,vertical
3b,10,100334,6,21,261,21,M,blocked,constant,homogeneous,4,present,0.583654165267944,1,horizontal,horizontal,1,2,red,3,1,615.445130110311,415.445130110311,984.554869889689,784.554869889689,984.554869889689,784.554869889689,984.554869889689,415.445130110311,615.445130110311,415.445130110311,615.445130110311,784.554869889689,0,0,4,0,vertical,horizontal,horizontal,horizontal
3b,10,100334,6,22,262,21,M,blocked,constant,homogeneous,4,absent,0.659900903701782,1,horizontal,horizontal,1,5,red,4,NaN,615.445130110311,784.554869889689,NaN,NaN,984.554869889689,784.554869889689,984.554869889689,415.445130110311,615.445130110311,415.445130110311,615.445130110311,784.554869889689,0,0,0,4,horizontal,horizontal,horizontal,horizontal
3b,10,100334,6,23,263,21,M,blocked,constant,homogeneous,4,present,0.840358018875122,1,vertical,vertical,1,2,red,3,2,615.445130110311,415.445130110311,984.554869889689,415.445130110311,984.554869889689,784.554869889689,984.554869889689,415.445130110311,615.445130110311,415.445130110311,615.445130110311,784.554869889689,0,0,4,0,horizontal,horizontal,vertical,horizontal
3b,10,100334,6,24,264,21,M,blocked,constant,homogeneous,4,absent,0.700660943984985,1,vertical,vertical,1,2,red,1,NaN,984.554869889689,784.554869889689,NaN,NaN,984.554869889689,784.554869889689,984.554869889689,415.445130110311,615.445130110311,415.445130110311,615.445130110311,784.554869889689,4,0,0,0,vertical,vertical,horizontal,vertical
3b,10,100334,6,25,265,21,M,blocked,constant,homogeneous,4,present,0.592664003372192,1,vertical,vertical,1,2,red,2,1,984.554869889689,415.445130110311,984.554869889689,784.554869889689,984.554869889689,784.554869889689,984.554869889689,415.445130110311,615.445130110311,415.445130110311,615.445130110311,784.554869889689,0,4,0,0,vertical,vertical,horizontal,horizontal
3b,10,100334,6,26,266,21,M,blocked,constant,homogeneous,4,present,0.67736291885376,1,vertical,vertical,1,8,red,3,4,615.445130110311,415.445130110311,615.445130110311,784.554869889689,984.554869889689,784.554869889689,984.554869889689,415.445130110311,615.445130110311,415.445130110311,615.445130110311,784.554869889689,0,0,4,0,vertical,vertical,vertical,vertical
3b,10,100334,6,27,267,21,M,blocked,constant,homogeneous,4,present,0.497771024703979,1,vertical,vertical,1,5,red,1,2,984.554869889689,784.554869889689,984.554869889689,415.445130110311,984.554869889689,784.554869889689,984.554869889689,415.445130110311,615.445130110311,415.445130110311,615.445130110311,784.554869889689,4,0,0,0,vertical,vertical,vertical,vertical
3b,10,100334,6,28,268,21,M,blocked,constant,homogeneous,4,present,0.542314052581787,1,horizontal,horizontal,1,3,red,3,1,615.445130110311,415.445130110311,984.554869889689,784.554869889689,984.554869889689,784.554869889689,984.554869889689,415.445130110311,615.445130110311,415.445130110311,615.445130110311,784.554869889689,0,0,4,0,vertical,vertical,horizontal,horizontal
3b,10,100334,6,29,269,21,M,blocked,constant,homogeneous,4,absent,0.618622064590454,0,horizontal,vertical,1,3,red,3,NaN,615.445130110311,415.445130110311,NaN,NaN,984.554869889689,784.554869889689,984.554869889689,415.445130110311,615.445130110311,415.445130110311,615.445130110311,784.554869889689,0,0,4,0,horizontal,vertical,horizontal,vertical
3b,10,100334,6,30,270,21,M,blocked,constant,homogeneous,4,present,0.711081981658936,1,horizontal,horizontal,1,5,red,4,3,615.445130110311,784.554869889689,615.445130110311,415.445130110311,984.554869889689,784.554869889689,984.554869889689,415.445130110311,615.445130110311,415.445130110311,615.445130110311,784.554869889689,0,0,0,4,horizontal,horizontal,horizontal,horizontal
3b,10,100334,6,31,271,21,M,blocked,constant,homogeneous,4,absent,0.803240060806274,1,vertical,vertical,1,3,red,3,NaN,615.445130110311,415.445130110311,NaN,NaN,984.554869889689,784.554869889689,984.554869889689,415.445130110311,615.445130110311,415.445130110311,615.445130110311,784.554869889689,0,0,4,0,horizontal,vertical,vertical,horizontal
3b,10,100334,6,32,272,21,M,blocked,constant,homogeneous,4,present,1.23187613487244,1,horizontal,horizontal,1,5,red,1,2,984.554869889689,784.554869889689,984.554869889689,415.445130110311,984.554869889689,784.554869889689,984.554869889689,415.445130110311,615.445130110311,415.445130110311,615.445130110311,784.554869889689,4,0,0,0,horizontal,vertical,vertical,vertical
3b,10,100334,6,33,273,21,M,blocked,constant,homogeneous,4,present,0.59598183631897,1,vertical,vertical,1,2,red,1,3,984.554869889689,784.554869889689,615.445130110311,415.445130110311,984.554869889689,784.554869889689,984.554869889689,415.445130110311,615.445130110311,415.445130110311,615.445130110311,784.554869889689,4,0,0,0,vertical,vertical,horizontal,vertical
3b,10,100334,6,34,274,21,M,blocked,constant,homogeneous,4,absent,0.648654937744141,1,horizontal,horizontal,1,2,red,1,NaN,984.554869889689,784.554869889689,NaN,NaN,984.554869889689,784.554869889689,984.554869889689,415.445130110311,615.445130110311,415.445130110311,615.445130110311,784.554869889689,4,0,0,0,horizontal,vertical,vertical,vertical
3b,10,100334,6,35,275,21,M,blocked,constant,homogeneous,4,present,0.628618955612183,1,vertical,vertical,1,5,red,3,2,615.445130110311,415.445130110311,984.554869889689,415.445130110311,984.554869889689,784.554869889689,984.554869889689,415.445130110311,615.445130110311,415.445130110311,615.445130110311,784.554869889689,0,0,4,0,horizontal,horizontal,vertical,vertical
