experiment,subject,uniqueID,block,trial,trial_cumulative,age,gender,color_cond_blocking,color_history,shape_type,set_size,distractor,rt,acc,target_orient,response_key,response_made,iti,target_color,target_item,distractor_item,target_X,target_Y,distractor_X,distractor_Y,item1_X,item1_Y,item2_X,item2_Y,item3_X,item3_Y,item4_X,item4_Y,item1_shape,item2_shape,item3_shape,item4_shape,item1_line,item2_line,item3_line,item4_line
3b,11,100336,1,1,1,20,F,blocked,variable,homogeneous,4,absent,1.07334899902344,1,horizontal,horizontal,1,2,green,1,NaN,984.554869889689,784.554869889689,NaN,NaN,984.554869889689,784.554869889689,984.554869889689,415.445130110311,615.445130110311,415.445130110311,615.445130110311,784.554869889689,4,0,0,0,horizontal,horizontal,horizontal,vertical
3b,11,100336,1,2,2,20,F,blocked,variable,homogeneous,4,present,1.81310415267944,1,vertical,vertical,1,2,red,3,1,615.445130110311,415.445130110311,984.554869889689,784.554869889689,984.554869889689,784.554869889689,984.554869889689,415.445130110311,615.445130110311,415.445130110311,615.445130110311,784.554869889689,0,0,4,0,horizontal,vertical,vertical,horizontal
3b,11,100336,1,3,3,20,F,blocked,variable,homogeneous,4,absent,0.889614105224609,1,horizontal,horizontal,1,2,red,3,NaN,615.445130110311,415.445130110311,NaN,NaN,984.554869889689,784.554869889689,984.554869889689,415.445130110311,615.445130110311,415.445130110311,615.445130110311,784.554869889689,0,0,4,0,horizontal,vertical,horizontal,horizontal
3b,11,100336,1,4,4,20,F,blocked,variable,homogeneous,4,absent,1.11758995056152,1,vertical,vertical,1,2,red,1,NaN,984.554869889689,784.554869889689,NaN,NaN,984.554869889689,784.554869889689,984.554869889689,415.445130110311,615.445130110311,415.445130110311,615.445130110311,784.554869889689,4,0,0,0,vertical,horizontal,vertical,vertical
3b,11,100336,1,5,5,20,F,blocked,variable,homogeneous,4,present,1.58600401878357,1,horizontal,horizontal,1,2,red,4,3,615.445130110311,784.554869889689,615.445130110311,415.445130110311,984.554869889689,784.554869889689,984.554869889689,415.445130110311,615.445130110311,415.445130110311,615.445130110311,784.554869889689,0,0,0,4,vertical,vertical,vertical,horizontal
3b,11,100336,1,6,6,20,F,blocked,variable,homogeneous,4,absent,1.49438285827637,1,horizontal,horizontal,1,2,red,2,NaN,984.554869889689,415.445130110311,NaN,NaN,984.554869889689,784.554869889689,984.554869889689,415.445130110311,615.445130110311,415.445130110311,615.445130110311,784.554869889689,0,4,0,0,horizontal,horizontal,horizontal,horizontal
3b,11,100336,1,7,7,20,F,blocked,variable,homogeneous,4,present,0.954727172851562,1,horizontal,horizontal,1,2,green,4,1,615.445130110311,784.554869889689,984.554869889689,784.554869889689,984.554869889689,784.554869889689,984.554869889689,415.445130110311,615.445130110311,415.445130110311,615.445130110311,784.554869889689,0,0,0,4,horizontal,horizontal,vertical,horizontal
3b,11,100336,1,8,8,20,F,blocked,variable,homogeneous,4,present,0.927097082138062,1,horizontal,horizontal,1,2,red,2,3,984.554869889689,415.445130110311,615.445130110311,415.445130110311,984.554869889689,784.554869889689,984.554869889689,415.445130110311,615.445130110311,415.445130110311,615.445130110311,784.554869889689,0,4,0,0,vertical,horizontal,horizontal,horizontal
3b,11,100336,1,9,9,20,F,blocked,variable,homogeneous,4,absent,0.80332088470459,1,horizontal,horizontal,1,2,green,4,NaN,615.445130110311,784.554869889689,NaN,NaN,984.554869889689,784.554869889689,984.554869889689,415.445130110311,615.445130110311,415.445130110311,615.445130110311,784.554869889689,0,0,0,4,horizontal,horizontal,horizontal,horizontal
3b,11,100336,1,10,10,20,F,blocked,variable,homogeneous,4,present,0.775783061981201,1,vertical,vertical,1,2,red,1,2,984.554869889689,784.554869889689,984.554869889689,415.445130110311,984.554869889689,784.554869889689,984.554869889689,415.445130110311,615.445130110311,415.445130110311,615.445130110311,784.554869889689,4,0,0,0,vertical,horizontal,horizontal,horizontal
3b,11,100336,1,11,11,20,F,blocked,variable,homogeneous,4,absent,0.540062189102173,1,horizontal,horizontal,1,2,green,4,NaN,615.445130110311,784.554869889689,NaN,NaN,984.554869889689,784.554869889689,984.554869889689,415.445130110311,615.445130110311,415.445130110311,615.445130110311,784.554869889689,0,0,0,4,vertical,vertical,horizontal,horizontal
3b,11,100336,1,12,12,20,F,blocked,variable,homogeneous,4,absent,0.784087181091309,0,vertical,horizontal,1,2,red,3,NaN,615.445130110311,415.445130110311,NaN,NaN,984.554869889689,784.554869889689,984.554869889689,415.445130110311,615.445130110311,415.445130110311,615.445130110311,784.554869889689,0,0,4,0,horizontal,vertical,vertical,horizontal
3b,11,100336,1,13,13,20,F,blocked,variable,homogeneous,4,present,0.964631080627441,1,horizontal,horizontal,1,2,green,4,1,615.445130110311,784.554869889689,984.554869889689,784.554869889689,984.554869889689,784.554869889689,984.554869889689,415.445130110311,615.445130110311,415.445130110311,615.445130110311,784.554869889689,0,0,0,4,vertical,horizontal,vertical,horizontal
3b,11,100336,1,14,14,20,F,blocked,variable,homogeneous,4,present,0.808804988861084,1,vertical,vertical,1,2,green,3,1,615.445130110311,415.445130110311,984.554869889689,784.554869889689,984.554869889689,784.554869889689,984.554869889689,415.445130110311,615.445130110311,415.445130110311,615.445130110311,784.554869889689,0,0,4,0,vertical,vertical,vertical,vertical
3b,11,100336,1,15,15,20,F,blocked,variable,homogeneous,4,present,0.749078989028931,1,vertical,vertical,1,2,red,2,3,984.554869889689,415.445130110311,615.445130110311,415.445130110311,984.554869889689,784.554869889689,984.554869889689,415.445130110311,615.445130110311,415.445130110311,615.445130110311,784.554869889689,0,4,0,0,vertical,vertical,vertical,vertical
3b,11,100336,1,16,16,20,F,blocked,variable,homogeneous,4,present,0.49708890914917,1,horizontal,horizontal,1,2,red,4,3,615.445130110311,784.554869889689,615.445130110311,415.445130110311,984.554869889689,784.554869889689,984.554869889689,415.445130110311,615.445130110311,415.445130110311,615.445130110311,784.554869889689,0,0,0,4,vertical,vertical,horizontal,horizontal
3b,11,100336,1,17,17,20,F,blocked,variable,homogeneous,4,absent,0.965636014938354,0,horizontal,vertical,1,2,red,1,NaN,984.554869889689,784.554869889689,NaN,NaN,984.554869889689,784.554869889689,984.554869889689,415.445130110311,615.445130110311,415.445130110311,615.445130110311,784.554869889689,4,0,0,0,horizontal,vertical,horizontal,horizontal
3b,11,100336,1,18,18,20,F,blocked,variable,homogeneous,4,present,0.953865051269531,1,vertical,vertical,1,2,green,2,4,984.554869889689,415.445130110311,615.445130110311,784.554869889689,984.554869889689,784.554869889689,984.554869889689,415.445130110311,615.445130110311,415.445130110311,615.445130110311,784.554869889689,0,4,0,0,horizontal,vertical,horizontal,horizontal
3b,11,100336,1,19,19,20,F,blocked,variable,homogeneous,4,absent,0.814060211181641,1,horizontal,horizontal,1,2,red,3,NaN,615.445130110311,415.445130110311,NaN,NaN,984.554869889689,784.554869889689,984.554869889689,415.445130110311,615.445130110311,415.445130110311,615.445130110311,784.554869889689,0,0,4,0,vertical,horizontal,horizontal,horizontal
3b,11,100336,1,20,20,20,F,blocked,variable,homogeneous,4,present,0.706422805786133,1,horizontal,horizontal,1,2,red,3,2,615.445130110311,415.445130110311,984.554869889689,415.445130110311,984.554869889689,784.554869889689,984.554869889689,415.445130110311,615.445130110311,415.445130110311,615.445130110311,784.554869889689,0,0,4,0,horizontal,vertical,horizontal,vertical
3b,11,100336,1,21,21,20,F,blocked,variable,homogeneous,4,present,0.854672908782959,1,vertical,vertical,1,2,green,1,2,984.554869889689,784.554869889689,984.554869889689,415.445130110311,984.554869889689,784.554869889689,984.554869889689,415.445130110311,615.445130110311,415.445130110311,615.445130110311,784.554869889689,4,0,0,0,vertical,vertical,horizontal,vertical
3b,11,100336,1,22,22,20,F,blocked,variable,homogeneous,4,present,1.08312487602234,1,vertical,vertical,1,2,green,4,1,615.445130110311,784.554869889689,984.554869889689,784.554869889689,984.554869889689,784.554869889689,984.554869889689,415.445130110311,615.445130110311,415.445130110311,615.445130110311,784.554869889689,0,0,0,4,horizontal,horizontal,horizontal,vertical
3b,11,100336,1,23,23,20,F,blocked,variable,homogeneous,4,present,1.42367696762085,1,vertical,vertical,1,2,green,3,4,615.445130110311,415.445130110311,615.445130110311,784.554869889689,984.554869889689,784.554869889689,984.554869889689,415.445130110311,615.445130110311,415.445130110311,615.445130110311,784.554869889689,0,0,4,0,vertical,vertical,vertical,horizontal
3b,11,100336,1,24,24,20,F,blocked,variable,homogeneous,4,present,0.80380392074585,1,horizontal,horizontal,1,2,green,2,3,984.554869889689,415.445130110311,615.445130110311,415.445130110311,984.554869889689,784.554869889689,984.554869889689,415.445130110311,615.445130110311,415.445130110311,615.445130110311,784.554869889689,0,4,0,0,vertical,horizontal,vertical,horizontal
3b,11,100336,1,25,25,20,F,blocked,variable,homogeneous,4,present,0.77615213394165,1,horizontal,horizontal,1,2,green,3,4,615.445130110311,415.445130110311,615.445130110311,784.554869889689,984.554869889689,784.554869889689,984.554869889689,415.445130110311,615.445130110311,415.445130110311,615.445130110311,784.554869889689,0,0,4,0,vertical,horizontal,horizontal,horizontal
3b,11,100336,1,26,26,20,F,blocked,variable,homogeneous,4,present,1.22821688652039,1,horizontal,horizontal,1,2,green,4,2,615.445130110311,784.554869889689,984.554869889689,415.445130110311,984.554869889689,784.554869889689,984.554869889689,415.445130110311,615.445130110311,415.445130110311,615.445130110311,784.554869889689,0,0,0,4,vertical,horizontal,vertical,horizontal
3b,11,100336,1,27,27,20,F,blocked,variable,homogeneous,4,present,1.05644392967224,1,horizontal,horizontal,1,2,red,4,3,615.445130110311,784.554869889689,615.445130110311,415.445130110311,984.554869889689,784.554869889689,984.554869889689,415.445130110311,615.445130110311,415.445130110311,615.445130110311,784.554869889689,0,0,0,4,horizontal,vertical,horizontal,horizontal
3b,11,100336,1,28,28,20,F,blocked,variable,homogeneous,4,absent,0.788856029510498,1,vertical,vertical,1,2,red,2,NaN,984.554869889689,415.445130110311,NaN,NaN,984.554869889689,784.554869889689,984.554869889689,415.445130110311,615.445130110311,415.445130110311,615.445130110311,784.554869889689,0,4,0,0,vertical,vertical,vertical,vertical
3b,11,100336,1,29,29,20,F,blocked,variable,homogeneous,4,present,0.617449998855591,1,vertical,vertical,1,2,green,1,4,984.554869889689,784.554869889689,615.445130110311,784.554869889689,984.554869889689,784.554869889689,984.554869889689,415.445130110311,615.445130110311,415.445130110311,615.445130110311,784.554869889689,4,0,0,0,vertical,horizontal,vertical,horizontal
3b,11,100336,1,30,30,20,F,blocked,variable,homogeneous,4,present,0.701892137527466,1,vertical,vertical,1,2,red,4,3,615.445130110311,784.554869889689,615.445130110311,415.445130110311,984.554869889689,784.554869889689,984.554869889689,415.445130110311,615.445130110311,415.445130110311,615.445130110311,784.554869889689,0,0,0,4,horizontal,horizontal,vertical,vertical
3b,11,100336,1,31,31,20,F,blocked,variable,homogeneous,4,absent,0.83399486541748,1,vertical,vertical,1,2,green,2,NaN,984.554869889689,415.445130110311,NaN,NaN,984.554869889689,784.554869889689,984.554869889689,415.445130110311,615.445130110311,415.445130110311,615.445130110311,784.554869889689,0,4,0,0,vertical,vertical,vertical,vertical
3b,11,100336,1,32,32,20,F,blocked,variable,homogeneous,4,present,1.03027391433716,1,horizontal,horizontal,1,2,green,2,3,984.554869889689,415.445130110311,615.445130110311,415.445130110311,984.554869889689,784.554869889689,984.554869889689,415.445130110311,615.445130110311,415.445130110311,615.445130110311,784.554869889689,0,4,0,0,vertical,horizontal,vertical,horizontal
3b,11,100336,1,33,33,20,F,blocked,variable,homogeneous,4,present,1.06622195243835,0,vertical,horizontal,1,2,red,4,2,615.445130110311,784.554869889689,984.554869889689,415.445130110311,984.554869889689,784.554869889689,984.554869889689,415.445130110311,615.445130110311,415.445130110311,615.445130110311,784.554869889689,0,0,0,4,horizontal,horizontal,vertical,vertical
3b,11,100336,1,34,34,20,F,blocked,variable,homogeneous,4,absent,0.750600099563599,1,vertical,vertical,1,2,red,4,NaN,615.445130110311,784.554869889689,NaN,NaN,984.554869889689,784.554869889689,984.554869889689,415.445130110311,615.445130110311,415.445130110311,615.445130110311,784.554869889689,0,0,0,4,horizontal,horizontal,vertical,vertical
3b,11,100336,1,35,35,20,F,blocked,variable,homogeneous,4,present,1.52287602424622,1,vertical,vertical,1,2,green,3,4,615.445130110311,415.445130110311,615.445130110311,784.554869889689,984.554869889689,784.554869889689,984.554869889689,415.445130110311,615.445130110311,415.445130110311,615.445130110311,784.554869889689,0,0,4,0,horizontal,vertical,vertical,horizontal
3b,11,100336,1,36,36,20,F,blocked,variable,homogeneous,4,present,1.27124404907227,1,horizontal,horizontal,1,2,red,3,4,615.445130110311,415.445130110311,615.445130110311,784.554869889689,984.554869889689,784.554869889689,984.554869889689,415.445130110311,615.445130110311,415.445130110311,615.445130110311,784.554869889689,0,0,4,0,horizontal,vertical,horizontal,horizontal
3b,11,100336,1,37,37,20,F,blocked,variable,homogeneous,4,present,1.41989684104919,1,vertical,vertical,1,2,green,4,3,615.445130110311,784.554869889689,615.445130110311,415.445130110311,984.554869889689,784.554869889689,984.554869889689,415.445130110311,615.445130110311,415.445130110311,615.445130110311,784.554869889689,0,0,0,4,horizontal,horizontal,horizontal,vertical
3b,11,100336,1,38,38,20,F,blocked,variable,homogeneous,4,present,0.624148845672607,1,vertical,vertical,1,2,green,4,3,615.445130110311,784.554869889689,615.445130110311,415.445130110311,984.554869889689,784.554869889689,984.554869889689,415.445130110311,615.445130110311,415.445130110311,615.445130110311,784.554869889689,0,0,0,4,vertical,horizontal,horizontal,vertical
3b,11,100336,1,39,39,20,F,blocked,variable,homogeneous,4,absent,1.01220917701721,1,horizontal,horizontal,1,2,red,1,NaN,984.554869889689,784.554869889689,NaN,NaN,984.554869889689,784.554869889689,984.554869889689,415.445130110311,615.445130110311,415.445130110311,615.445130110311,784.554869889689,4,0,0,0,horizontal,horizontal,horizontal,vertical
3b,11,100336,1,40,40,20,F,blocked,variable,homogeneous,4,absent,0.616840124130249,1,vertical,vertical,1,2,green,2,NaN,984.554869889689,415.445130110311,NaN,NaN,984.554869889689,784.554869889689,984.554869889689,415.445130110311,615.445130110311,415.445130110311,615.445130110311,784.554869889689,0,4,0,0,horizontal,vertical,horizontal,vertical
3b,11,100336,1,41,41,20,F,blocked,variable,homogeneous,4,absent,0.924845933914185,1,vertical,vertical,1,2,red,3,NaN,615.445130110311,415.445130110311,NaN,NaN,984.554869889689,784.554869889689,984.554869889689,415.445130110311,615.445130110311,415.445130110311,615.445130110311,784.554869889689,0,0,4,0,vertical,vertical,vertical,vertical
3b,11,100336,1,42,42,20,F,blocked,variable,homogeneous,4,present,0.753216981887817,1,horizontal,horizontal,1,2,red,1,2,984.554869889689,784.554869889689,984.554869889689,415.445130110311,984.554869889689,784.554869889689,984.554869889689,415.445130110311,615.445130110311,415.445130110311,615.445130110311,784.554869889689,4,0,0,0,horizontal,vertical,vertical,horizontal
3b,11,100336,1,43,43,20,F,blocked,variable,homogeneous,4,absent,0.917234897613525,1,vertical,vertical,1,2,red,4,NaN,615.445130110311,784.554869889689,NaN,NaN,984.554869889689,784.554869889689,984.554869889689,415.445130110311,615.445130110311,415.445130110311,615.445130110311,784.554869889689,0,0,0,4,horizontal,horizontal,horizontal,vertical
3b,11,100336,1,44,44,20,F,blocked,variable,homogeneous,4,present,1.08149290084839,1,vertical,vertical,1,2,red,3,4,615.445130110311,415.445130110311,615.445130110311,784.554869889689,984.554869889689,784.554869889689,984.554869889689,415.445130110311,615.445130110311,415.445130110311,615.445130110311,784.554869889689,0,0,4,0,vertical,vertical,vertical,horizontal
3b,11,100336,1,45,45,20,F,blocked,variable,homogeneous,4,present,0.702234983444214,1,horizontal,horizontal,1,2,green,3,4,615.445130110311,415.445130110311,615.445130110311,784.554869889689,984.554869889689,784.554869889689,984.554869889689,415.445130110311,615.445130110311,415.445130110311,615.445130110311,784.554869889689,0,0,4,0,horizontal,horizontal,horizontal,vertical
3b,11,100336,1,46,46,20,F,blocked,variable,homogeneous,4,present,0.626255989074707,1,vertical,vertical,1,2,red,4,2,615.445130110311,784.554869889689,984.554869889689,415.445130110311,984.554869889689,784.554869889689,984.554869889689,415.445130110311,615.445130110311,415.445130110311,615.445130110311,784.554869889689,0,0,0,4,vertical,vertical,vertical,vertical
3b,11,100336,1,47,47,20,F,blocked,variable,homogeneous,4,present,0.886492967605591,1,horizontal,horizontal,1,2,green,2,3,984.554869889689,415.445130110311,615.445130110311,415.445130110311,984.554869889689,784.554869889689,984.554869889689,415.445130110311,615.445130110311,415.445130110311,615.445130110311,784.554869889689,0,4,0,0,vertical,horizontal,vertical,horizontal
3b,11,100336,1,48,48,20,F,blocked,variable,homogeneous,4,present,1.25884103775024,1,horizontal,horizontal,1,2,red,2,3,984.554869889689,415.445130110311,615.445130110311,415.445130110311,984.554869889689,784.554869889689,984.554869889689,415.445130110311,615.445130110311,415.445130110311,615.445130110311,784.554869889689,0,4,0,0,vertical,horizontal,vertical,horizontal
3b,11,100336,2,1,49,20,F,blocked,variable,homogeneous,4,present,0.979433059692383,1,horizontal,horizontal,1,2,red,1,4,984.554869889689,784.554869889689,615.445130110311,784.554869889689,984.554869889689,784.554869889689,984.554869889689,415.445130110311,615.445130110311,415.445130110311,615.445130110311,784.554869889689,4,0,0,0,horizontal,vertical,horizontal,horizontal
3b,11,100336,2,2,50,20,F,blocked,variable,homogeneous,4,present,0.839829206466675,1,vertical,vertical,1,2,red,4,1,615.445130110311,784.554869889689,984.554869889689,784.554869889689,984.554869889689,784.554869889689,984.554869889689,415.445130110311,615.445130110311,415.445130110311,615.445130110311,784.554869889689,0,0,0,4,vertical,vertical,vertical,vertical
3b,11,100336,2,3,51,20,F,blocked,variable,homogeneous,4,absent,0.57217001914978,1,vertical,vertical,1,2,red,1,NaN,984.554869889689,784.554869889689,NaN,NaN,984.554869889689,784.554869889689,984.554869889689,415.445130110311,615.445130110311,415.445130110311,615.445130110311,784.554869889689,4,0,0,0,vertical,vertical,horizontal,horizontal
3b,11,100336,2,4,52,20,F,blocked,variable,homogeneous,4,present,0.51227593421936,1,horizontal,horizontal,1,2,green,2,4,984.554869889689,415.445130110311,615.445130110311,784.554869889689,984.554869889689,784.554869889689,984.554869889689,415.445130110311,615.445130110311,415.445130110311,615.445130110311,784.554869889689,0,4,0,0,horizontal,horizontal,vertical,vertical
3b,11,100336,2,5,53,20,F,blocked,variable,homogeneous,4,absent,0.548697948455811,1,horizontal,horizontal,1,2,green,4,NaN,615.445130110311,784.554869889689,NaN,NaN,984.554869889689,784.554869889689,984.554869889689,415.445130110311,615.445130110311,415.445130110311,615.445130110311,784.554869889689,0,0,0,4,vertical,horizontal,vertical,horizontal
3b,11,100336,2,6,54,20,F,blocked,variable,homogeneous,4,present,0.968873977661133,1,horizontal,horizontal,1,2,red,3,4,615.445130110311,415.445130110311,615.445130110311,784.554869889689,984.554869889689,784.554869889689,984.554869889689,415.445130110311,615.445130110311,415.445130110311,615.445130110311,784.554869889689,0,0,4,0,vertical,vertical,horizontal,horizontal
3b,11,100336,2,7,55,20,F,blocked,variable,homogeneous,4,present,0.669568061828613,1,vertical,vertical,1,2,green,4,2,615.445130110311,784.554869889689,984.554869889689,415.445130110311,984.554869889689,784.554869889689,984.554869889689,415.445130110311,615.445130110311,415.445130110311,615.445130110311,784.554869889689,0,0,0,4,horizontal,vertical,horizontal,vertical
3b,11,100336,2,8,56,20,F,blocked,variable,homogeneous,4,present,0.769686937332153,1,vertical,vertical,1,2,green,3,1,615.445130110311,415.445130110311,984.554869889689,784.554869889689,984.554869889689,784.554869889689,984.554869889689,415.445130110311,615.445130110311,415.445130110311,615.445130110311,784.554869889689,0,0,4,0,vertical,horizontal,vertical,horizontal
3b,11,100336,2,9,57,20,F,blocked,variable,homogeneous,4,present,0.549805879592896,1,horizontal,horizontal,1,2,red,1,2,984.554869889689,784.554869889689,984.554869889689,415.445130110311,984.554869889689,784.554869889689,984.554869889689,415.445130110311,615.445130110311,415.445130110311,615.445130110311,784.554869889689,4,0,0,0,horizontal,vertical,vertical,horizontal
3b,11,100336,2,10,58,20,F,blocked,variable,homogeneous,4,present,0.602378129959106,1,vertical,vertical,1,2,green,4,1,615.445130110311,784.554869889689,984.554869889689,784.554869889689,984.554869889689,784.554869889689,984.554869889689,415.445130110311,615.445130110311,415.445130110311,615.445130110311,784.554869889689,0,0,0,4,vertical,horizontal,vertical,vertical
3b,11,100336,2,11,59,20,F,blocked,variable,homogeneous,4,present,0.526527166366577,1,horizontal,horizontal,1,2,red,1,3,984.554869889689,784.554869889689,615.445130110311,415.445130110311,984.554869889689,784.554869889689,984.554869889689,415.445130110311,615.445130110311,415.445130110311,615.445130110311,784.554869889689,4,0,0,0,horizontal,vertical,horizontal,horizontal
3b,11,100336,2,12,60,20,F,blocked,variable,homogeneous,4,present,0.595134019851685,1,horizontal,horizontal,1,2,red,1,4,984.554869889689,784.554869889689,615.445130110311,784.554869889689,984.554869889689,784.554869889689,984.554869889689,415.445130110311,615.445130110311,415.445130110311,615.445130110311,784.554869889689,4,0,0,0,horizontal,vertical,vertical,vertical
3b,11,100336,2,13,61,20,F,blocked,variable,homogeneous,4,present,0.583245038986206,1,vertical,vertical,1,2,red,1,2,984.554869889689,784.554869889689,984.554869889689,415.445130110311,984.554869889689,784.554869889689,984.554869889689,415.445130110311,615.445130110311,415.445130110311,615.445130110311,784.554869889689,4,0,0,0,vertical,horizontal,vertical,horizontal
3b,11,100336,2,14,62,20,F,blocked,variable,homogeneous,4,present,0.63542103767395,1,vertical,vertical,1,2,red,1,4,984.554869889689,784.554869889689,615.445130110311,784.554869889689,984.554869889689,784.554869889689,984.554869889689,415.445130110311,615.445130110311,415.445130110311,615.445130110311,784.554869889689,4,0,0,0,vertical,horizontal,horizontal,vertical
3b,11,100336,2,15,63,20,F,blocked,variable,homogeneous,4,absent,0.607717037200928,1,vertical,vertical,1,2,green,1,NaN,984.554869889689,784.554869889689,NaN,NaN,984.554869889689,784.554869889689,984.554869889689,415.445130110311,615.445130110311,415.445130110311,615.445130110311,784.554869889689,4,0,0,0,vertical,vertical,vertical,horizontal
3b,11,100336,2,16,64,20,F,blocked,variable,homogeneous,4,absent,1.10802006721497,1,vertical,vertical,1,2,green,3,NaN,615.445130110311,415.445130110311,NaN,NaN,984.554869889689,784.554869889689,984.554869889689,415.445130110311,615.445130110311,415.445130110311,615.445130110311,784.554869889689,0,0,4,0,horizontal,horizontal,vertical,vertical
3b,11,100336,2,17,65,20,F,blocked,variable,homogeneous,4,absent,0.584359884262085,1,horizontal,horizontal,1,2,green,3,NaN,615.445130110311,415.445130110311,NaN,NaN,984.554869889689,784.554869889689,984.554869889689,415.445130110311,615.445130110311,415.445130110311,615.445130110311,784.554869889689,0,0,4,0,horizontal,vertical,horizontal,horizontal
3b,11,100336,2,18,66,20,F,blocked,variable,homogeneous,4,present,0.828840017318726,1,horizontal,horizontal,1,2,red,2,4,984.554869889689,415.445130110311,615.445130110311,784.554869889689,984.554869889689,784.554869889689,984.554869889689,415.445130110311,615.445130110311,415.445130110311,615.445130110311,784.554869889689,0,4,0,0,horizontal,horizontal,vertical,horizontal
3b,11,100336,2,19,67,20,F,blocked,variable,homogeneous,4,absent,0.529014110565186,1,horizontal,horizontal,1,2,green,2,NaN,984.554869889689,415.445130110311,NaN,NaN,984.554869889689,784.554869889689,984.554869889689,415.445130110311,615.445130110311,415.445130110311,615.445130110311,784.554869889689,0,4,0,0,horizontal,horizontal,vertical,vertical
3b,11,100336,2,20,68,20,F,blocked,variable,homogeneous,4,present,0.565319061279297,1,vertical,vertical,1,2,green,2,4,984.554869889689,415.445130110311,615.445130110311,784.554869889689,984.554869889689,784.554869889689,984.554869889689,415.445130110311,615.445130110311,415.445130110311,615.445130110311,784.554869889689,0,4,0,0,vertical,vertical,horizontal,horizontal
3b,11,100336,2,21,69,20,F,blocked,variable,homogeneous,4,absent,0.889525175094604,1,horizontal,horizontal,1,2,green,4,NaN,615.445130110311,784.554869889689,NaN,NaN,984.554869889689,784.554869889689,984.554869889689,415.445130110311,615.445130110311,415.445130110311,615.445130110311,784.554869889689,0,0,0,4,horizontal,horizontal,vertical,horizontal
3b,11,100336,2,22,70,20,F,blocked,variable,homogeneous,4,present,0.541750907897949,1,vertical,vertical,1,2,red,2,3,984.554869889689,415.445130110311,615.445130110311,415.445130110311,984.554869889689,784.554869889689,984.554869889689,415.445130110311,615.445130110311,415.445130110311,615.445130110311,784.554869889689,0,4,0,0,horizontal,vertical,vertical,vertical
3b,11,100336,2,23,71,20,F,blocked,variable,homogeneous,4,absent,0.690363883972168,1,horizontal,horizontal,1,2,red,2,NaN,984.554869889689,415.445130110311,NaN,NaN,984.554869889689,784.554869889689,984.554869889689,415.445130110311,615.445130110311,415.445130110311,615.445130110311,784.554869889689,0,4,0,0,horizontal,horizontal,vertical,horizontal
3b,11,100336,2,24,72,20,F,blocked,variable,homogeneous,4,present,0.694435119628906,1,vertical,vertical,1,2,red,2,1,984.554869889689,415.445130110311,984.554869889689,784.554869889689,984.554869889689,784.554869889689,984.554869889689,415.445130110311,615.445130110311,415.445130110311,615.445130110311,784.554869889689,0,4,0,0,vertical,vertical,vertical,horizontal
3b,11,100336,2,25,73,20,F,blocked,variable,homogeneous,4,present,0.458775997161865,0,vertical,horizontal,1,2,green,2,4,984.554869889689,415.445130110311,615.445130110311,784.554869889689,984.554869889689,784.554869889689,984.554869889689,415.445130110311,615.445130110311,415.445130110311,615.445130110311,784.554869889689,0,4,0,0,horizontal,vertical,horizontal,vertical
3b,11,100336,2,26,74,20,F,blocked,variable,homogeneous,4,present,0.991140127182007,1,horizontal,horizontal,1,2,red,4,3,615.445130110311,784.554869889689,615.445130110311,415.445130110311,984.554869889689,784.554869889689,984.554869889689,415.445130110311,615.445130110311,415.445130110311,615.445130110311,784.554869889689,0,0,0,4,vertical,horizontal,vertical,horizontal
3b,11,100336,2,27,75,20,F,blocked,variable,homogeneous,4,present,0.595177888870239,1,vertical,vertical,1,2,red,4,1,615.445130110311,784.554869889689,984.554869889689,784.554869889689,984.554869889689,784.554869889689,984.554869889689,415.445130110311,615.445130110311,415.445130110311,615.445130110311,784.554869889689,0,0,0,4,horizontal,vertical,horizontal,vertical
3b,11,100336,2,28,76,20,F,blocked,variable,homogeneous,4,present,0.631402015686035,1,horizontal,horizontal,1,2,red,2,1,984.554869889689,415.445130110311,984.554869889689,784.554869889689,984.554869889689,784.554869889689,984.554869889689,415.445130110311,615.445130110311,415.445130110311,615.445130110311,784.554869889689,0,4,0,0,horizontal,horizontal,vertical,vertical
3b,11,100336,2,29,77,20,F,blocked,variable,homogeneous,4,present,0.683947801589966,1,horizontal,horizontal,1,2,red,3,1,615.445130110311,415.445130110311,984.554869889689,784.554869889689,984.554869889689,784.554869889689,984.554869889689,415.445130110311,615.445130110311,415.445130110311,615.445130110311,784.554869889689,0,0,4,0,horizontal,horizontal,horizontal,vertical
3b,11,100336,2,30,78,20,F,blocked,variable,homogeneous,4,present,0.560287952423096,1,vertical,vertical,1,2,red,3,4,615.445130110311,415.445130110311,615.445130110311,784.554869889689,984.554869889689,784.554869889689,984.554869889689,415.445130110311,615.445130110311,415.445130110311,615.445130110311,784.554869889689,0,0,4,0,horizontal,horizontal,vertical,vertical
3b,11,100336,2,31,79,20,F,blocked,variable,homogeneous,4,present,0.708585977554321,1,vertical,vertical,1,2,green,4,1,615.445130110311,784.554869889689,984.554869889689,784.554869889689,984.554869889689,784.554869889689,984.554869889689,415.445130110311,615.445130110311,415.445130110311,615.445130110311,784.554869889689,0,0,0,4,vertical,horizontal,vertical,vertical
3b,11,100336,2,32,80,20,F,blocked,variable,homogeneous,4,present,0.649068117141724,1,vertical,vertical,1,2,red,2,1,984.554869889689,415.445130110311,984.554869889689,784.554869889689,984.554869889689,784.554869889689,984.554869889689,415.445130110311,615.445130110311,415.445130110311,615.445130110311,784.554869889689,0,4,0,0,vertical,vertical,horizontal,vertical
3b,11,100336,2,33,81,20,F,blocked,variable,homogeneous,4,present,0.797172069549561,1,horizontal,horizontal,1,2,green,1,2,984.554869889689,784.554869889689,984.554869889689,415.445130110311,984.554869889689,784.554869889689,984.554869889689,415.445130110311,615.445130110311,415.445130110311,615.445130110311,784.554869889689,4,0,0,0,horizontal,vertical,vertical,horizontal
3b,11,100336,2,34,82,20,F,blocked,variable,homogeneous,4,absent,0.593536853790283,1,vertical,vertical,1,2,green,1,NaN,984.554869889689,784.554869889689,NaN,NaN,984.554869889689,784.554869889689,984.554869889689,415.445130110311,615.445130110311,415.445130110311,615.445130110311,784.554869889689,4,0,0,0,vertical,horizontal,vertical,horizontal
3b,11,100336,2,35,83,20,F,blocked,variable,homogeneous,4,present,0.502136945724487,1,vertical,vertical,1,2,green,1,3,984.554869889689,784.554869889689,615.445130110311,415.445130110311,984.554869889689,784.554869889689,984.554869889689,415.445130110311,615.445130110311,415.445130110311,615.445130110311,784.554869889689,4,0,0,0,vertical,vertical,vertical,vertical
3b,11,100336,2,36,84,20,F,blocked,variable,homogeneous,4,absent,0.66629695892334,1,vertical,vertical,1,2,green,2,NaN,984.554869889689,415.445130110311,NaN,NaN,984.554869889689,784.554869889689,984.554869889689,415.445130110311,615.445130110311,415.445130110311,615.445130110311,784.554869889689,0,4,0,0,vertical,vertical,vertical,vertical
3b,11,100336,2,37,85,20,F,blocked,variable,homogeneous,4,absent,0.590377807617188,1,vertical,vertical,1,2,green,3,NaN,615.445130110311,415.445130110311,NaN,NaN,984.554869889689,784.554869889689,984.554869889689,415.445130110311,615.445130110311,415.445130110311,615.445130110311,784.554869889689,0,0,4,0,horizontal,horizontal,vertical,horizontal
3b,11,100336,2,38,86,20,F,blocked,variable,homogeneous,4,present,0.658971786499023,1,horizontal,horizontal,1,2,green,3,4,615.445130110311,415.445130110311,615.445130110311,784.554869889689,984.554869889689,784.554869889689,984.554869889689,415.445130110311,615.445130110311,415.445130110311,615.445130110311,784.554869889689,0,0,4,0,vertical,horizontal,horizontal,vertical
3b,11,100336,2,39,87,20,F,blocked,variable,homogeneous,4,absent,0.679044008255005,1,horizontal,horizontal,1,2,red,1,NaN,984.554869889689,784.554869889689,NaN,NaN,984.554869889689,784.554869889689,984.554869889689,415.445130110311,615.445130110311,415.445130110311,615.445130110311,784.554869889689,4,0,0,0,horizontal,vertical,vertical,vertical
3b,11,100336,2,40,88,20,F,blocked,variable,homogeneous,4,absent,0.635299921035767,1,horizontal,horizontal,1,2,green,4,NaN,615.445130110311,784.554869889689,NaN,NaN,984.554869889689,784.554869889689,984.554869889689,415.445130110311,615.445130110311,415.445130110311,615.445130110311,784.554869889689,0,0,0,4,horizontal,vertical,vertical,horizontal
3b,11,100336,2,41,89,20,F,blocked,variable,homogeneous,4,absent,0.527688026428223,1,vertical,vertical,1,2,green,2,NaN,984.554869889689,415.445130110311,NaN,NaN,984.554869889689,784.554869889689,984.554869889689,415.445130110311,615.445130110311,415.445130110311,615.445130110311,784.554869889689,0,4,0,0,vertical,vertical,vertical,horizontal
3b,11,100336,2,42,90,20,F,blocked,variable,homogeneous,4,present,0.499852180480957,1,horizontal,horizontal,1,2,green,1,3,984.554869889689,784.554869889689,615.445130110311,415.445130110311,984.554869889689,784.554869889689,984.554869889689,415.445130110311,615.445130110311,415.445130110311,615.445130110311,784.554869889689,4,0,0,0,horizontal,vertical,horizontal,horizontal
3b,11,100336,2,43,91,20,F,blocked,variable,homogeneous,4,present,0.488118171691895,0,horizontal,vertical,1,2,green,3,1,615.445130110311,415.445130110311,984.554869889689,784.554869889689,984.554869889689,784.554869889689,984.554869889689,415.445130110311,615.445130110311,415.445130110311,615.445130110311,784.554869889689,0,0,4,0,vertical,horizontal,horizontal,horizontal
3b,11,100336,2,44,92,20,F,blocked,variable,homogeneous,4,present,1.19642496109009,1,vertical,vertical,1,2,red,3,4,615.445130110311,415.445130110311,615.445130110311,784.554869889689,984.554869889689,784.554869889689,984.554869889689,415.445130110311,615.445130110311,415.445130110311,615.445130110311,784.554869889689,0,0,4,0,vertical,horizontal,vertical,horizontal
3b,11,100336,2,45,93,20,F,blocked,variable,homogeneous,4,present,0.94481897354126,1,horizontal,horizontal,1,2,red,3,1,615.445130110311,415.445130110311,984.554869889689,784.554869889689,984.554869889689,784.554869889689,984.554869889689,415.445130110311,615.445130110311,415.445130110311,615.445130110311,784.554869889689,0,0,4,0,vertical,horizontal,horizontal,vertical
3b,11,100336,2,46,94,20,F,blocked,variable,homogeneous,4,present,0.597087860107422,1,horizontal,horizontal,1,2,red,1,2,984.554869889689,784.554869889689,984.554869889689,415.445130110311,984.554869889689,784.554869889689,984.554869889689,415.445130110311,615.445130110311,415.445130110311,615.445130110311,784.554869889689,4,0,0,0,horizontal,horizontal,vertical,horizontal
3b,11,100336,2,47,95,20,F,blocked,variable,homogeneous,4,absent,0.521562099456787,1,vertical,vertical,1,2,red,1,NaN,984.554869889689,784.554869889689,NaN,NaN,984.554869889689,784.554869889689,984.554869889689,415.445130110311,615.445130110311,415.445130110311,615.445130110311,784.554869889689,4,0,0,0,vertical,horizontal,horizontal,horizontal
3b,11,100336,2,48,96,20,F,blocked,variable,homogeneous,4,absent,0.557756185531616,1,horizontal,horizontal,1,2,green,1,NaN,984.554869889689,784.554869889689,NaN,NaN,984.554869889689,784.554869889689,984.554869889689,415.445130110311,615.445130110311,415.445130110311,615.445130110311,784.554869889689,4,0,0,0,horizontal,vertical,vertical,horizontal
3b,11,100336,3,1,97,20,F,blocked,variable,homogeneous,4,present,1.24926018714905,1,vertical,vertical,1,2,green,1,3,984.554869889689,784.554869889689,615.445130110311,415.445130110311,984.554869889689,784.554869889689,984.554869889689,415.445130110311,615.445130110311,415.445130110311,615.445130110311,784.554869889689,4,0,0,0,vertical,vertical,vertical,horizontal
3b,11,100336,3,2,98,20,F,blocked,variable,homogeneous,4,present,0.93353009223938,1,horizontal,horizontal,1,2,red,2,4,984.554869889689,415.445130110311,615.445130110311,784.554869889689,984.554869889689,784.554869889689,984.554869889689,415.445130110311,615.445130110311,415.445130110311,615.445130110311,784.554869889689,0,4,0,0,horizontal,horizontal,vertical,horizontal
3b,11,100336,3,3,99,20,F,blocked,variable,homogeneous,4,present,0.713989019393921,1,vertical,vertical,1,2,green,2,4,984.554869889689,415.445130110311,615.445130110311,784.554869889689,984.554869889689,784.554869889689,984.554869889689,415.445130110311,615.445130110311,415.445130110311,615.445130110311,784.554869889689,0,4,0,0,horizontal,vertical,vertical,vertical
3b,11,100336,3,4,100,20,F,blocked,variable,homogeneous,4,absent,0.558341026306152,1,vertical,vertical,1,2,red,2,NaN,984.554869889689,415.445130110311,NaN,NaN,984.554869889689,784.554869889689,984.554869889689,415.445130110311,615.445130110311,415.445130110311,615.445130110311,784.554869889689,0,4,0,0,horizontal,vertical,vertical,horizontal
3b,11,100336,3,5,101,20,F,blocked,variable,homogeneous,4,present,0.578577995300293,1,vertical,vertical,1,2,red,1,4,984.554869889689,784.554869889689,615.445130110311,784.554869889689,984.554869889689,784.554869889689,984.554869889689,415.445130110311,615.445130110311,415.445130110311,615.445130110311,784.554869889689,4,0,0,0,vertical,horizontal,horizontal,vertical
3b,11,100336,3,6,102,20,F,blocked,variable,homogeneous,4,absent,0.486726045608521,1,horizontal,horizontal,1,2,red,4,NaN,615.445130110311,784.554869889689,NaN,NaN,984.554869889689,784.554869889689,984.554869889689,415.445130110311,615.445130110311,415.445130110311,615.445130110311,784.554869889689,0,0,0,4,horizontal,horizontal,vertical,horizontal
3b,11,100336,3,7,103,20,F,blocked,variable,homogeneous,4,present,0.747196197509766,1,horizontal,horizontal,1,2,green,3,4,615.445130110311,415.445130110311,615.445130110311,784.554869889689,984.554869889689,784.554869889689,984.554869889689,415.445130110311,615.445130110311,415.445130110311,615.445130110311,784.554869889689,0,0,4,0,vertical,vertical,horizontal,horizontal
3b,11,100336,3,8,104,20,F,blocked,variable,homogeneous,4,absent,0.527484893798828,1,vertical,vertical,1,2,red,2,NaN,984.554869889689,415.445130110311,NaN,NaN,984.554869889689,784.554869889689,984.554869889689,415.445130110311,615.445130110311,415.445130110311,615.445130110311,784.554869889689,0,4,0,0,vertical,vertical,vertical,horizontal
3b,11,100336,3,9,105,20,F,blocked,variable,homogeneous,4,absent,0.627599000930786,1,vertical,vertical,1,2,green,4,NaN,615.445130110311,784.554869889689,NaN,NaN,984.554869889689,784.554869889689,984.554869889689,415.445130110311,615.445130110311,415.445130110311,615.445130110311,784.554869889689,0,0,0,4,vertical,horizontal,horizontal,vertical
3b,11,100336,3,10,106,20,F,blocked,variable,homogeneous,4,present,0.52012300491333,0,vertical,horizontal,1,2,red,4,3,615.445130110311,784.554869889689,615.445130110311,415.445130110311,984.554869889689,784.554869889689,984.554869889689,415.445130110311,615.445130110311,415.445130110311,615.445130110311,784.554869889689,0,0,0,4,horizontal,vertical,horizontal,vertical
3b,11,100336,3,11,107,20,F,blocked,variable,homogeneous,4,present,0.572160005569458,1,horizontal,horizontal,1,2,green,3,1,615.445130110311,415.445130110311,984.554869889689,784.554869889689,984.554869889689,784.554869889689,984.554869889689,415.445130110311,615.445130110311,415.445130110311,615.445130110311,784.554869889689,0,0,4,0,vertical,vertical,horizontal,horizontal
3b,11,100336,3,12,108,20,F,blocked,variable,homogeneous,4,present,0.640387058258057,1,horizontal,horizontal,1,2,red,1,3,984.554869889689,784.554869889689,615.445130110311,415.445130110311,984.554869889689,784.554869889689,984.554869889689,415.445130110311,615.445130110311,415.445130110311,615.445130110311,784.554869889689,4,0,0,0,horizontal,horizontal,vertical,horizontal
3b,11,100336,3,13,109,20,F,blocked,variable,homogeneous,4,present,0.612779140472412,1,vertical,vertical,1,2,green,3,1,615.445130110311,415.445130110311,984.554869889689,784.554869889689,984.554869889689,784.554869889689,984.554869889689,415.445130110311,615.445130110311,415.445130110311,615.445130110311,784.554869889689,0,0,4,0,vertical,horizontal,vertical,vertical
3b,11,100336,3,14,110,20,F,blocked,variable,homogeneous,4,present,0.489006996154785,1,horizontal,horizontal,1,2,red,2,3,984.554869889689,415.445130110311,615.445130110311,415.445130110311,984.554869889689,784.554869889689,984.554869889689,415.445130110311,615.445130110311,415.445130110311,615.445130110311,784.554869889689,0,4,0,0,horizontal,horizontal,vertical,horizontal
3b,11,100336,3,15,111,20,F,blocked,variable,homogeneous,4,present,0.509436130523682,1,horizontal,horizontal,1,2,red,3,2,615.445130110311,415.445130110311,984.554869889689,415.445130110311,984.554869889689,784.554869889689,984.554869889689,415.445130110311,615.445130110311,415.445130110311,615.445130110311,784.554869889689,0,0,4,0,horizontal,vertical,horizontal,vertical
3b,11,100336,3,16,112,20,F,blocked,variable,homogeneous,4,present,0.817723035812378,1,vertical,vertical,1,2,red,2,1,984.554869889689,415.445130110311,984.554869889689,784.554869889689,984.554869889689,784.554869889689,984.554869889689,415.445130110311,615.445130110311,415.445130110311,615.445130110311,784.554869889689,0,4,0,0,horizontal,vertical,horizontal,vertical
3b,11,100336,3,17,113,20,F,blocked,variable,homogeneous,4,absent,0.757982015609741,0,horizontal,vertical,1,2,red,1,NaN,984.554869889689,784.554869889689,NaN,NaN,984.554869889689,784.554869889689,984.554869889689,415.445130110311,615.445130110311,415.445130110311,615.445130110311,784.554869889689,4,0,0,0,horizontal,vertical,vertical,horizontal
3b,11,100336,3,18,114,20,F,blocked,variable,homogeneous,4,absent,0.97011399269104,1,vertical,vertical,1,2,green,4,NaN,615.445130110311,784.554869889689,NaN,NaN,984.554869889689,784.554869889689,984.554869889689,415.445130110311,615.445130110311,415.445130110311,615.445130110311,784.554869889689,0,0,0,4,vertical,horizontal,horizontal,vertical
3b,11,100336,3,19,115,20,F,blocked,variable,homogeneous,4,absent,0.510878086090088,1,horizontal,horizontal,1,2,green,4,NaN,615.445130110311,784.554869889689,NaN,NaN,984.554869889689,784.554869889689,984.554869889689,415.445130110311,615.445130110311,415.445130110311,615.445130110311,784.554869889689,0,0,0,4,horizontal,vertical,horizontal,horizontal
3b,11,100336,3,20,116,20,F,blocked,variable,homogeneous,4,present,0.738825082778931,1,horizontal,horizontal,1,2,green,2,4,984.554869889689,415.445130110311,615.445130110311,784.554869889689,984.554869889689,784.554869889689,984.554869889689,415.445130110311,615.445130110311,415.445130110311,615.445130110311,784.554869889689,0,4,0,0,horizontal,horizontal,vertical,horizontal
3b,11,100336,3,21,117,20,F,blocked,variable,homogeneous,4,present,0.567219018936157,1,vertical,vertical,1,2,red,2,4,984.554869889689,415.445130110311,615.445130110311,784.554869889689,984.554869889689,784.554869889689,984.554869889689,415.445130110311,615.445130110311,415.445130110311,615.445130110311,784.554869889689,0,4,0,0,horizontal,vertical,horizontal,vertical
3b,11,100336,3,22,118,20,F,blocked,variable,homogeneous,4,present,0.491503000259399,1,horizontal,horizontal,1,2,red,3,4,615.445130110311,415.445130110311,615.445130110311,784.554869889689,984.554869889689,784.554869889689,984.554869889689,415.445130110311,615.445130110311,415.445130110311,615.445130110311,784.554869889689,0,0,4,0,vertical,horizontal,horizontal,vertical
3b,11,100336,3,23,119,20,F,blocked,variable,homogeneous,4,present,0.511811017990112,1,vertical,vertical,1,2,red,2,1,984.554869889689,415.445130110311,984.554869889689,784.554869889689,984.554869889689,784.554869889689,984.554869889689,415.445130110311,615.445130110311,415.445130110311,615.445130110311,784.554869889689,0,4,0,0,horizontal,vertical,horizontal,vertical
3b,11,100336,3,24,120,20,F,blocked,variable,homogeneous,4,present,0.468364953994751,1,vertical,vertical,1,2,red,2,3,984.554869889689,415.445130110311,615.445130110311,415.445130110311,984.554869889689,784.554869889689,984.554869889689,415.445130110311,615.445130110311,415.445130110311,615.445130110311,784.554869889689,0,4,0,0,horizontal,vertical,horizontal,vertical
3b,11,100336,3,25,121,20,F,blocked,variable,homogeneous,4,present,0.600574016571045,1,horizontal,horizontal,1,2,red,2,1,984.554869889689,415.445130110311,984.554869889689,784.554869889689,984.554869889689,784.554869889689,984.554869889689,415.445130110311,615.445130110311,415.445130110311,615.445130110311,784.554869889689,0,4,0,0,horizontal,horizontal,vertical,vertical
3b,11,100336,3,26,122,20,F,blocked,variable,homogeneous,4,present,0.732730865478516,1,horizontal,horizontal,1,2,red,3,1,615.445130110311,415.445130110311,984.554869889689,784.554869889689,984.554869889689,784.554869889689,984.554869889689,415.445130110311,615.445130110311,415.445130110311,615.445130110311,784.554869889689,0,0,4,0,vertical,horizontal,horizontal,vertical
3b,11,100336,3,27,123,20,F,blocked,variable,homogeneous,4,absent,0.513028144836426,1,vertical,vertical,1,2,green,2,NaN,984.554869889689,415.445130110311,NaN,NaN,984.554869889689,784.554869889689,984.554869889689,415.445130110311,615.445130110311,415.445130110311,615.445130110311,784.554869889689,0,4,0,0,vertical,vertical,horizontal,vertical
3b,11,100336,3,28,124,20,F,blocked,variable,homogeneous,4,present,0.517278909683228,1,vertical,vertical,1,2,red,4,3,615.445130110311,784.554869889689,615.445130110311,415.445130110311,984.554869889689,784.554869889689,984.554869889689,415.445130110311,615.445130110311,415.445130110311,615.445130110311,784.554869889689,0,0,0,4,horizontal,vertical,horizontal,vertical
3b,11,100336,3,29,125,20,F,blocked,variable,homogeneous,4,present,0.441837072372437,0,vertical,horizontal,1,2,green,3,4,615.445130110311,415.445130110311,615.445130110311,784.554869889689,984.554869889689,784.554869889689,984.554869889689,415.445130110311,615.445130110311,415.445130110311,615.445130110311,784.554869889689,0,0,4,0,vertical,vertical,vertical,horizontal
3b,11,100336,3,30,126,20,F,blocked,variable,homogeneous,4,present,0.702007055282593,1,horizontal,horizontal,1,2,green,3,1,615.445130110311,415.445130110311,984.554869889689,784.554869889689,984.554869889689,784.554869889689,984.554869889689,415.445130110311,615.445130110311,415.445130110311,615.445130110311,784.554869889689,0,0,4,0,vertical,horizontal,horizontal,vertical
3b,11,100336,3,31,127,20,F,blocked,variable,homogeneous,4,present,0.626244068145752,1,horizontal,horizontal,1,2,red,1,3,984.554869889689,784.554869889689,615.445130110311,415.445130110311,984.554869889689,784.554869889689,984.554869889689,415.445130110311,615.445130110311,415.445130110311,615.445130110311,784.554869889689,4,0,0,0,horizontal,vertical,horizontal,horizontal
3b,11,100336,3,32,128,20,F,blocked,variable,homogeneous,4,present,0.406528949737549,1,vertical,vertical,1,2,green,2,1,984.554869889689,415.445130110311,984.554869889689,784.554869889689,984.554869889689,784.554869889689,984.554869889689,415.445130110311,615.445130110311,415.445130110311,615.445130110311,784.554869889689,0,4,0,0,horizontal,vertical,vertical,vertical
3b,11,100336,3,33,129,20,F,blocked,variable,homogeneous,4,present,0.459057807922363,1,horizontal,horizontal,1,2,red,2,1,984.554869889689,415.445130110311,984.554869889689,784.554869889689,984.554869889689,784.554869889689,984.554869889689,415.445130110311,615.445130110311,415.445130110311,615.445130110311,784.554869889689,0,4,0,0,vertical,horizontal,horizontal,horizontal
3b,11,100336,3,34,130,20,F,blocked,variable,homogeneous,4,absent,0.559221029281616,1,horizontal,horizontal,1,2,green,3,NaN,615.445130110311,415.445130110311,NaN,NaN,984.554869889689,784.554869889689,984.554869889689,415.445130110311,615.445130110311,415.445130110311,615.445130110311,784.554869889689,0,0,4,0,vertical,vertical,horizontal,vertical
3b,11,100336,3,35,131,20,F,blocked,variable,homogeneous,4,absent,0.547406911849976,1,vertical,vertical,1,2,green,4,NaN,615.445130110311,784.554869889689,NaN,NaN,984.554869889689,784.554869889689,984.554869889689,415.445130110311,615.445130110311,415.445130110311,615.445130110311,784.554869889689,0,0,0,4,horizontal,vertical,vertical,vertical
3b,11,100336,3,36,132,20,F,blocked,variable,homogeneous,4,present,0.631648063659668,1,horizontal,horizontal,1,2,red,3,4,615.445130110311,415.445130110311,615.445130110311,784.554869889689,984.554869889689,784.554869889689,984.554869889689,415.445130110311,615.445130110311,415.445130110311,615.445130110311,784.554869889689,0,0,4,0,vertical,horizontal,horizontal,vertical
3b,11,100336,3,37,133,20,F,blocked,variable,homogeneous,4,present,0.6997230052948,1,horizontal,horizontal,1,2,red,4,1,615.445130110311,784.554869889689,984.554869889689,784.554869889689,984.554869889689,784.554869889689,984.554869889689,415.445130110311,615.445130110311,415.445130110311,615.445130110311,784.554869889689,0,0,0,4,horizontal,vertical,vertical,horizontal
3b,11,100336,3,38,134,20,F,blocked,variable,homogeneous,4,absent,0.880338907241821,1,horizontal,horizontal,1,2,red,3,NaN,615.445130110311,415.445130110311,NaN,NaN,984.554869889689,784.554869889689,984.554869889689,415.445130110311,615.445130110311,415.445130110311,615.445130110311,784.554869889689,0,0,4,0,horizontal,vertical,horizontal,horizontal
3b,11,100336,3,39,135,20,F,blocked,variable,homogeneous,4,present,0.740445137023926,1,vertical,vertical,1,2,green,4,2,615.445130110311,784.554869889689,984.554869889689,415.445130110311,984.554869889689,784.554869889689,984.554869889689,415.445130110311,615.445130110311,415.445130110311,615.445130110311,784.554869889689,0,0,0,4,vertical,horizontal,vertical,vertical
3b,11,100336,3,40,136,20,F,blocked,variable,homogeneous,4,absent,0.553401947021484,1,horizontal,horizontal,1,2,red,3,NaN,615.445130110311,415.445130110311,NaN,NaN,984.554869889689,784.554869889689,984.554869889689,415.445130110311,615.445130110311,415.445130110311,615.445130110311,784.554869889689,0,0,4,0,horizontal,horizontal,horizontal,horizontal
3b,11,100336,3,41,137,20,F,blocked,variable,homogeneous,4,present,0.765268087387085,1,vertical,vertical,1,2,green,2,1,984.554869889689,415.445130110311,984.554869889689,784.554869889689,984.554869889689,784.554869889689,984.554869889689,415.445130110311,615.445130110311,415.445130110311,615.445130110311,784.554869889689,0,4,0,0,vertical,vertical,horizontal,horizontal
3b,11,100336,3,42,138,20,F,blocked,variable,homogeneous,4,present,0.625571012496948,1,horizontal,horizontal,1,2,red,1,3,984.554869889689,784.554869889689,615.445130110311,415.445130110311,984.554869889689,784.554869889689,984.554869889689,415.445130110311,615.445130110311,415.445130110311,615.445130110311,784.554869889689,4,0,0,0,horizontal,horizontal,vertical,vertical
3b,11,100336,3,43,139,20,F,blocked,variable,homogeneous,4,absent,0.566025972366333,1,vertical,vertical,1,2,green,3,NaN,615.445130110311,415.445130110311,NaN,NaN,984.554869889689,784.554869889689,984.554869889689,415.445130110311,615.445130110311,415.445130110311,615.445130110311,784.554869889689,0,0,4,0,vertical,horizontal,vertical,vertical
3b,11,100336,3,44,140,20,F,blocked,variable,homogeneous,4,absent,0.666296005249023,1,horizontal,horizontal,1,2,green,3,NaN,615.445130110311,415.445130110311,NaN,NaN,984.554869889689,784.554869889689,984.554869889689,415.445130110311,615.445130110311,415.445130110311,615.445130110311,784.554869889689,0,0,4,0,horizontal,vertical,horizontal,vertical
3b,11,100336,3,45,141,20,F,blocked,variable,homogeneous,4,present,0.478744029998779,1,vertical,vertical,1,2,red,3,4,615.445130110311,415.445130110311,615.445130110311,784.554869889689,984.554869889689,784.554869889689,984.554869889689,415.445130110311,615.445130110311,415.445130110311,615.445130110311,784.554869889689,0,0,4,0,vertical,vertical,vertical,vertical
3b,11,100336,3,46,142,20,F,blocked,variable,homogeneous,4,present,0.658945083618164,1,vertical,vertical,1,2,red,1,3,984.554869889689,784.554869889689,615.445130110311,415.445130110311,984.554869889689,784.554869889689,984.554869889689,415.445130110311,615.445130110311,415.445130110311,615.445130110311,784.554869889689,4,0,0,0,vertical,horizontal,horizontal,horizontal
3b,11,100336,3,47,143,20,F,blocked,variable,homogeneous,4,absent,0.6790771484375,1,horizontal,horizontal,1,2,green,1,NaN,984.554869889689,784.554869889689,NaN,NaN,984.554869889689,784.554869889689,984.554869889689,415.445130110311,615.445130110311,415.445130110311,615.445130110311,784.554869889689,4,0,0,0,horizontal,vertical,vertical,vertical
3b,11,100336,3,48,144,20,F,blocked,variable,homogeneous,4,absent,0.635331869125366,1,vertical,vertical,1,2,red,4,NaN,615.445130110311,784.554869889689,NaN,NaN,984.554869889689,784.554869889689,984.554869889689,415.445130110311,615.445130110311,415.445130110311,615.445130110311,784.554869889689,0,0,0,4,horizontal,vertical,vertical,vertical
3b,11,100336,4,1,145,20,F,blocked,variable,homogeneous,4,absent,0.642919063568115,1,vertical,vertical,1,2,red,4,NaN,615.445130110311,784.554869889689,NaN,NaN,984.554869889689,784.554869889689,984.554869889689,415.445130110311,615.445130110311,415.445130110311,615.445130110311,784.554869889689,0,0,0,4,horizontal,horizontal,horizontal,vertical
3b,11,100336,4,2,146,20,F,blocked,variable,homogeneous,4,present,0.519416093826294,1,vertical,vertical,1,2,red,3,1,615.445130110311,415.445130110311,984.554869889689,784.554869889689,984.554869889689,784.554869889689,984.554869889689,415.445130110311,615.445130110311,415.445130110311,615.445130110311,784.554869889689,0,0,4,0,vertical,vertical,vertical,horizontal
3b,11,100336,4,3,147,20,F,blocked,variable,homogeneous,4,present,0.459717035293579,1,vertical,vertical,1,2,red,3,4,615.445130110311,415.445130110311,615.445130110311,784.554869889689,984.554869889689,784.554869889689,984.554869889689,415.445130110311,615.445130110311,415.445130110311,615.445130110311,784.554869889689,0,0,4,0,horizontal,horizontal,vertical,vertical
3b,11,100336,4,4,148,20,F,blocked,variable,homogeneous,4,present,1.23181319236755,1,vertical,vertical,1,2,red,1,2,984.554869889689,784.554869889689,984.554869889689,415.445130110311,984.554869889689,784.554869889689,984.554869889689,415.445130110311,615.445130110311,415.445130110311,615.445130110311,784.554869889689,4,0,0,0,vertical,vertical,vertical,horizontal
3b,11,100336,4,5,149,20,F,blocked,variable,homogeneous,4,present,0.628132820129395,1,horizontal,horizontal,1,2,green,1,2,984.554869889689,784.554869889689,984.554869889689,415.445130110311,984.554869889689,784.554869889689,984.554869889689,415.445130110311,615.445130110311,415.445130110311,615.445130110311,784.554869889689,4,0,0,0,horizontal,vertical,vertical,vertical
3b,11,100336,4,6,150,20,F,blocked,variable,homogeneous,4,present,0.840610027313232,1,horizontal,horizontal,1,2,red,4,1,615.445130110311,784.554869889689,984.554869889689,784.554869889689,984.554869889689,784.554869889689,984.554869889689,415.445130110311,615.445130110311,415.445130110311,615.445130110311,784.554869889689,0,0,0,4,horizontal,horizontal,vertical,horizontal
3b,11,100336,4,7,151,20,F,blocked,variable,homogeneous,4,absent,0.636902093887329,1,vertical,vertical,1,2,green,4,NaN,615.445130110311,784.554869889689,NaN,NaN,984.554869889689,784.554869889689,984.554869889689,415.445130110311,615.445130110311,415.445130110311,615.445130110311,784.554869889689,0,0,0,4,horizontal,vertical,vertical,vertical
3b,11,100336,4,8,152,20,F,blocked,variable,homogeneous,4,absent,0.497158050537109,1,vertical,vertical,1,2,green,1,NaN,984.554869889689,784.554869889689,NaN,NaN,984.554869889689,784.554869889689,984.554869889689,415.445130110311,615.445130110311,415.445130110311,615.445130110311,784.554869889689,4,0,0,0,vertical,vertical,horizontal,vertical
3b,11,100336,4,9,153,20,F,blocked,variable,homogeneous,4,present,0.597257852554321,1,vertical,vertical,1,2,green,4,1,615.445130110311,784.554869889689,984.554869889689,784.554869889689,984.554869889689,784.554869889689,984.554869889689,415.445130110311,615.445130110311,415.445130110311,615.445130110311,784.554869889689,0,0,0,4,vertical,horizontal,vertical,vertical
3b,11,100336,4,10,154,20,F,blocked,variable,homogeneous,4,present,0.537812948226929,1,vertical,vertical,1,2,green,1,3,984.554869889689,784.554869889689,615.445130110311,415.445130110311,984.554869889689,784.554869889689,984.554869889689,415.445130110311,615.445130110311,415.445130110311,615.445130110311,784.554869889689,4,0,0,0,vertical,vertical,horizontal,horizontal
3b,11,100336,4,11,155,20,F,blocked,variable,homogeneous,4,present,1.26207780838013,1,vertical,vertical,1,2,red,2,1,984.554869889689,415.445130110311,984.554869889689,784.554869889689,984.554869889689,784.554869889689,984.554869889689,415.445130110311,615.445130110311,415.445130110311,615.445130110311,784.554869889689,0,4,0,0,horizontal,vertical,horizontal,vertical
3b,11,100336,4,12,156,20,F,blocked,variable,homogeneous,4,absent,0.578382015228271,1,vertical,vertical,1,2,green,4,NaN,615.445130110311,784.554869889689,NaN,NaN,984.554869889689,784.554869889689,984.554869889689,415.445130110311,615.445130110311,415.445130110311,615.445130110311,784.554869889689,0,0,0,4,vertical,horizontal,vertical,vertical
3b,11,100336,4,13,157,20,F,blocked,variable,homogeneous,4,present,0.550900936126709,1,vertical,vertical,1,2,green,2,4,984.554869889689,415.445130110311,615.445130110311,784.554869889689,984.554869889689,784.554869889689,984.554869889689,415.445130110311,615.445130110311,415.445130110311,615.445130110311,784.554869889689,0,4,0,0,horizontal,vertical,vertical,vertical
3b,11,100336,4,14,158,20,F,blocked,variable,homogeneous,4,absent,0.491172075271606,1,vertical,vertical,1,2,red,2,NaN,984.554869889689,415.445130110311,NaN,NaN,984.554869889689,784.554869889689,984.554869889689,415.445130110311,615.445130110311,415.445130110311,615.445130110311,784.554869889689,0,4,0,0,horizontal,vertical,horizontal,vertical
3b,11,100336,4,15,159,20,F,blocked,variable,homogeneous,4,absent,0.703303098678589,1,horizontal,horizontal,1,2,red,1,NaN,984.554869889689,784.554869889689,NaN,NaN,984.554869889689,784.554869889689,984.554869889689,415.445130110311,615.445130110311,415.445130110311,615.445130110311,784.554869889689,4,0,0,0,horizontal,horizontal,vertical,vertical
3b,11,100336,4,16,160,20,F,blocked,variable,homogeneous,4,present,0.579637050628662,1,vertical,vertical,1,2,green,2,3,984.554869889689,415.445130110311,615.445130110311,415.445130110311,984.554869889689,784.554869889689,984.554869889689,415.445130110311,615.445130110311,415.445130110311,615.445130110311,784.554869889689,0,4,0,0,vertical,vertical,vertical,horizontal
3b,11,100336,4,17,161,20,F,blocked,variable,homogeneous,4,absent,0.600059032440186,1,horizontal,horizontal,1,2,green,2,NaN,984.554869889689,415.445130110311,NaN,NaN,984.554869889689,784.554869889689,984.554869889689,415.445130110311,615.445130110311,415.445130110311,615.445130110311,784.554869889689,0,4,0,0,horizontal,horizontal,horizontal,horizontal
3b,11,100336,4,18,162,20,F,blocked,variable,homogeneous,4,present,0.604028940200806,1,vertical,vertical,1,2,red,2,1,984.554869889689,415.445130110311,984.554869889689,784.554869889689,984.554869889689,784.554869889689,984.554869889689,415.445130110311,615.445130110311,415.445130110311,615.445130110311,784.554869889689,0,4,0,0,horizontal,vertical,horizontal,vertical
3b,11,100336,4,19,163,20,F,blocked,variable,homogeneous,4,present,0.928436994552612,1,horizontal,horizontal,1,2,red,4,2,615.445130110311,784.554869889689,984.554869889689,415.445130110311,984.554869889689,784.554869889689,984.554869889689,415.445130110311,615.445130110311,415.445130110311,615.445130110311,784.554869889689,0,0,0,4,horizontal,horizontal,vertical,horizontal
3b,11,100336,4,20,164,20,F,blocked,variable,homogeneous,4,absent,0.548826932907104,1,vertical,vertical,1,2,red,4,NaN,615.445130110311,784.554869889689,NaN,NaN,984.554869889689,784.554869889689,984.554869889689,415.445130110311,615.445130110311,415.445130110311,615.445130110311,784.554869889689,0,0,0,4,horizontal,vertical,vertical,vertical
3b,11,100336,4,21,165,20,F,blocked,variable,homogeneous,4,absent,0.745139837265015,1,horizontal,horizontal,1,2,red,2,NaN,984.554869889689,415.445130110311,NaN,NaN,984.554869889689,784.554869889689,984.554869889689,415.445130110311,615.445130110311,415.445130110311,615.445130110311,784.554869889689,0,4,0,0,vertical,horizontal,vertical,vertical
3b,11,100336,4,22,166,20,F,blocked,variable,homogeneous,4,present,0.477494955062866,1,horizontal,horizontal,1,2,green,2,1,984.554869889689,415.445130110311,984.554869889689,784.554869889689,984.554869889689,784.554869889689,984.554869889689,415.445130110311,615.445130110311,415.445130110311,615.445130110311,784.554869889689,0,4,0,0,horizontal,horizontal,horizontal,horizontal
3b,11,100336,4,23,167,20,F,blocked,variable,homogeneous,4,present,0.529734134674072,1,horizontal,horizontal,1,2,green,4,3,615.445130110311,784.554869889689,615.445130110311,415.445130110311,984.554869889689,784.554869889689,984.554869889689,415.445130110311,615.445130110311,415.445130110311,615.445130110311,784.554869889689,0,0,0,4,vertical,horizontal,horizontal,horizontal
3b,11,100336,4,24,168,20,F,blocked,variable,homogeneous,4,absent,0.566036939620972,1,horizontal,horizontal,1,2,red,1,NaN,984.554869889689,784.554869889689,NaN,NaN,984.554869889689,784.554869889689,984.554869889689,415.445130110311,615.445130110311,415.445130110311,615.445130110311,784.554869889689,4,0,0,0,horizontal,horizontal,horizontal,horizontal
3b,11,100336,4,25,169,20,F,blocked,variable,homogeneous,4,present,0.698261022567749,1,vertical,vertical,1,2,red,1,3,984.554869889689,784.554869889689,615.445130110311,415.445130110311,984.554869889689,784.554869889689,984.554869889689,415.445130110311,615.445130110311,415.445130110311,615.445130110311,784.554869889689,4,0,0,0,vertical,vertical,vertical,vertical
3b,11,100336,4,26,170,20,F,blocked,variable,homogeneous,4,present,0.702831983566284,1,vertical,vertical,1,2,green,4,2,615.445130110311,784.554869889689,984.554869889689,415.445130110311,984.554869889689,784.554869889689,984.554869889689,415.445130110311,615.445130110311,415.445130110311,615.445130110311,784.554869889689,0,0,0,4,vertical,horizontal,horizontal,vertical
3b,11,100336,4,27,171,20,F,blocked,variable,homogeneous,4,present,0.562968015670776,1,horizontal,horizontal,1,2,green,1,3,984.554869889689,784.554869889689,615.445130110311,415.445130110311,984.554869889689,784.554869889689,984.554869889689,415.445130110311,615.445130110311,415.445130110311,615.445130110311,784.554869889689,4,0,0,0,horizontal,horizontal,vertical,horizontal
3b,11,100336,4,28,172,20,F,blocked,variable,homogeneous,4,absent,0.583234071731567,1,horizontal,horizontal,1,2,green,4,NaN,615.445130110311,784.554869889689,NaN,NaN,984.554869889689,784.554869889689,984.554869889689,415.445130110311,615.445130110311,415.445130110311,615.445130110311,784.554869889689,0,0,0,4,vertical,vertical,horizontal,horizontal
3b,11,100336,4,29,173,20,F,blocked,variable,homogeneous,4,present,0.507559061050415,1,horizontal,horizontal,1,2,red,1,2,984.554869889689,784.554869889689,984.554869889689,415.445130110311,984.554869889689,784.554869889689,984.554869889689,415.445130110311,615.445130110311,415.445130110311,615.445130110311,784.554869889689,4,0,0,0,horizontal,horizontal,horizontal,horizontal
3b,11,100336,4,30,174,20,F,blocked,variable,homogeneous,4,present,0.495797157287598,1,horizontal,horizontal,1,2,red,1,4,984.554869889689,784.554869889689,615.445130110311,784.554869889689,984.554869889689,784.554869889689,984.554869889689,415.445130110311,615.445130110311,415.445130110311,615.445130110311,784.554869889689,4,0,0,0,horizontal,vertical,horizontal,horizontal
3b,11,100336,4,31,175,20,F,blocked,variable,homogeneous,4,present,0.5000319480896,1,horizontal,horizontal,1,2,red,4,3,615.445130110311,784.554869889689,615.445130110311,415.445130110311,984.554869889689,784.554869889689,984.554869889689,415.445130110311,615.445130110311,415.445130110311,615.445130110311,784.554869889689,0,0,0,4,horizontal,horizontal,horizontal,horizontal
3b,11,100336,4,32,176,20,F,blocked,variable,homogeneous,4,present,0.472463130950928,1,horizontal,horizontal,1,2,red,4,1,615.445130110311,784.554869889689,984.554869889689,784.554869889689,984.554869889689,784.554869889689,984.554869889689,415.445130110311,615.445130110311,415.445130110311,615.445130110311,784.554869889689,0,0,0,4,horizontal,horizontal,horizontal,horizontal
3b,11,100336,4,33,177,20,F,blocked,variable,homogeneous,4,present,0.700860977172852,1,horizontal,horizontal,1,2,red,3,4,615.445130110311,415.445130110311,615.445130110311,784.554869889689,984.554869889689,784.554869889689,984.554869889689,415.445130110311,615.445130110311,415.445130110311,615.445130110311,784.554869889689,0,0,4,0,vertical,vertical,horizontal,vertical
3b,11,100336,4,34,178,20,F,blocked,variable,homogeneous,4,present,0.833075046539307,1,vertical,vertical,1,2,red,4,1,615.445130110311,784.554869889689,984.554869889689,784.554869889689,984.554869889689,784.554869889689,984.554869889689,415.445130110311,615.445130110311,415.445130110311,615.445130110311,784.554869889689,0,0,0,4,horizontal,vertical,horizontal,vertical
3b,11,100336,4,35,179,20,F,blocked,variable,homogeneous,4,present,0.709276914596558,1,horizontal,horizontal,1,2,green,3,1,615.445130110311,415.445130110311,984.554869889689,784.554869889689,984.554869889689,784.554869889689,984.554869889689,415.445130110311,615.445130110311,415.445130110311,615.445130110311,784.554869889689,0,0,4,0,horizontal,vertical,horizontal,horizontal
3b,11,100336,4,36,180,20,F,blocked,variable,homogeneous,4,present,0.825658082962036,1,horizontal,horizontal,1,2,green,2,4,984.554869889689,415.445130110311,615.445130110311,784.554869889689,984.554869889689,784.554869889689,984.554869889689,415.445130110311,615.445130110311,415.445130110311,615.445130110311,784.554869889689,0,4,0,0,vertical,horizontal,vertical,vertical
3b,11,100336,4,37,181,20,F,blocked,variable,homogeneous,4,present,0.701986074447632,1,vertical,vertical,1,2,green,3,1,615.445130110311,415.445130110311,984.554869889689,784.554869889689,984.554869889689,784.554869889689,984.554869889689,415.445130110311,615.445130110311,415.445130110311,615.445130110311,784.554869889689,0,0,4,0,horizontal,vertical,vertical,vertical
3b,11,100336,4,38,182,20,F,blocked,variable,homogeneous,4,absent,0.594486951828003,1,vertical,vertical,1,2,red,4,NaN,615.445130110311,784.554869889689,NaN,NaN,984.554869889689,784.554869889689,984.554869889689,415.445130110311,615.445130110311,415.445130110311,615.445130110311,784.554869889689,0,0,0,4,horizontal,vertical,horizontal,vertical
3b,11,100336,4,39,183,20,F,blocked,variable,homogeneous,4,absent,0.774497985839844,1,horizontal,horizontal,1,2,red,3,NaN,615.445130110311,415.445130110311,NaN,NaN,984.554869889689,784.554869889689,984.554869889689,415.445130110311,615.445130110311,415.445130110311,615.445130110311,784.554869889689,0,0,4,0,horizontal,horizontal,horizontal,vertical
3b,11,100336,4,40,184,20,F,blocked,variable,homogeneous,4,present,0.554839134216309,1,vertical,vertical,1,2,green,3,4,615.445130110311,415.445130110311,615.445130110311,784.554869889689,984.554869889689,784.554869889689,984.554869889689,415.445130110311,615.445130110311,415.445130110311,615.445130110311,784.554869889689,0,0,4,0,horizontal,vertical,vertical,vertical
3b,11,100336,4,41,185,20,F,blocked,variable,homogeneous,4,present,0.575124979019165,1,horizontal,horizontal,1,2,green,4,1,615.445130110311,784.554869889689,984.554869889689,784.554869889689,984.554869889689,784.554869889689,984.554869889689,415.445130110311,615.445130110311,415.445130110311,615.445130110311,784.554869889689,0,0,0,4,horizontal,horizontal,horizontal,horizontal
3b,11,100336,4,42,186,20,F,blocked,variable,homogeneous,4,absent,0.643303871154785,1,horizontal,horizontal,1,2,red,2,NaN,984.554869889689,415.445130110311,NaN,NaN,984.554869889689,784.554869889689,984.554869889689,415.445130110311,615.445130110311,415.445130110311,615.445130110311,784.554869889689,0,4,0,0,horizontal,horizontal,horizontal,horizontal
3b,11,100336,4,43,187,20,F,blocked,variable,homogeneous,4,present,0.551743030548096,1,vertical,vertical,1,2,green,1,4,984.554869889689,784.554869889689,615.445130110311,784.554869889689,984.554869889689,784.554869889689,984.554869889689,415.445130110311,615.445130110311,415.445130110311,615.445130110311,784.554869889689,4,0,0,0,vertical,horizontal,horizontal,horizontal
3b,11,100336,4,44,188,20,F,blocked,variable,homogeneous,4,present,0.715945959091187,1,horizontal,horizontal,1,2,green,4,1,615.445130110311,784.554869889689,984.554869889689,784.554869889689,984.554869889689,784.554869889689,984.554869889689,415.445130110311,615.445130110311,415.445130110311,615.445130110311,784.554869889689,0,0,0,4,vertical,horizontal,horizontal,horizontal
3b,11,100336,4,45,189,20,F,blocked,variable,homogeneous,4,absent,1.68040704727173,1,vertical,vertical,1,2,red,3,NaN,615.445130110311,415.445130110311,NaN,NaN,984.554869889689,784.554869889689,984.554869889689,415.445130110311,615.445130110311,415.445130110311,615.445130110311,784.554869889689,0,0,4,0,horizontal,vertical,vertical,horizontal
3b,11,100336,4,46,190,20,F,blocked,variable,homogeneous,4,absent,0.660530805587769,1,horizontal,horizontal,1,2,red,2,NaN,984.554869889689,415.445130110311,NaN,NaN,984.554869889689,784.554869889689,984.554869889689,415.445130110311,615.445130110311,415.445130110311,615.445130110311,784.554869889689,0,4,0,0,horizontal,horizontal,vertical,vertical
3b,11,100336,4,47,191,20,F,blocked,variable,homogeneous,4,present,0.505270004272461,1,horizontal,horizontal,1,2,green,2,1,984.554869889689,415.445130110311,984.554869889689,784.554869889689,984.554869889689,784.554869889689,984.554869889689,415.445130110311,615.445130110311,415.445130110311,615.445130110311,784.554869889689,0,4,0,0,horizontal,horizontal,horizontal,horizontal
3b,11,100336,4,48,192,20,F,blocked,variable,homogeneous,4,present,0.925405979156494,1,vertical,vertical,1,2,red,4,3,615.445130110311,784.554869889689,615.445130110311,415.445130110311,984.554869889689,784.554869889689,984.554869889689,415.445130110311,615.445130110311,415.445130110311,615.445130110311,784.554869889689,0,0,0,4,horizontal,horizontal,vertical,vertical
3b,11,100336,5,1,193,20,F,blocked,variable,homogeneous,4,present,0.722209930419922,1,horizontal,horizontal,1,2,green,3,4,615.445130110311,415.445130110311,615.445130110311,784.554869889689,984.554869889689,784.554869889689,984.554869889689,415.445130110311,615.445130110311,415.445130110311,615.445130110311,784.554869889689,0,0,4,0,horizontal,horizontal,horizontal,horizontal
3b,11,100336,5,2,194,20,F,blocked,variable,homogeneous,4,present,0.630488872528076,1,horizontal,horizontal,1,2,red,4,3,615.445130110311,784.554869889689,615.445130110311,415.445130110311,984.554869889689,784.554869889689,984.554869889689,415.445130110311,615.445130110311,415.445130110311,615.445130110311,784.554869889689,0,0,0,4,vertical,vertical,horizontal,horizontal
3b,11,100336,5,3,195,20,F,blocked,variable,homogeneous,4,present,0.52274489402771,1,vertical,vertical,1,2,green,3,4,615.445130110311,415.445130110311,615.445130110311,784.554869889689,984.554869889689,784.554869889689,984.554869889689,415.445130110311,615.445130110311,415.445130110311,615.445130110311,784.554869889689,0,0,4,0,horizontal,vertical,vertical,vertical
3b,11,100336,5,4,196,20,F,blocked,variable,homogeneous,4,present,0.510777950286865,1,vertical,vertical,1,2,red,3,4,615.445130110311,415.445130110311,615.445130110311,784.554869889689,984.554869889689,784.554869889689,984.554869889689,415.445130110311,615.445130110311,415.445130110311,615.445130110311,784.554869889689,0,0,4,0,vertical,vertical,vertical,horizontal
3b,11,100336,5,5,197,20,F,blocked,variable,homogeneous,4,present,0.483297109603882,1,vertical,vertical,1,2,red,1,4,984.554869889689,784.554869889689,615.445130110311,784.554869889689,984.554869889689,784.554869889689,984.554869889689,415.445130110311,615.445130110311,415.445130110311,615.445130110311,784.554869889689,4,0,0,0,vertical,horizontal,vertical,vertical
3b,11,100336,5,6,198,20,F,blocked,variable,homogeneous,4,present,0.551718950271606,1,vertical,vertical,1,2,red,4,2,615.445130110311,784.554869889689,984.554869889689,415.445130110311,984.554869889689,784.554869889689,984.554869889689,415.445130110311,615.445130110311,415.445130110311,615.445130110311,784.554869889689,0,0,0,4,vertical,horizontal,horizontal,vertical
3b,11,100336,5,7,199,20,F,blocked,variable,homogeneous,4,present,0.571856021881104,1,horizontal,horizontal,1,2,green,1,4,984.554869889689,784.554869889689,615.445130110311,784.554869889689,984.554869889689,784.554869889689,984.554869889689,415.445130110311,615.445130110311,415.445130110311,615.445130110311,784.554869889689,4,0,0,0,horizontal,vertical,vertical,vertical
3b,11,100336,5,8,200,20,F,blocked,variable,homogeneous,4,present,0.528440952301025,1,vertical,vertical,1,2,red,4,3,615.445130110311,784.554869889689,615.445130110311,415.445130110311,984.554869889689,784.554869889689,984.554869889689,415.445130110311,615.445130110311,415.445130110311,615.445130110311,784.554869889689,0,0,0,4,vertical,horizontal,vertical,vertical
3b,11,100336,5,9,201,20,F,blocked,variable,homogeneous,4,present,0.628641128540039,1,horizontal,horizontal,1,2,red,3,1,615.445130110311,415.445130110311,984.554869889689,784.554869889689,984.554869889689,784.554869889689,984.554869889689,415.445130110311,615.445130110311,415.445130110311,615.445130110311,784.554869889689,0,0,4,0,vertical,horizontal,horizontal,vertical
3b,11,100336,5,10,202,20,F,blocked,variable,homogeneous,4,present,0.680661916732788,1,horizontal,horizontal,1,2,green,1,2,984.554869889689,784.554869889689,984.554869889689,415.445130110311,984.554869889689,784.554869889689,984.554869889689,415.445130110311,615.445130110311,415.445130110311,615.445130110311,784.554869889689,4,0,0,0,horizontal,vertical,vertical,horizontal
3b,11,100336,5,11,203,20,F,blocked,variable,homogeneous,4,present,0.845234870910645,1,vertical,vertical,1,2,green,2,3,984.554869889689,415.445130110311,615.445130110311,415.445130110311,984.554869889689,784.554869889689,984.554869889689,415.445130110311,615.445130110311,415.445130110311,615.445130110311,784.554869889689,0,4,0,0,vertical,vertical,vertical,vertical
3b,11,100336,5,12,204,20,F,blocked,variable,homogeneous,4,absent,0.545547008514404,1,horizontal,horizontal,1,2,red,3,NaN,615.445130110311,415.445130110311,NaN,NaN,984.554869889689,784.554869889689,984.554869889689,415.445130110311,615.445130110311,415.445130110311,615.445130110311,784.554869889689,0,0,4,0,horizontal,horizontal,horizontal,horizontal
3b,11,100336,5,13,205,20,F,blocked,variable,homogeneous,4,present,0.533989906311035,1,vertical,vertical,1,2,green,4,2,615.445130110311,784.554869889689,984.554869889689,415.445130110311,984.554869889689,784.554869889689,984.554869889689,415.445130110311,615.445130110311,415.445130110311,615.445130110311,784.554869889689,0,0,0,4,vertical,horizontal,vertical,vertical
3b,11,100336,5,14,206,20,F,blocked,variable,homogeneous,4,absent,0.490073919296265,1,vertical,vertical,1,2,green,3,NaN,615.445130110311,415.445130110311,NaN,NaN,984.554869889689,784.554869889689,984.554869889689,415.445130110311,615.445130110311,415.445130110311,615.445130110311,784.554869889689,0,0,4,0,horizontal,vertical,vertical,vertical
3b,11,100336,5,15,207,20,F,blocked,variable,homogeneous,4,absent,0.478532791137695,1,horizontal,horizontal,1,2,green,2,NaN,984.554869889689,415.445130110311,NaN,NaN,984.554869889689,784.554869889689,984.554869889689,415.445130110311,615.445130110311,415.445130110311,615.445130110311,784.554869889689,0,4,0,0,horizontal,horizontal,vertical,vertical
3b,11,100336,5,16,208,20,F,blocked,variable,homogeneous,4,present,0.482552051544189,0,horizontal,vertical,1,2,red,1,4,984.554869889689,784.554869889689,615.445130110311,784.554869889689,984.554869889689,784.554869889689,984.554869889689,415.445130110311,615.445130110311,415.445130110311,615.445130110311,784.554869889689,4,0,0,0,horizontal,horizontal,vertical,vertical
3b,11,100336,5,17,209,20,F,blocked,variable,homogeneous,4,absent,0.534991025924683,1,horizontal,horizontal,1,2,red,2,NaN,984.554869889689,415.445130110311,NaN,NaN,984.554869889689,784.554869889689,984.554869889689,415.445130110311,615.445130110311,415.445130110311,615.445130110311,784.554869889689,0,4,0,0,horizontal,horizontal,horizontal,vertical
3b,11,100336,5,18,210,20,F,blocked,variable,homogeneous,4,absent,0.443349123001099,1,horizontal,horizontal,1,2,green,1,NaN,984.554869889689,784.554869889689,NaN,NaN,984.554869889689,784.554869889689,984.554869889689,415.445130110311,615.445130110311,415.445130110311,615.445130110311,784.554869889689,4,0,0,0,horizontal,horizontal,horizontal,vertical
3b,11,100336,5,19,211,20,F,blocked,variable,homogeneous,4,present,0.62344217300415,1,vertical,vertical,1,2,red,2,1,984.554869889689,415.445130110311,984.554869889689,784.554869889689,984.554869889689,784.554869889689,984.554869889689,415.445130110311,615.445130110311,415.445130110311,615.445130110311,784.554869889689,0,4,0,0,horizontal,vertical,vertical,vertical
3b,11,100336,5,20,212,20,F,blocked,variable,homogeneous,4,present,0.46776294708252,1,horizontal,horizontal,1,2,red,2,4,984.554869889689,415.445130110311,615.445130110311,784.554869889689,984.554869889689,784.554869889689,984.554869889689,415.445130110311,615.445130110311,415.445130110311,615.445130110311,784.554869889689,0,4,0,0,horizontal,horizontal,vertical,horizontal
3b,11,100336,5,21,213,20,F,blocked,variable,homogeneous,4,present,0.584108114242554,1,horizontal,horizontal,1,2,red,3,2,615.445130110311,415.445130110311,984.554869889689,415.445130110311,984.554869889689,784.554869889689,984.554869889689,415.445130110311,615.445130110311,415.445130110311,615.445130110311,784.554869889689,0,0,4,0,horizontal,horizontal,horizontal,vertical
3b,11,100336,5,22,214,20,F,blocked,variable,homogeneous,4,absent,1.052414894104,1,horizontal,horizontal,1,2,red,3,NaN,615.445130110311,415.445130110311,NaN,NaN,984.554869889689,784.554869889689,984.554869889689,415.445130110311,615.445130110311,415.445130110311,615.445130110311,784.554869889689,0,0,4,0,vertical,horizontal,horizontal,vertical
3b,11,100336,5,23,215,20,F,blocked,variable,homogeneous,4,absent,1.2167980670929,1,horizontal,horizontal,1,2,green,1,NaN,984.554869889689,784.554869889689,NaN,NaN,984.554869889689,784.554869889689,984.554869889689,415.445130110311,615.445130110311,415.445130110311,615.445130110311,784.554869889689,4,0,0,0,horizontal,vertical,vertical,horizontal
3b,11,100336,5,24,216,20,F,blocked,variable,homogeneous,4,present,0.469281196594238,1,horizontal,horizontal,1,2,red,1,3,984.554869889689,784.554869889689,615.445130110311,415.445130110311,984.554869889689,784.554869889689,984.554869889689,415.445130110311,615.445130110311,415.445130110311,615.445130110311,784.554869889689,4,0,0,0,horizontal,vertical,horizontal,horizontal
3b,11,100336,5,25,217,20,F,blocked,variable,homogeneous,4,present,0.505567073822021,1,horizontal,horizontal,1,2,green,1,2,984.554869889689,784.554869889689,984.554869889689,415.445130110311,984.554869889689,784.554869889689,984.554869889689,415.445130110311,615.445130110311,415.445130110311,615.445130110311,784.554869889689,4,0,0,0,horizontal,vertical,vertical,vertical
3b,11,100336,5,26,218,20,F,blocked,variable,homogeneous,4,present,0.557587862014771,1,horizontal,horizontal,1,2,green,3,1,615.445130110311,415.445130110311,984.554869889689,784.554869889689,984.554869889689,784.554869889689,984.554869889689,415.445130110311,615.445130110311,415.445130110311,615.445130110311,784.554869889689,0,0,4,0,horizontal,horizontal,horizontal,vertical
3b,11,100336,5,27,219,20,F,blocked,variable,homogeneous,4,absent,0.562041997909546,1,vertical,vertical,1,2,green,3,NaN,615.445130110311,415.445130110311,NaN,NaN,984.554869889689,784.554869889689,984.554869889689,415.445130110311,615.445130110311,415.445130110311,615.445130110311,784.554869889689,0,0,4,0,horizontal,vertical,vertical,horizontal
3b,11,100336,5,28,220,20,F,blocked,variable,homogeneous,4,present,0.742415904998779,1,horizontal,horizontal,1,2,red,4,2,615.445130110311,784.554869889689,984.554869889689,415.445130110311,984.554869889689,784.554869889689,984.554869889689,415.445130110311,615.445130110311,415.445130110311,615.445130110311,784.554869889689,0,0,0,4,vertical,horizontal,vertical,horizontal
3b,11,100336,5,29,221,20,F,blocked,variable,homogeneous,4,present,0.666347026824951,1,vertical,vertical,1,2,green,4,3,615.445130110311,784.554869889689,615.445130110311,415.445130110311,984.554869889689,784.554869889689,984.554869889689,415.445130110311,615.445130110311,415.445130110311,615.445130110311,784.554869889689,0,0,0,4,vertical,vertical,vertical,vertical
3b,11,100336,5,30,222,20,F,blocked,variable,homogeneous,4,present,0.558980941772461,1,vertical,vertical,1,2,red,3,2,615.445130110311,415.445130110311,984.554869889689,415.445130110311,984.554869889689,784.554869889689,984.554869889689,415.445130110311,615.445130110311,415.445130110311,615.445130110311,784.554869889689,0,0,4,0,horizontal,horizontal,vertical,vertical
3b,11,100336,5,31,223,20,F,blocked,variable,homogeneous,4,present,0.691104173660278,1,horizontal,horizontal,1,2,green,4,1,615.445130110311,784.554869889689,984.554869889689,784.554869889689,984.554869889689,784.554869889689,984.554869889689,415.445130110311,615.445130110311,415.445130110311,615.445130110311,784.554869889689,0,0,0,4,vertical,horizontal,horizontal,horizontal
3b,11,100336,5,32,224,20,F,blocked,variable,homogeneous,4,absent,0.599560976028442,1,horizontal,horizontal,1,2,green,2,NaN,984.554869889689,415.445130110311,NaN,NaN,984.554869889689,784.554869889689,984.554869889689,415.445130110311,615.445130110311,415.445130110311,615.445130110311,784.554869889689,0,4,0,0,vertical,horizontal,vertical,vertical
3b,11,100336,5,33,225,20,F,blocked,variable,homogeneous,4,absent,0.507730007171631,1,vertical,vertical,1,2,green,1,NaN,984.554869889689,784.554869889689,NaN,NaN,984.554869889689,784.554869889689,984.554869889689,415.445130110311,615.445130110311,415.445130110311,615.445130110311,784.554869889689,4,0,0,0,vertical,vertical,horizontal,vertical
3b,11,100336,5,34,226,20,F,blocked,variable,homogeneous,4,present,0.543916940689087,1,horizontal,horizontal,1,2,red,1,2,984.554869889689,784.554869889689,984.554869889689,415.445130110311,984.554869889689,784.554869889689,984.554869889689,415.445130110311,615.445130110311,415.445130110311,615.445130110311,784.554869889689,4,0,0,0,horizontal,horizontal,vertical,horizontal
3b,11,100336,5,35,227,20,F,blocked,variable,homogeneous,4,present,0.580368041992188,1,vertical,vertical,1,2,green,3,2,615.445130110311,415.445130110311,984.554869889689,415.445130110311,984.554869889689,784.554869889689,984.554869889689,415.445130110311,615.445130110311,415.445130110311,615.445130110311,784.554869889689,0,0,4,0,horizontal,vertical,vertical,horizontal
3b,11,100336,5,36,228,20,F,blocked,variable,homogeneous,4,absent,0.728594064712524,1,vertical,vertical,1,2,red,1,NaN,984.554869889689,784.554869889689,NaN,NaN,984.554869889689,784.554869889689,984.554869889689,415.445130110311,615.445130110311,415.445130110311,615.445130110311,784.554869889689,4,0,0,0,vertical,vertical,horizontal,vertical
3b,11,100336,5,37,229,20,F,blocked,variable,homogeneous,4,absent,0.493072986602783,0,horizontal,vertical,1,2,green,3,NaN,615.445130110311,415.445130110311,NaN,NaN,984.554869889689,784.554869889689,984.554869889689,415.445130110311,615.445130110311,415.445130110311,615.445130110311,784.554869889689,0,0,4,0,vertical,horizontal,horizontal,vertical
3b,11,100336,5,38,230,20,F,blocked,variable,homogeneous,4,present,0.545125007629395,1,horizontal,horizontal,1,2,red,1,4,984.554869889689,784.554869889689,615.445130110311,784.554869889689,984.554869889689,784.554869889689,984.554869889689,415.445130110311,615.445130110311,415.445130110311,615.445130110311,784.554869889689,4,0,0,0,horizontal,vertical,vertical,vertical
3b,11,100336,5,39,231,20,F,blocked,variable,homogeneous,4,present,0.709471940994263,1,vertical,vertical,1,2,green,1,2,984.554869889689,784.554869889689,984.554869889689,415.445130110311,984.554869889689,784.554869889689,984.554869889689,415.445130110311,615.445130110311,415.445130110311,615.445130110311,784.554869889689,4,0,0,0,vertical,horizontal,vertical,horizontal
3b,11,100336,5,40,232,20,F,blocked,variable,homogeneous,4,present,0.650006055831909,1,vertical,vertical,1,2,green,4,2,615.445130110311,784.554869889689,984.554869889689,415.445130110311,984.554869889689,784.554869889689,984.554869889689,415.445130110311,615.445130110311,415.445130110311,615.445130110311,784.554869889689,0,0,0,4,vertical,vertical,vertical,vertical
3b,11,100336,5,41,233,20,F,blocked,variable,homogeneous,4,present,0.782120943069458,0,horizontal,vertical,1,2,green,3,4,615.445130110311,415.445130110311,615.445130110311,784.554869889689,984.554869889689,784.554869889689,984.554869889689,415.445130110311,615.445130110311,415.445130110311,615.445130110311,784.554869889689,0,0,4,0,horizontal,horizontal,horizontal,vertical
3b,11,100336,5,42,234,20,F,blocked,variable,homogeneous,4,present,0.594587087631226,1,vertical,vertical,1,2,red,4,3,615.445130110311,784.554869889689,615.445130110311,415.445130110311,984.554869889689,784.554869889689,984.554869889689,415.445130110311,615.445130110311,415.445130110311,615.445130110311,784.554869889689,0,0,0,4,horizontal,horizontal,horizontal,vertical
3b,11,100336,5,43,235,20,F,blocked,variable,homogeneous,4,present,0.518955945968628,1,vertical,vertical,1,2,green,1,3,984.554869889689,784.554869889689,615.445130110311,415.445130110311,984.554869889689,784.554869889689,984.554869889689,415.445130110311,615.445130110311,415.445130110311,615.445130110311,784.554869889689,4,0,0,0,vertical,horizontal,vertical,vertical
3b,11,100336,5,44,236,20,F,blocked,variable,homogeneous,4,absent,0.507253885269165,1,vertical,vertical,1,2,green,1,NaN,984.554869889689,784.554869889689,NaN,NaN,984.554869889689,784.554869889689,984.554869889689,415.445130110311,615.445130110311,415.445130110311,615.445130110311,784.554869889689,4,0,0,0,vertical,horizontal,vertical,horizontal
3b,11,100336,5,45,237,20,F,blocked,variable,homogeneous,4,absent,0.559414863586426,1,vertical,vertical,1,2,red,1,NaN,984.554869889689,784.554869889689,NaN,NaN,984.554869889689,784.554869889689,984.554869889689,415.445130110311,615.445130110311,415.445130110311,615.445130110311,784.554869889689,4,0,0,0,vertical,horizontal,vertical,vertical
3b,11,100336,5,46,238,20,F,blocked,variable,homogeneous,4,absent,0.659653186798096,1,vertical,vertical,1,2,green,2,NaN,984.554869889689,415.445130110311,NaN,NaN,984.554869889689,784.554869889689,984.554869889689,415.445130110311,615.445130110311,415.445130110311,615.445130110311,784.554869889689,0,4,0,0,horizontal,vertical,horizontal,vertical
3b,11,100336,5,47,239,20,F,blocked,variable,homogeneous,4,present,1.06406688690186,1,vertical,vertical,1,2,red,2,3,984.554869889689,415.445130110311,615.445130110311,415.445130110311,984.554869889689,784.554869889689,984.554869889689,415.445130110311,615.445130110311,415.445130110311,615.445130110311,784.554869889689,0,4,0,0,horizontal,vertical,vertical,vertical
3b,11,100336,5,48,240,20,F,blocked,variable,homogeneous,4,absent,0.652406930923462,1,vertical,vertical,1,2,red,4,NaN,615.445130110311,784.554869889689,NaN,NaN,984.554869889689,784.554869889689,984.554869889689,415.445130110311,615.445130110311,415.445130110311,615.445130110311,784.554869889689,0,0,0,4,vertical,horizontal,horizontal,vertical
3b,11,100336,6,1,241,20,F,blocked,variable,homogeneous,4,absent,0.553617000579834,1,horizontal,horizontal,1,2,red,2,NaN,984.554869889689,415.445130110311,NaN,NaN,984.554869889689,784.554869889689,984.554869889689,415.445130110311,615.445130110311,415.445130110311,615.445130110311,784.554869889689,0,4,0,0,horizontal,horizontal,horizontal,horizontal
3b,11,100336,6,2,242,20,F,blocked,variable,homogeneous,4,present,0.55820894241333,1,horizontal,horizontal,1,2,red,1,4,984.554869889689,784.554869889689,615.445130110311,784.554869889689,984.554869889689,784.554869889689,984.554869889689,415.445130110311,615.445130110311,415.445130110311,615.445130110311,784.554869889689,4,0,0,0,horizontal,horizontal,vertical,horizontal
3b,11,100336,6,3,243,20,F,blocked,variable,homogeneous,4,present,0.578539133071899,1,horizontal,horizontal,1,2,green,3,2,615.445130110311,415.445130110311,984.554869889689,415.445130110311,984.554869889689,784.554869889689,984.554869889689,415.445130110311,615.445130110311,415.445130110311,615.445130110311,784.554869889689,0,0,4,0,vertical,vertical,horizontal,horizontal
3b,11,100336,6,4,244,20,F,blocked,variable,homogeneous,4,present,0.43877387046814,1,horizontal,horizontal,1,2,green,2,4,984.554869889689,415.445130110311,615.445130110311,784.554869889689,984.554869889689,784.554869889689,984.554869889689,415.445130110311,615.445130110311,415.445130110311,615.445130110311,784.554869889689,0,4,0,0,horizontal,horizontal,vertical,horizontal
3b,11,100336,6,5,245,20,F,blocked,variable,homogeneous,4,present,0.443157911300659,1,vertical,vertical,1,2,red,3,1,615.445130110311,415.445130110311,984.554869889689,784.554869889689,984.554869889689,784.554869889689,984.554869889689,415.445130110311,615.445130110311,415.445130110311,615.445130110311,784.554869889689,0,0,4,0,vertical,vertical,vertical,vertical
3b,11,100336,6,6,246,20,F,blocked,variable,homogeneous,4,present,0.431432008743286,1,horizontal,horizontal,1,2,green,2,4,984.554869889689,415.445130110311,615.445130110311,784.554869889689,984.554869889689,784.554869889689,984.554869889689,415.445130110311,615.445130110311,415.445130110311,615.445130110311,784.554869889689,0,4,0,0,horizontal,horizontal,vertical,vertical
3b,11,100336,6,7,247,20,F,blocked,variable,homogeneous,4,absent,0.451664924621582,1,horizontal,horizontal,1,2,green,1,NaN,984.554869889689,784.554869889689,NaN,NaN,984.554869889689,784.554869889689,984.554869889689,415.445130110311,615.445130110311,415.445130110311,615.445130110311,784.554869889689,4,0,0,0,horizontal,horizontal,vertical,horizontal
3b,11,100336,6,8,248,20,F,blocked,variable,homogeneous,4,present,0.616028070449829,0,horizontal,vertical,1,2,red,4,1,615.445130110311,784.554869889689,984.554869889689,784.554869889689,984.554869889689,784.554869889689,984.554869889689,415.445130110311,615.445130110311,415.445130110311,615.445130110311,784.554869889689,0,0,0,4,vertical,horizontal,vertical,horizontal
3b,11,100336,6,9,249,20,F,blocked,variable,homogeneous,4,absent,0.412262916564941,1,horizontal,horizontal,1,2,red,1,NaN,984.554869889689,784.554869889689,NaN,NaN,984.554869889689,784.554869889689,984.554869889689,415.445130110311,615.445130110311,415.445130110311,615.445130110311,784.554869889689,4,0,0,0,horizontal,horizontal,vertical,horizontal
3b,11,100336,6,10,250,20,F,blocked,variable,homogeneous,4,absent,0.432644844055176,1,horizontal,horizontal,1,2,red,4,NaN,615.445130110311,784.554869889689,NaN,NaN,984.554869889689,784.554869889689,984.554869889689,415.445130110311,615.445130110311,415.445130110311,615.445130110311,784.554869889689,0,0,0,4,vertical,vertical,horizontal,horizontal
3b,11,100336,6,11,251,20,F,blocked,variable,homogeneous,4,present,0.485084772109985,0,vertical,horizontal,1,2,green,3,1,615.445130110311,415.445130110311,984.554869889689,784.554869889689,984.554869889689,784.554869889689,984.554869889689,415.445130110311,615.445130110311,415.445130110311,615.445130110311,784.554869889689,0,0,4,0,vertical,vertical,vertical,horizontal
3b,11,100336,6,12,252,20,F,blocked,variable,homogeneous,4,present,0.457194089889526,1,horizontal,horizontal,1,2,green,1,4,984.554869889689,784.554869889689,615.445130110311,784.554869889689,984.554869889689,784.554869889689,984.554869889689,415.445130110311,615.445130110311,415.445130110311,615.445130110311,784.554869889689,4,0,0,0,horizontal,vertical,vertical,vertical
3b,11,100336,6,13,253,20,F,blocked,variable,homogeneous,4,present,0.637814998626709,1,vertical,vertical,1,2,red,3,1,615.445130110311,415.445130110311,984.554869889689,784.554869889689,984.554869889689,784.554869889689,984.554869889689,415.445130110311,615.445130110311,415.445130110311,615.445130110311,784.554869889689,0,0,4,0,vertical,vertical,vertical,horizontal
3b,11,100336,6,14,254,20,F,blocked,variable,homogeneous,4,present,0.59431791305542,1,horizontal,horizontal,1,2,green,3,1,615.445130110311,415.445130110311,984.554869889689,784.554869889689,984.554869889689,784.554869889689,984.554869889689,415.445130110311,615.445130110311,415.445130110311,615.445130110311,784.554869889689,0,0,4,0,vertical,horizontal,horizontal,vertical
3b,11,100336,6,15,255,20,F,blocked,variable,homogeneous,4,absent,0.678034067153931,1,vertical,vertical,1,2,green,2,NaN,984.554869889689,415.445130110311,NaN,NaN,984.554869889689,784.554869889689,984.554869889689,415.445130110311,615.445130110311,415.445130110311,615.445130110311,784.554869889689,0,4,0,0,horizontal,vertical,vertical,horizontal
3b,11,100336,6,16,256,20,F,blocked,variable,homogeneous,4,present,0.554527044296265,0,vertical,horizontal,1,2,green,2,1,984.554869889689,415.445130110311,984.554869889689,784.554869889689,984.554869889689,784.554869889689,984.554869889689,415.445130110311,615.445130110311,415.445130110311,615.445130110311,784.554869889689,0,4,0,0,vertical,vertical,horizontal,vertical
3b,11,100336,6,17,257,20,F,blocked,variable,homogeneous,4,present,0.622640132904053,1,vertical,vertical,1,2,red,1,4,984.554869889689,784.554869889689,615.445130110311,784.554869889689,984.554869889689,784.554869889689,984.554869889689,415.445130110311,615.445130110311,415.445130110311,615.445130110311,784.554869889689,4,0,0,0,vertical,horizontal,horizontal,vertical
3b,11,100336,6,18,258,20,F,blocked,variable,homogeneous,4,present,0.562958002090454,1,horizontal,horizontal,1,2,green,3,1,615.445130110311,415.445130110311,984.554869889689,784.554869889689,984.554869889689,784.554869889689,984.554869889689,415.445130110311,615.445130110311,415.445130110311,615.445130110311,784.554869889689,0,0,4,0,horizontal,horizontal,horizontal,horizontal
3b,11,100336,6,19,259,20,F,blocked,variable,homogeneous,4,present,0.679322957992554,1,horizontal,horizontal,1,2,green,4,2,615.445130110311,784.554869889689,984.554869889689,415.445130110311,984.554869889689,784.554869889689,984.554869889689,415.445130110311,615.445130110311,415.445130110311,615.445130110311,784.554869889689,0,0,0,4,vertical,horizontal,vertical,horizontal
3b,11,100336,6,20,260,20,F,blocked,variable,homogeneous,4,absent,0.523429870605469,1,vertical,vertical,1,2,green,2,NaN,984.554869889689,415.445130110311,NaN,NaN,984.554869889689,784.554869889689,984.554869889689,415.445130110311,615.445130110311,415.445130110311,615.445130110311,784.554869889689,0,4,0,0,horizontal,vertical,vertical,horizontal
3b,11,100336,6,21,261,20,F,blocked,variable,homogeneous,4,absent,0.672077894210815,1,vertical,vertical,1,2,green,4,NaN,615.445130110311,784.554869889689,NaN,NaN,984.554869889689,784.554869889689,984.554869889689,415.445130110311,615.445130110311,415.445130110311,615.445130110311,784.554869889689,0,0,0,4,vertical,horizontal,vertical,vertical
3b,11,100336,6,22,262,20,F,blocked,variable,homogeneous,4,present,0.676231145858765,1,horizontal,horizontal,1,2,green,3,2,615.445130110311,415.445130110311,984.554869889689,415.445130110311,984.554869889689,784.554869889689,984.554869889689,415.445130110311,615.445130110311,415.445130110311,615.445130110311,784.554869889689,0,0,4,0,horizontal,vertical,horizontal,horizontal
3b,11,100336,6,23,263,20,F,blocked,variable,homogeneous,4,present,0.488569021224976,1,vertical,vertical,1,2,red,3,2,615.445130110311,415.445130110311,984.554869889689,415.445130110311,984.554869889689,784.554869889689,984.554869889689,415.445130110311,615.445130110311,415.445130110311,615.445130110311,784.554869889689,0,0,4,0,vertical,vertical,vertical,horizontal
3b,11,100336,6,24,264,20,F,blocked,variable,homogeneous,4,present,0.605061054229736,1,horizontal,horizontal,1,2,red,3,1,615.445130110311,415.445130110311,984.554869889689,784.554869889689,984.554869889689,784.554869889689,984.554869889689,415.445130110311,615.445130110311,415.445130110311,615.445130110311,784.554869889689,0,0,4,0,horizontal,horizontal,horizontal,vertical
3b,11,100336,6,25,265,20,F,blocked,variable,homogeneous,4,present,1.13714599609375,1,vertical,vertical,1,2,green,4,3,615.445130110311,784.554869889689,615.445130110311,415.445130110311,984.554869889689,784.554869889689,984.554869889689,415.445130110311,615.445130110311,415.445130110311,615.445130110311,784.554869889689,0,0,0,4,vertical,vertical,horizontal,vertical
3b,11,100336,6,26,266,20,F,blocked,variable,homogeneous,4,present,0.661582946777344,0,vertical,horizontal,1,2,green,4,2,615.445130110311,784.554869889689,984.554869889689,415.445130110311,984.554869889689,784.554869889689,984.554869889689,415.445130110311,615.445130110311,415.445130110311,615.445130110311,784.554869889689,0,0,0,4,horizontal,vertical,horizontal,vertical
3b,11,100336,6,27,267,20,F,blocked,variable,homogeneous,4,present,0.601629972457886,1,vertical,vertical,1,2,green,4,3,615.445130110311,784.554869889689,615.445130110311,415.445130110311,984.554869889689,784.554869889689,984.554869889689,415.445130110311,615.445130110311,415.445130110311,615.445130110311,784.554869889689,0,0,0,4,vertical,vertical,horizontal,vertical
3b,11,100336,6,28,268,20,F,blocked,variable,homogeneous,4,absent,0.574099063873291,1,vertical,vertical,1,2,green,1,NaN,984.554869889689,784.554869889689,NaN,NaN,984.554869889689,784.554869889689,984.554869889689,415.445130110311,615.445130110311,415.445130110311,615.445130110311,784.554869889689,4,0,0,0,vertical,horizontal,horizontal,horizontal
3b,11,100336,6,29,269,20,F,blocked,variable,homogeneous,4,absent,0.498388051986694,1,vertical,vertical,1,2,red,3,NaN,615.445130110311,415.445130110311,NaN,NaN,984.554869889689,784.554869889689,984.554869889689,415.445130110311,615.445130110311,415.445130110311,615.445130110311,784.554869889689,0,0,4,0,vertical,vertical,vertical,vertical
3b,11,100336,6,30,270,20,F,blocked,variable,homogeneous,4,present,0.710511922836304,1,horizontal,horizontal,1,2,red,3,1,615.445130110311,415.445130110311,984.554869889689,784.554869889689,984.554869889689,784.554869889689,984.554869889689,415.445130110311,615.445130110311,415.445130110311,615.445130110311,784.554869889689,0,0,4,0,vertical,vertical,horizontal,vertical
3b,11,100336,6,31,271,20,F,blocked,variable,homogeneous,4,absent,0.53880500793457,1,vertical,vertical,1,2,red,3,NaN,615.445130110311,415.445130110311,NaN,NaN,984.554869889689,784.554869889689,984.554869889689,415.445130110311,615.445130110311,415.445130110311,615.445130110311,784.554869889689,0,0,4,0,vertical,vertical,vertical,horizontal
3b,11,100336,6,32,272,20,F,blocked,variable,homogeneous,4,present,0.575248956680298,1,vertical,vertical,1,2,green,3,1,615.445130110311,415.445130110311,984.554869889689,784.554869889689,984.554869889689,784.554869889689,984.554869889689,415.445130110311,615.445130110311,415.445130110311,615.445130110311,784.554869889689,0,0,4,0,horizontal,horizontal,vertical,horizontal
3b,11,100336,6,33,273,20,F,blocked,variable,homogeneous,4,present,0.595402002334595,1,vertical,vertical,1,2,green,2,4,984.554869889689,415.445130110311,615.445130110311,784.554869889689,984.554869889689,784.554869889689,984.554869889689,415.445130110311,615.445130110311,415.445130110311,615.445130110311,784.554869889689,0,4,0,0,vertical,vertical,vertical,horizontal
3b,11,100336,6,34,274,20,F,blocked,variable,homogeneous,4,present,0.471843004226685,1,horizontal,horizontal,1,2,green,2,1,984.554869889689,415.445130110311,984.554869889689,784.554869889689,984.554869889689,784.554869889689,984.554869889689,415.445130110311,615.445130110311,415.445130110311,615.445130110311,784.554869889689,0,4,0,0,horizontal,horizontal,horizontal,horizontal
3b,11,100336,6,35,275,20,F,blocked,variable,homogeneous,4,present,0.492390155792236,1,vertical,vertical,1,2,red,1,3,984.554869889689,784.554869889689,615.445130110311,415.445130110311,984.554869889689,784.554869889689,984.554869889689,415.445130110311,615.445130110311,415.445130110311,615.445130110311,784.554869889689,4,0,0,0,vertical,horizontal,horizontal,horizontal
