experiment,subject,uniqueID,block,trial,trial_cumulative,age,gender,color_cond_blocking,color_history,shape_type,set_size,distractor,rt,acc,target_orient,response_key,response_made,iti,target_color,target_item,distractor_item,target_X,target_Y,distractor_X,distractor_Y,item1_X,item1_Y,item2_X,item2_Y,item3_X,item3_Y,item4_X,item4_Y,item1_shape,item2_shape,item3_shape,item4_shape,item1_line,item2_line,item3_line,item4_line
3b,17,100340,1,1,1,19,F,blocked,variable,homogeneous,4,present,1.28303790092468,1,vertical,vertical,1,2,red,4,3,615.445130110311,784.554869889689,615.445130110311,415.445130110311,984.554869889689,784.554869889689,984.554869889689,415.445130110311,615.445130110311,415.445130110311,615.445130110311,784.554869889689,0,0,0,4,horizontal,horizontal,horizontal,vertical
3b,17,100340,1,2,2,19,F,blocked,variable,homogeneous,4,present,0.998554944992065,1,horizontal,horizontal,1,2,red,3,4,615.445130110311,415.445130110311,615.445130110311,784.554869889689,984.554869889689,784.554869889689,984.554869889689,415.445130110311,615.445130110311,415.445130110311,615.445130110311,784.554869889689,0,0,4,0,horizontal,horizontal,horizontal,horizontal
3b,17,100340,1,3,3,19,F,blocked,variable,homogeneous,4,present,0.755710124969482,1,vertical,vertical,1,2,red,3,1,615.445130110311,415.445130110311,984.554869889689,784.554869889689,984.554869889689,784.554869889689,984.554869889689,415.445130110311,615.445130110311,415.445130110311,615.445130110311,784.554869889689,0,0,4,0,vertical,horizontal,vertical,vertical
3b,17,100340,1,4,4,19,F,blocked,variable,homogeneous,4,absent,1.29546809196472,1,horizontal,horizontal,1,2,red,4,NaN,615.445130110311,784.554869889689,NaN,NaN,984.554869889689,784.554869889689,984.554869889689,415.445130110311,615.445130110311,415.445130110311,615.445130110311,784.554869889689,0,0,0,4,horizontal,vertical,vertical,horizontal
3b,17,100340,1,5,5,19,F,blocked,variable,homogeneous,4,present,0.683963060379028,1,horizontal,horizontal,1,2,green,2,1,984.554869889689,415.445130110311,984.554869889689,784.554869889689,984.554869889689,784.554869889689,984.554869889689,415.445130110311,615.445130110311,415.445130110311,615.445130110311,784.554869889689,0,4,0,0,horizontal,horizontal,vertical,horizontal
3b,17,100340,1,6,6,19,F,blocked,variable,homogeneous,4,present,0.568303108215332,1,horizontal,horizontal,1,2,red,3,1,615.445130110311,415.445130110311,984.554869889689,784.554869889689,984.554869889689,784.554869889689,984.554869889689,415.445130110311,615.445130110311,415.445130110311,615.445130110311,784.554869889689,0,0,4,0,horizontal,vertical,horizontal,horizontal
3b,17,100340,1,7,7,19,F,blocked,variable,homogeneous,4,absent,0.956472873687744,1,vertical,vertical,1,2,green,2,NaN,984.554869889689,415.445130110311,NaN,NaN,984.554869889689,784.554869889689,984.554869889689,415.445130110311,615.445130110311,415.445130110311,615.445130110311,784.554869889689,0,4,0,0,vertical,vertical,horizontal,horizontal
3b,17,100340,1,8,8,19,F,blocked,variable,homogeneous,4,present,1.03297305107117,1,horizontal,horizontal,1,2,red,3,4,615.445130110311,415.445130110311,615.445130110311,784.554869889689,984.554869889689,784.554869889689,984.554869889689,415.445130110311,615.445130110311,415.445130110311,615.445130110311,784.554869889689,0,0,4,0,vertical,horizontal,horizontal,vertical
3b,17,100340,1,9,9,19,F,blocked,variable,homogeneous,4,present,0.668958902359009,1,vertical,vertical,1,2,green,1,3,984.554869889689,784.554869889689,615.445130110311,415.445130110311,984.554869889689,784.554869889689,984.554869889689,415.445130110311,615.445130110311,415.445130110311,615.445130110311,784.554869889689,4,0,0,0,vertical,horizontal,vertical,vertical
3b,17,100340,1,10,10,19,F,blocked,variable,homogeneous,4,present,0.913362979888916,1,vertical,vertical,1,2,green,1,3,984.554869889689,784.554869889689,615.445130110311,415.445130110311,984.554869889689,784.554869889689,984.554869889689,415.445130110311,615.445130110311,415.445130110311,615.445130110311,784.554869889689,4,0,0,0,vertical,horizontal,vertical,vertical
3b,17,100340,1,11,11,19,F,blocked,variable,homogeneous,4,present,0.493505954742432,1,vertical,vertical,1,2,green,1,2,984.554869889689,784.554869889689,984.554869889689,415.445130110311,984.554869889689,784.554869889689,984.554869889689,415.445130110311,615.445130110311,415.445130110311,615.445130110311,784.554869889689,4,0,0,0,vertical,horizontal,horizontal,vertical
3b,17,100340,1,12,12,19,F,blocked,variable,homogeneous,4,present,0.817917108535767,0,horizontal,vertical,1,2,red,3,4,615.445130110311,415.445130110311,615.445130110311,784.554869889689,984.554869889689,784.554869889689,984.554869889689,415.445130110311,615.445130110311,415.445130110311,615.445130110311,784.554869889689,0,0,4,0,vertical,horizontal,horizontal,vertical
3b,17,100340,1,13,13,19,F,blocked,variable,homogeneous,4,present,0.742225170135498,1,horizontal,horizontal,1,2,green,2,3,984.554869889689,415.445130110311,615.445130110311,415.445130110311,984.554869889689,784.554869889689,984.554869889689,415.445130110311,615.445130110311,415.445130110311,615.445130110311,784.554869889689,0,4,0,0,horizontal,horizontal,horizontal,vertical
3b,17,100340,1,14,14,19,F,blocked,variable,homogeneous,4,present,0.818392992019653,1,horizontal,horizontal,1,2,red,4,1,615.445130110311,784.554869889689,984.554869889689,784.554869889689,984.554869889689,784.554869889689,984.554869889689,415.445130110311,615.445130110311,415.445130110311,615.445130110311,784.554869889689,0,0,0,4,vertical,vertical,vertical,horizontal
3b,17,100340,1,15,15,19,F,blocked,variable,homogeneous,4,present,0.550979137420654,1,vertical,vertical,1,2,green,2,1,984.554869889689,415.445130110311,984.554869889689,784.554869889689,984.554869889689,784.554869889689,984.554869889689,415.445130110311,615.445130110311,415.445130110311,615.445130110311,784.554869889689,0,4,0,0,vertical,vertical,horizontal,vertical
3b,17,100340,1,16,16,19,F,blocked,variable,homogeneous,4,present,0.611223936080933,1,vertical,vertical,1,2,red,1,3,984.554869889689,784.554869889689,615.445130110311,415.445130110311,984.554869889689,784.554869889689,984.554869889689,415.445130110311,615.445130110311,415.445130110311,615.445130110311,784.554869889689,4,0,0,0,vertical,vertical,horizontal,horizontal
3b,17,100340,1,17,17,19,F,blocked,variable,homogeneous,4,absent,0.52754282951355,1,vertical,vertical,1,2,red,2,NaN,984.554869889689,415.445130110311,NaN,NaN,984.554869889689,784.554869889689,984.554869889689,415.445130110311,615.445130110311,415.445130110311,615.445130110311,784.554869889689,0,4,0,0,horizontal,vertical,vertical,vertical
3b,17,100340,1,18,18,19,F,blocked,variable,homogeneous,4,present,1.01174402236938,1,horizontal,horizontal,1,2,red,1,4,984.554869889689,784.554869889689,615.445130110311,784.554869889689,984.554869889689,784.554869889689,984.554869889689,415.445130110311,615.445130110311,415.445130110311,615.445130110311,784.554869889689,4,0,0,0,horizontal,vertical,horizontal,horizontal
3b,17,100340,1,19,19,19,F,blocked,variable,homogeneous,4,present,0.456089019775391,1,vertical,vertical,1,2,green,2,4,984.554869889689,415.445130110311,615.445130110311,784.554869889689,984.554869889689,784.554869889689,984.554869889689,415.445130110311,615.445130110311,415.445130110311,615.445130110311,784.554869889689,0,4,0,0,vertical,vertical,horizontal,vertical
3b,17,100340,1,20,20,19,F,blocked,variable,homogeneous,4,absent,0.532496929168701,1,horizontal,horizontal,1,2,green,4,NaN,615.445130110311,784.554869889689,NaN,NaN,984.554869889689,784.554869889689,984.554869889689,415.445130110311,615.445130110311,415.445130110311,615.445130110311,784.554869889689,0,0,0,4,vertical,horizontal,horizontal,horizontal
3b,17,100340,1,21,21,19,F,blocked,variable,homogeneous,4,present,0.69684910774231,1,vertical,vertical,1,2,red,1,2,984.554869889689,784.554869889689,984.554869889689,415.445130110311,984.554869889689,784.554869889689,984.554869889689,415.445130110311,615.445130110311,415.445130110311,615.445130110311,784.554869889689,4,0,0,0,vertical,vertical,horizontal,vertical
3b,17,100340,1,22,22,19,F,blocked,variable,homogeneous,4,present,0.589191913604736,1,vertical,vertical,1,2,green,1,4,984.554869889689,784.554869889689,615.445130110311,784.554869889689,984.554869889689,784.554869889689,984.554869889689,415.445130110311,615.445130110311,415.445130110311,615.445130110311,784.554869889689,4,0,0,0,vertical,vertical,vertical,horizontal
3b,17,100340,1,23,23,19,F,blocked,variable,homogeneous,4,absent,0.76947808265686,0,horizontal,vertical,1,2,red,1,NaN,984.554869889689,784.554869889689,NaN,NaN,984.554869889689,784.554869889689,984.554869889689,415.445130110311,615.445130110311,415.445130110311,615.445130110311,784.554869889689,4,0,0,0,horizontal,horizontal,vertical,vertical
3b,17,100340,1,24,24,19,F,blocked,variable,homogeneous,4,present,0.709585905075073,1,horizontal,horizontal,1,2,red,4,1,615.445130110311,784.554869889689,984.554869889689,784.554869889689,984.554869889689,784.554869889689,984.554869889689,415.445130110311,615.445130110311,415.445130110311,615.445130110311,784.554869889689,0,0,0,4,vertical,vertical,vertical,horizontal
3b,17,100340,1,25,25,19,F,blocked,variable,homogeneous,4,present,0.48239803314209,1,horizontal,horizontal,1,2,red,4,3,615.445130110311,784.554869889689,615.445130110311,415.445130110311,984.554869889689,784.554869889689,984.554869889689,415.445130110311,615.445130110311,415.445130110311,615.445130110311,784.554869889689,0,0,0,4,vertical,horizontal,horizontal,horizontal
3b,17,100340,1,26,26,19,F,blocked,variable,homogeneous,4,present,0.606380939483643,1,horizontal,horizontal,1,2,green,4,2,615.445130110311,784.554869889689,984.554869889689,415.445130110311,984.554869889689,784.554869889689,984.554869889689,415.445130110311,615.445130110311,415.445130110311,615.445130110311,784.554869889689,0,0,0,4,horizontal,vertical,horizontal,horizontal
3b,17,100340,1,27,27,19,F,blocked,variable,homogeneous,4,absent,0.818557977676392,1,vertical,vertical,1,2,green,1,NaN,984.554869889689,784.554869889689,NaN,NaN,984.554869889689,784.554869889689,984.554869889689,415.445130110311,615.445130110311,415.445130110311,615.445130110311,784.554869889689,4,0,0,0,vertical,vertical,vertical,vertical
3b,17,100340,1,28,28,19,F,blocked,variable,homogeneous,4,absent,0.582828998565674,1,horizontal,horizontal,1,2,green,1,NaN,984.554869889689,784.554869889689,NaN,NaN,984.554869889689,784.554869889689,984.554869889689,415.445130110311,615.445130110311,415.445130110311,615.445130110311,784.554869889689,4,0,0,0,horizontal,vertical,horizontal,vertical
3b,17,100340,1,29,29,19,F,blocked,variable,homogeneous,4,absent,0.923172950744629,1,horizontal,horizontal,1,2,red,4,NaN,615.445130110311,784.554869889689,NaN,NaN,984.554869889689,784.554869889689,984.554869889689,415.445130110311,615.445130110311,415.445130110311,615.445130110311,784.554869889689,0,0,0,4,horizontal,horizontal,vertical,horizontal
3b,17,100340,1,30,30,19,F,blocked,variable,homogeneous,4,present,0.719635963439941,1,horizontal,horizontal,1,2,green,4,2,615.445130110311,784.554869889689,984.554869889689,415.445130110311,984.554869889689,784.554869889689,984.554869889689,415.445130110311,615.445130110311,415.445130110311,615.445130110311,784.554869889689,0,0,0,4,horizontal,horizontal,vertical,horizontal
3b,17,100340,1,31,31,19,F,blocked,variable,homogeneous,4,absent,0.595664978027344,0,vertical,horizontal,1,2,red,1,NaN,984.554869889689,784.554869889689,NaN,NaN,984.554869889689,784.554869889689,984.554869889689,415.445130110311,615.445130110311,415.445130110311,615.445130110311,784.554869889689,4,0,0,0,vertical,horizontal,vertical,horizontal
3b,17,100340,1,32,32,19,F,blocked,variable,homogeneous,4,present,0.824370861053467,1,vertical,vertical,1,2,green,4,3,615.445130110311,784.554869889689,615.445130110311,415.445130110311,984.554869889689,784.554869889689,984.554869889689,415.445130110311,615.445130110311,415.445130110311,615.445130110311,784.554869889689,0,0,0,4,horizontal,vertical,horizontal,vertical
3b,17,100340,1,33,33,19,F,blocked,variable,homogeneous,4,present,1.07649707794189,1,horizontal,horizontal,1,2,green,2,4,984.554869889689,415.445130110311,615.445130110311,784.554869889689,984.554869889689,784.554869889689,984.554869889689,415.445130110311,615.445130110311,415.445130110311,615.445130110311,784.554869889689,0,4,0,0,vertical,horizontal,horizontal,horizontal
3b,17,100340,1,34,34,19,F,blocked,variable,homogeneous,4,absent,NaN,0,vertical,none,0,2,green,4,NaN,615.445130110311,784.554869889689,NaN,NaN,984.554869889689,784.554869889689,984.554869889689,415.445130110311,615.445130110311,415.445130110311,615.445130110311,784.554869889689,0,0,0,4,vertical,vertical,horizontal,vertical
3b,17,100340,1,35,35,19,F,blocked,variable,homogeneous,4,absent,0.700870037078857,1,vertical,vertical,1,2,green,1,NaN,984.554869889689,784.554869889689,NaN,NaN,984.554869889689,784.554869889689,984.554869889689,415.445130110311,615.445130110311,415.445130110311,615.445130110311,784.554869889689,4,0,0,0,vertical,vertical,horizontal,horizontal
3b,17,100340,1,36,36,19,F,blocked,variable,homogeneous,4,present,0.46529483795166,1,vertical,vertical,1,2,green,2,4,984.554869889689,415.445130110311,615.445130110311,784.554869889689,984.554869889689,784.554869889689,984.554869889689,415.445130110311,615.445130110311,415.445130110311,615.445130110311,784.554869889689,0,4,0,0,vertical,vertical,vertical,horizontal
3b,17,100340,1,37,37,19,F,blocked,variable,homogeneous,4,absent,0.645642042160034,1,horizontal,horizontal,1,2,green,3,NaN,615.445130110311,415.445130110311,NaN,NaN,984.554869889689,784.554869889689,984.554869889689,415.445130110311,615.445130110311,415.445130110311,615.445130110311,784.554869889689,0,0,4,0,vertical,horizontal,horizontal,horizontal
3b,17,100340,1,38,38,19,F,blocked,variable,homogeneous,4,present,0.937840938568115,1,vertical,vertical,1,2,green,4,2,615.445130110311,784.554869889689,984.554869889689,415.445130110311,984.554869889689,784.554869889689,984.554869889689,415.445130110311,615.445130110311,415.445130110311,615.445130110311,784.554869889689,0,0,0,4,vertical,vertical,horizontal,vertical
3b,17,100340,1,39,39,19,F,blocked,variable,homogeneous,4,absent,0.71802020072937,1,horizontal,horizontal,1,2,green,2,NaN,984.554869889689,415.445130110311,NaN,NaN,984.554869889689,784.554869889689,984.554869889689,415.445130110311,615.445130110311,415.445130110311,615.445130110311,784.554869889689,0,4,0,0,horizontal,horizontal,horizontal,vertical
3b,17,100340,1,40,40,19,F,blocked,variable,homogeneous,4,present,0.994768142700195,1,vertical,vertical,1,2,green,1,4,984.554869889689,784.554869889689,615.445130110311,784.554869889689,984.554869889689,784.554869889689,984.554869889689,415.445130110311,615.445130110311,415.445130110311,615.445130110311,784.554869889689,4,0,0,0,vertical,vertical,horizontal,vertical
3b,17,100340,1,41,41,19,F,blocked,variable,homogeneous,4,absent,0.494853019714355,1,vertical,vertical,1,2,red,4,NaN,615.445130110311,784.554869889689,NaN,NaN,984.554869889689,784.554869889689,984.554869889689,415.445130110311,615.445130110311,415.445130110311,615.445130110311,784.554869889689,0,0,0,4,vertical,vertical,vertical,vertical
3b,17,100340,1,42,42,19,F,blocked,variable,homogeneous,4,present,0.739327907562256,1,horizontal,horizontal,1,2,green,3,1,615.445130110311,415.445130110311,984.554869889689,784.554869889689,984.554869889689,784.554869889689,984.554869889689,415.445130110311,615.445130110311,415.445130110311,615.445130110311,784.554869889689,0,0,4,0,vertical,vertical,horizontal,horizontal
3b,17,100340,1,43,43,19,F,blocked,variable,homogeneous,4,absent,0.647469043731689,0,horizontal,vertical,1,2,red,4,NaN,615.445130110311,784.554869889689,NaN,NaN,984.554869889689,784.554869889689,984.554869889689,415.445130110311,615.445130110311,415.445130110311,615.445130110311,784.554869889689,0,0,0,4,horizontal,horizontal,horizontal,horizontal
3b,17,100340,1,44,44,19,F,blocked,variable,homogeneous,4,present,1.10776281356812,0,vertical,horizontal,1,2,red,3,2,615.445130110311,415.445130110311,984.554869889689,415.445130110311,984.554869889689,784.554869889689,984.554869889689,415.445130110311,615.445130110311,415.445130110311,615.445130110311,784.554869889689,0,0,4,0,horizontal,horizontal,vertical,horizontal
3b,17,100340,1,45,45,19,F,blocked,variable,homogeneous,4,present,0.960361957550049,1,horizontal,horizontal,1,2,green,4,1,615.445130110311,784.554869889689,984.554869889689,784.554869889689,984.554869889689,784.554869889689,984.554869889689,415.445130110311,615.445130110311,415.445130110311,615.445130110311,784.554869889689,0,0,0,4,horizontal,vertical,vertical,horizontal
3b,17,100340,1,46,46,19,F,blocked,variable,homogeneous,4,absent,0.532536029815674,1,vertical,vertical,1,2,red,1,NaN,984.554869889689,784.554869889689,NaN,NaN,984.554869889689,784.554869889689,984.554869889689,415.445130110311,615.445130110311,415.445130110311,615.445130110311,784.554869889689,4,0,0,0,vertical,vertical,horizontal,vertical
3b,17,100340,1,47,47,19,F,blocked,variable,homogeneous,4,present,1.56082487106323,1,horizontal,horizontal,1,2,red,2,1,984.554869889689,415.445130110311,984.554869889689,784.554869889689,984.554869889689,784.554869889689,984.554869889689,415.445130110311,615.445130110311,415.445130110311,615.445130110311,784.554869889689,0,4,0,0,vertical,horizontal,vertical,vertical
3b,17,100340,1,48,48,19,F,blocked,variable,homogeneous,4,present,1.31705498695374,1,vertical,vertical,1,2,green,3,1,615.445130110311,415.445130110311,984.554869889689,784.554869889689,984.554869889689,784.554869889689,984.554869889689,415.445130110311,615.445130110311,415.445130110311,615.445130110311,784.554869889689,0,0,4,0,vertical,horizontal,vertical,vertical
3b,17,100340,2,1,49,19,F,blocked,variable,homogeneous,4,present,0.874630928039551,1,horizontal,horizontal,1,2,red,3,1,615.445130110311,415.445130110311,984.554869889689,784.554869889689,984.554869889689,784.554869889689,984.554869889689,415.445130110311,615.445130110311,415.445130110311,615.445130110311,784.554869889689,0,0,4,0,horizontal,horizontal,horizontal,horizontal
3b,17,100340,2,2,50,19,F,blocked,variable,homogeneous,4,present,0.590982913970947,1,horizontal,horizontal,1,2,red,3,1,615.445130110311,415.445130110311,984.554869889689,784.554869889689,984.554869889689,784.554869889689,984.554869889689,415.445130110311,615.445130110311,415.445130110311,615.445130110311,784.554869889689,0,0,4,0,horizontal,vertical,horizontal,horizontal
3b,17,100340,2,3,51,19,F,blocked,variable,homogeneous,4,present,0.595136165618896,1,horizontal,horizontal,1,2,green,1,3,984.554869889689,784.554869889689,615.445130110311,415.445130110311,984.554869889689,784.554869889689,984.554869889689,415.445130110311,615.445130110311,415.445130110311,615.445130110311,784.554869889689,4,0,0,0,horizontal,horizontal,horizontal,horizontal
3b,17,100340,2,4,52,19,F,blocked,variable,homogeneous,4,present,0.655300855636597,1,vertical,vertical,1,2,red,2,4,984.554869889689,415.445130110311,615.445130110311,784.554869889689,984.554869889689,784.554869889689,984.554869889689,415.445130110311,615.445130110311,415.445130110311,615.445130110311,784.554869889689,0,4,0,0,vertical,vertical,vertical,horizontal
3b,17,100340,2,5,53,19,F,blocked,variable,homogeneous,4,absent,0.755685806274414,0,vertical,horizontal,1,2,green,1,NaN,984.554869889689,784.554869889689,NaN,NaN,984.554869889689,784.554869889689,984.554869889689,415.445130110311,615.445130110311,415.445130110311,615.445130110311,784.554869889689,4,0,0,0,vertical,horizontal,horizontal,horizontal
3b,17,100340,2,6,54,19,F,blocked,variable,homogeneous,4,present,1.43986201286316,1,vertical,vertical,1,2,red,4,2,615.445130110311,784.554869889689,984.554869889689,415.445130110311,984.554869889689,784.554869889689,984.554869889689,415.445130110311,615.445130110311,415.445130110311,615.445130110311,784.554869889689,0,0,0,4,vertical,horizontal,vertical,vertical
3b,17,100340,2,7,55,19,F,blocked,variable,homogeneous,4,present,0.860331058502197,1,horizontal,horizontal,1,2,red,1,2,984.554869889689,784.554869889689,984.554869889689,415.445130110311,984.554869889689,784.554869889689,984.554869889689,415.445130110311,615.445130110311,415.445130110311,615.445130110311,784.554869889689,4,0,0,0,horizontal,horizontal,horizontal,horizontal
3b,17,100340,2,8,56,19,F,blocked,variable,homogeneous,4,absent,0.536688804626465,1,horizontal,horizontal,1,2,red,4,NaN,615.445130110311,784.554869889689,NaN,NaN,984.554869889689,784.554869889689,984.554869889689,415.445130110311,615.445130110311,415.445130110311,615.445130110311,784.554869889689,0,0,0,4,vertical,horizontal,vertical,horizontal
3b,17,100340,2,9,57,19,F,blocked,variable,homogeneous,4,present,0.708976984024048,0,vertical,horizontal,1,2,green,1,2,984.554869889689,784.554869889689,984.554869889689,415.445130110311,984.554869889689,784.554869889689,984.554869889689,415.445130110311,615.445130110311,415.445130110311,615.445130110311,784.554869889689,4,0,0,0,vertical,horizontal,vertical,vertical
3b,17,100340,2,10,58,19,F,blocked,variable,homogeneous,4,absent,0.625170946121216,1,horizontal,horizontal,1,2,green,4,NaN,615.445130110311,784.554869889689,NaN,NaN,984.554869889689,784.554869889689,984.554869889689,415.445130110311,615.445130110311,415.445130110311,615.445130110311,784.554869889689,0,0,0,4,vertical,horizontal,vertical,horizontal
3b,17,100340,2,11,59,19,F,blocked,variable,homogeneous,4,absent,0.66956901550293,1,horizontal,horizontal,1,2,green,4,NaN,615.445130110311,784.554869889689,NaN,NaN,984.554869889689,784.554869889689,984.554869889689,415.445130110311,615.445130110311,415.445130110311,615.445130110311,784.554869889689,0,0,0,4,vertical,vertical,vertical,horizontal
3b,17,100340,2,12,60,19,F,blocked,variable,homogeneous,4,present,0.689966917037964,1,horizontal,horizontal,1,2,green,3,4,615.445130110311,415.445130110311,615.445130110311,784.554869889689,984.554869889689,784.554869889689,984.554869889689,415.445130110311,615.445130110311,415.445130110311,615.445130110311,784.554869889689,0,0,4,0,vertical,vertical,horizontal,horizontal
3b,17,100340,2,13,61,19,F,blocked,variable,homogeneous,4,present,1.45400881767273,1,horizontal,horizontal,1,2,red,1,3,984.554869889689,784.554869889689,615.445130110311,415.445130110311,984.554869889689,784.554869889689,984.554869889689,415.445130110311,615.445130110311,415.445130110311,615.445130110311,784.554869889689,4,0,0,0,horizontal,vertical,horizontal,vertical
3b,17,100340,2,14,62,19,F,blocked,variable,homogeneous,4,absent,0.610608100891113,1,vertical,vertical,1,2,green,4,NaN,615.445130110311,784.554869889689,NaN,NaN,984.554869889689,784.554869889689,984.554869889689,415.445130110311,615.445130110311,415.445130110311,615.445130110311,784.554869889689,0,0,0,4,horizontal,vertical,vertical,vertical
3b,17,100340,2,15,63,19,F,blocked,variable,homogeneous,4,present,0.806677103042603,1,horizontal,horizontal,1,2,red,3,1,615.445130110311,415.445130110311,984.554869889689,784.554869889689,984.554869889689,784.554869889689,984.554869889689,415.445130110311,615.445130110311,415.445130110311,615.445130110311,784.554869889689,0,0,4,0,horizontal,horizontal,horizontal,vertical
3b,17,100340,2,16,64,19,F,blocked,variable,homogeneous,4,present,0.62713098526001,1,horizontal,horizontal,1,2,green,2,1,984.554869889689,415.445130110311,984.554869889689,784.554869889689,984.554869889689,784.554869889689,984.554869889689,415.445130110311,615.445130110311,415.445130110311,615.445130110311,784.554869889689,0,4,0,0,vertical,horizontal,vertical,horizontal
3b,17,100340,2,17,65,19,F,blocked,variable,homogeneous,4,present,0.74335789680481,1,vertical,vertical,1,2,red,4,2,615.445130110311,784.554869889689,984.554869889689,415.445130110311,984.554869889689,784.554869889689,984.554869889689,415.445130110311,615.445130110311,415.445130110311,615.445130110311,784.554869889689,0,0,0,4,vertical,vertical,horizontal,vertical
3b,17,100340,2,18,66,19,F,blocked,variable,homogeneous,4,present,0.539786100387573,1,vertical,vertical,1,2,red,1,2,984.554869889689,784.554869889689,984.554869889689,415.445130110311,984.554869889689,784.554869889689,984.554869889689,415.445130110311,615.445130110311,415.445130110311,615.445130110311,784.554869889689,4,0,0,0,vertical,vertical,horizontal,horizontal
3b,17,100340,2,19,67,19,F,blocked,variable,homogeneous,4,present,0.543921947479248,1,vertical,vertical,1,2,green,3,4,615.445130110311,415.445130110311,615.445130110311,784.554869889689,984.554869889689,784.554869889689,984.554869889689,415.445130110311,615.445130110311,415.445130110311,615.445130110311,784.554869889689,0,0,4,0,vertical,horizontal,vertical,horizontal
3b,17,100340,2,20,68,19,F,blocked,variable,homogeneous,4,present,0.676394939422607,1,horizontal,horizontal,1,2,green,4,2,615.445130110311,784.554869889689,984.554869889689,415.445130110311,984.554869889689,784.554869889689,984.554869889689,415.445130110311,615.445130110311,415.445130110311,615.445130110311,784.554869889689,0,0,0,4,vertical,vertical,horizontal,horizontal
3b,17,100340,2,21,69,19,F,blocked,variable,homogeneous,4,absent,0.712701082229614,1,vertical,vertical,1,2,green,3,NaN,615.445130110311,415.445130110311,NaN,NaN,984.554869889689,784.554869889689,984.554869889689,415.445130110311,615.445130110311,415.445130110311,615.445130110311,784.554869889689,0,0,4,0,horizontal,horizontal,vertical,horizontal
3b,17,100340,2,22,70,19,F,blocked,variable,homogeneous,4,absent,0.429012060165405,1,vertical,vertical,1,2,green,3,NaN,615.445130110311,415.445130110311,NaN,NaN,984.554869889689,784.554869889689,984.554869889689,415.445130110311,615.445130110311,415.445130110311,615.445130110311,784.554869889689,0,0,4,0,horizontal,vertical,vertical,horizontal
3b,17,100340,2,23,71,19,F,blocked,variable,homogeneous,4,absent,0.529366970062256,1,horizontal,horizontal,1,2,red,3,NaN,615.445130110311,415.445130110311,NaN,NaN,984.554869889689,784.554869889689,984.554869889689,415.445130110311,615.445130110311,415.445130110311,615.445130110311,784.554869889689,0,0,4,0,horizontal,vertical,horizontal,horizontal
3b,17,100340,2,24,72,19,F,blocked,variable,homogeneous,4,present,0.493200063705444,1,horizontal,horizontal,1,2,red,3,1,615.445130110311,415.445130110311,984.554869889689,784.554869889689,984.554869889689,784.554869889689,984.554869889689,415.445130110311,615.445130110311,415.445130110311,615.445130110311,784.554869889689,0,0,4,0,vertical,vertical,horizontal,vertical
3b,17,100340,2,25,73,19,F,blocked,variable,homogeneous,4,present,0.617883205413818,1,horizontal,horizontal,1,2,red,2,1,984.554869889689,415.445130110311,984.554869889689,784.554869889689,984.554869889689,784.554869889689,984.554869889689,415.445130110311,615.445130110311,415.445130110311,615.445130110311,784.554869889689,0,4,0,0,horizontal,horizontal,vertical,horizontal
3b,17,100340,2,26,74,19,F,blocked,variable,homogeneous,4,present,0.869984149932861,1,vertical,vertical,1,2,green,1,3,984.554869889689,784.554869889689,615.445130110311,415.445130110311,984.554869889689,784.554869889689,984.554869889689,415.445130110311,615.445130110311,415.445130110311,615.445130110311,784.554869889689,4,0,0,0,vertical,horizontal,vertical,horizontal
3b,17,100340,2,27,75,19,F,blocked,variable,homogeneous,4,present,0.51457691192627,1,vertical,vertical,1,2,red,1,3,984.554869889689,784.554869889689,615.445130110311,415.445130110311,984.554869889689,784.554869889689,984.554869889689,415.445130110311,615.445130110311,415.445130110311,615.445130110311,784.554869889689,4,0,0,0,vertical,horizontal,horizontal,vertical
3b,17,100340,2,28,76,19,F,blocked,variable,homogeneous,4,absent,0.958698034286499,1,horizontal,horizontal,1,2,red,4,NaN,615.445130110311,784.554869889689,NaN,NaN,984.554869889689,784.554869889689,984.554869889689,415.445130110311,615.445130110311,415.445130110311,615.445130110311,784.554869889689,0,0,0,4,horizontal,vertical,vertical,horizontal
3b,17,100340,2,29,77,19,F,blocked,variable,homogeneous,4,present,0.619154930114746,1,vertical,vertical,1,2,green,4,3,615.445130110311,784.554869889689,615.445130110311,415.445130110311,984.554869889689,784.554869889689,984.554869889689,415.445130110311,615.445130110311,415.445130110311,615.445130110311,784.554869889689,0,0,0,4,vertical,vertical,horizontal,vertical
3b,17,100340,2,30,78,19,F,blocked,variable,homogeneous,4,present,0.471370220184326,1,vertical,vertical,1,2,green,1,2,984.554869889689,784.554869889689,984.554869889689,415.445130110311,984.554869889689,784.554869889689,984.554869889689,415.445130110311,615.445130110311,415.445130110311,615.445130110311,784.554869889689,4,0,0,0,vertical,vertical,horizontal,horizontal
3b,17,100340,2,31,79,19,F,blocked,variable,homogeneous,4,absent,0.47577691078186,1,vertical,vertical,1,2,green,3,NaN,615.445130110311,415.445130110311,NaN,NaN,984.554869889689,784.554869889689,984.554869889689,415.445130110311,615.445130110311,415.445130110311,615.445130110311,784.554869889689,0,0,4,0,vertical,vertical,vertical,horizontal
3b,17,100340,2,32,80,19,F,blocked,variable,homogeneous,4,present,0.671937942504883,1,horizontal,horizontal,1,2,red,1,3,984.554869889689,784.554869889689,615.445130110311,415.445130110311,984.554869889689,784.554869889689,984.554869889689,415.445130110311,615.445130110311,415.445130110311,615.445130110311,784.554869889689,4,0,0,0,horizontal,vertical,horizontal,horizontal
3b,17,100340,2,33,81,19,F,blocked,variable,homogeneous,4,absent,0.620357036590576,1,horizontal,horizontal,1,2,red,2,NaN,984.554869889689,415.445130110311,NaN,NaN,984.554869889689,784.554869889689,984.554869889689,415.445130110311,615.445130110311,415.445130110311,615.445130110311,784.554869889689,0,4,0,0,horizontal,horizontal,horizontal,vertical
3b,17,100340,2,34,82,19,F,blocked,variable,homogeneous,4,present,0.552706956863403,1,horizontal,horizontal,1,2,green,2,4,984.554869889689,415.445130110311,615.445130110311,784.554869889689,984.554869889689,784.554869889689,984.554869889689,415.445130110311,615.445130110311,415.445130110311,615.445130110311,784.554869889689,0,4,0,0,vertical,horizontal,vertical,vertical
3b,17,100340,2,35,83,19,F,blocked,variable,homogeneous,4,absent,0.532937049865723,1,horizontal,horizontal,1,2,green,2,NaN,984.554869889689,415.445130110311,NaN,NaN,984.554869889689,784.554869889689,984.554869889689,415.445130110311,615.445130110311,415.445130110311,615.445130110311,784.554869889689,0,4,0,0,horizontal,horizontal,horizontal,vertical
3b,17,100340,2,36,84,19,F,blocked,variable,homogeneous,4,absent,0.505360841751099,1,horizontal,horizontal,1,2,red,3,NaN,615.445130110311,415.445130110311,NaN,NaN,984.554869889689,784.554869889689,984.554869889689,415.445130110311,615.445130110311,415.445130110311,615.445130110311,784.554869889689,0,0,4,0,horizontal,horizontal,horizontal,horizontal
3b,17,100340,2,37,85,19,F,blocked,variable,homogeneous,4,present,0.605494022369385,1,vertical,vertical,1,2,green,2,1,984.554869889689,415.445130110311,984.554869889689,784.554869889689,984.554869889689,784.554869889689,984.554869889689,415.445130110311,615.445130110311,415.445130110311,615.445130110311,784.554869889689,0,4,0,0,vertical,vertical,vertical,vertical
3b,17,100340,2,38,86,19,F,blocked,variable,homogeneous,4,absent,0.922056198120117,0,vertical,horizontal,1,2,red,4,NaN,615.445130110311,784.554869889689,NaN,NaN,984.554869889689,784.554869889689,984.554869889689,415.445130110311,615.445130110311,415.445130110311,615.445130110311,784.554869889689,0,0,0,4,vertical,horizontal,vertical,vertical
3b,17,100340,2,39,87,19,F,blocked,variable,homogeneous,4,present,0.76600193977356,0,vertical,horizontal,1,2,red,4,1,615.445130110311,784.554869889689,984.554869889689,784.554869889689,984.554869889689,784.554869889689,984.554869889689,415.445130110311,615.445130110311,415.445130110311,615.445130110311,784.554869889689,0,0,0,4,vertical,horizontal,vertical,vertical
3b,17,100340,2,40,88,19,F,blocked,variable,homogeneous,4,present,0.586438894271851,1,horizontal,horizontal,1,2,red,4,2,615.445130110311,784.554869889689,984.554869889689,415.445130110311,984.554869889689,784.554869889689,984.554869889689,415.445130110311,615.445130110311,415.445130110311,615.445130110311,784.554869889689,0,0,0,4,horizontal,vertical,horizontal,horizontal
3b,17,100340,2,41,89,19,F,blocked,variable,homogeneous,4,absent,0.862775087356567,1,vertical,vertical,1,2,green,2,NaN,984.554869889689,415.445130110311,NaN,NaN,984.554869889689,784.554869889689,984.554869889689,415.445130110311,615.445130110311,415.445130110311,615.445130110311,784.554869889689,0,4,0,0,horizontal,vertical,horizontal,vertical
3b,17,100340,2,42,90,19,F,blocked,variable,homogeneous,4,present,0.875123023986816,1,horizontal,horizontal,1,2,green,2,3,984.554869889689,415.445130110311,615.445130110311,415.445130110311,984.554869889689,784.554869889689,984.554869889689,415.445130110311,615.445130110311,415.445130110311,615.445130110311,784.554869889689,0,4,0,0,vertical,horizontal,horizontal,vertical
3b,17,100340,2,43,91,19,F,blocked,variable,homogeneous,4,present,0.463264942169189,1,horizontal,horizontal,1,2,green,4,2,615.445130110311,784.554869889689,984.554869889689,415.445130110311,984.554869889689,784.554869889689,984.554869889689,415.445130110311,615.445130110311,415.445130110311,615.445130110311,784.554869889689,0,0,0,4,horizontal,horizontal,horizontal,horizontal
3b,17,100340,2,44,92,19,F,blocked,variable,homogeneous,4,present,0.651839017868042,1,vertical,vertical,1,2,green,2,1,984.554869889689,415.445130110311,984.554869889689,784.554869889689,984.554869889689,784.554869889689,984.554869889689,415.445130110311,615.445130110311,415.445130110311,615.445130110311,784.554869889689,0,4,0,0,vertical,vertical,horizontal,vertical
3b,17,100340,2,45,93,19,F,blocked,variable,homogeneous,4,present,0.768004179000854,1,vertical,vertical,1,2,red,3,1,615.445130110311,415.445130110311,984.554869889689,784.554869889689,984.554869889689,784.554869889689,984.554869889689,415.445130110311,615.445130110311,415.445130110311,615.445130110311,784.554869889689,0,0,4,0,vertical,horizontal,vertical,vertical
3b,17,100340,2,46,94,19,F,blocked,variable,homogeneous,4,absent,0.540449142456055,1,vertical,vertical,1,2,red,2,NaN,984.554869889689,415.445130110311,NaN,NaN,984.554869889689,784.554869889689,984.554869889689,415.445130110311,615.445130110311,415.445130110311,615.445130110311,784.554869889689,0,4,0,0,vertical,vertical,vertical,vertical
3b,17,100340,2,47,95,19,F,blocked,variable,homogeneous,4,present,0.552724123001099,1,vertical,vertical,1,2,green,3,1,615.445130110311,415.445130110311,984.554869889689,784.554869889689,984.554869889689,784.554869889689,984.554869889689,415.445130110311,615.445130110311,415.445130110311,615.445130110311,784.554869889689,0,0,4,0,vertical,horizontal,vertical,horizontal
3b,17,100340,2,48,96,19,F,blocked,variable,homogeneous,4,present,0.564909934997559,1,vertical,vertical,1,2,green,2,4,984.554869889689,415.445130110311,615.445130110311,784.554869889689,984.554869889689,784.554869889689,984.554869889689,415.445130110311,615.445130110311,415.445130110311,615.445130110311,784.554869889689,0,4,0,0,vertical,vertical,horizontal,horizontal
3b,17,100340,3,1,97,19,F,blocked,variable,homogeneous,4,present,0.838415861129761,1,horizontal,horizontal,1,2,red,3,2,615.445130110311,415.445130110311,984.554869889689,415.445130110311,984.554869889689,784.554869889689,984.554869889689,415.445130110311,615.445130110311,415.445130110311,615.445130110311,784.554869889689,0,0,4,0,vertical,horizontal,horizontal,vertical
3b,17,100340,3,2,98,19,F,blocked,variable,homogeneous,4,absent,0.682984113693237,1,vertical,vertical,1,2,green,4,NaN,615.445130110311,784.554869889689,NaN,NaN,984.554869889689,784.554869889689,984.554869889689,415.445130110311,615.445130110311,415.445130110311,615.445130110311,784.554869889689,0,0,0,4,horizontal,horizontal,horizontal,vertical
3b,17,100340,3,3,99,19,F,blocked,variable,homogeneous,4,present,0.455250978469849,1,vertical,vertical,1,2,red,3,2,615.445130110311,415.445130110311,984.554869889689,415.445130110311,984.554869889689,784.554869889689,984.554869889689,415.445130110311,615.445130110311,415.445130110311,615.445130110311,784.554869889689,0,0,4,0,vertical,vertical,vertical,vertical
3b,17,100340,3,4,100,19,F,blocked,variable,homogeneous,4,present,0.379324913024902,1,vertical,vertical,1,2,green,2,4,984.554869889689,415.445130110311,615.445130110311,784.554869889689,984.554869889689,784.554869889689,984.554869889689,415.445130110311,615.445130110311,415.445130110311,615.445130110311,784.554869889689,0,4,0,0,vertical,vertical,vertical,vertical
3b,17,100340,3,5,101,19,F,blocked,variable,homogeneous,4,absent,0.519915103912354,1,vertical,vertical,1,2,green,1,NaN,984.554869889689,784.554869889689,NaN,NaN,984.554869889689,784.554869889689,984.554869889689,415.445130110311,615.445130110311,415.445130110311,615.445130110311,784.554869889689,4,0,0,0,vertical,horizontal,horizontal,vertical
3b,17,100340,3,6,102,19,F,blocked,variable,homogeneous,4,present,0.596134901046753,1,vertical,vertical,1,2,red,4,2,615.445130110311,784.554869889689,984.554869889689,415.445130110311,984.554869889689,784.554869889689,984.554869889689,415.445130110311,615.445130110311,415.445130110311,615.445130110311,784.554869889689,0,0,0,4,horizontal,horizontal,horizontal,vertical
3b,17,100340,3,7,103,19,F,blocked,variable,homogeneous,4,present,0.52810001373291,1,horizontal,horizontal,1,2,red,4,2,615.445130110311,784.554869889689,984.554869889689,415.445130110311,984.554869889689,784.554869889689,984.554869889689,415.445130110311,615.445130110311,415.445130110311,615.445130110311,784.554869889689,0,0,0,4,vertical,vertical,horizontal,horizontal
3b,17,100340,3,8,104,19,F,blocked,variable,homogeneous,4,absent,0.620710134506226,1,horizontal,horizontal,1,2,green,1,NaN,984.554869889689,784.554869889689,NaN,NaN,984.554869889689,784.554869889689,984.554869889689,415.445130110311,615.445130110311,415.445130110311,615.445130110311,784.554869889689,4,0,0,0,horizontal,vertical,vertical,vertical
3b,17,100340,3,9,105,19,F,blocked,variable,homogeneous,4,present,0.52089786529541,1,vertical,vertical,1,2,green,4,3,615.445130110311,784.554869889689,615.445130110311,415.445130110311,984.554869889689,784.554869889689,984.554869889689,415.445130110311,615.445130110311,415.445130110311,615.445130110311,784.554869889689,0,0,0,4,vertical,vertical,horizontal,vertical
3b,17,100340,3,10,106,19,F,blocked,variable,homogeneous,4,present,1.04531311988831,1,horizontal,horizontal,1,2,red,2,1,984.554869889689,415.445130110311,984.554869889689,784.554869889689,984.554869889689,784.554869889689,984.554869889689,415.445130110311,615.445130110311,415.445130110311,615.445130110311,784.554869889689,0,4,0,0,vertical,horizontal,horizontal,horizontal
3b,17,100340,3,11,107,19,F,blocked,variable,homogeneous,4,absent,0.57768702507019,1,horizontal,horizontal,1,2,green,2,NaN,984.554869889689,415.445130110311,NaN,NaN,984.554869889689,784.554869889689,984.554869889689,415.445130110311,615.445130110311,415.445130110311,615.445130110311,784.554869889689,0,4,0,0,vertical,horizontal,horizontal,vertical
3b,17,100340,3,12,108,19,F,blocked,variable,homogeneous,4,present,0.549838066101074,1,vertical,vertical,1,2,red,2,3,984.554869889689,415.445130110311,615.445130110311,415.445130110311,984.554869889689,784.554869889689,984.554869889689,415.445130110311,615.445130110311,415.445130110311,615.445130110311,784.554869889689,0,4,0,0,vertical,vertical,vertical,vertical
3b,17,100340,3,13,109,19,F,blocked,variable,homogeneous,4,absent,0.498197078704834,0,horizontal,vertical,1,2,red,2,NaN,984.554869889689,415.445130110311,NaN,NaN,984.554869889689,784.554869889689,984.554869889689,415.445130110311,615.445130110311,415.445130110311,615.445130110311,784.554869889689,0,4,0,0,horizontal,horizontal,horizontal,horizontal
3b,17,100340,3,14,110,19,F,blocked,variable,homogeneous,4,absent,0.894634962081909,1,vertical,vertical,1,2,red,1,NaN,984.554869889689,784.554869889689,NaN,NaN,984.554869889689,784.554869889689,984.554869889689,415.445130110311,615.445130110311,415.445130110311,615.445130110311,784.554869889689,4,0,0,0,vertical,vertical,horizontal,vertical
3b,17,100340,3,15,111,19,F,blocked,variable,homogeneous,4,present,0.858872890472412,1,horizontal,horizontal,1,2,green,2,4,984.554869889689,415.445130110311,615.445130110311,784.554869889689,984.554869889689,784.554869889689,984.554869889689,415.445130110311,615.445130110311,415.445130110311,615.445130110311,784.554869889689,0,4,0,0,horizontal,horizontal,horizontal,horizontal
3b,17,100340,3,16,112,19,F,blocked,variable,homogeneous,4,absent,0.543133974075317,1,vertical,vertical,1,2,red,2,NaN,984.554869889689,415.445130110311,NaN,NaN,984.554869889689,784.554869889689,984.554869889689,415.445130110311,615.445130110311,415.445130110311,615.445130110311,784.554869889689,0,4,0,0,horizontal,vertical,vertical,horizontal
3b,17,100340,3,17,113,19,F,blocked,variable,homogeneous,4,present,0.619389057159424,1,horizontal,horizontal,1,2,green,4,1,615.445130110311,784.554869889689,984.554869889689,784.554869889689,984.554869889689,784.554869889689,984.554869889689,415.445130110311,615.445130110311,415.445130110311,615.445130110311,784.554869889689,0,0,0,4,vertical,vertical,horizontal,horizontal
3b,17,100340,3,18,114,19,F,blocked,variable,homogeneous,4,present,0.495791912078857,1,vertical,vertical,1,2,red,1,3,984.554869889689,784.554869889689,615.445130110311,415.445130110311,984.554869889689,784.554869889689,984.554869889689,415.445130110311,615.445130110311,415.445130110311,615.445130110311,784.554869889689,4,0,0,0,vertical,horizontal,vertical,horizontal
3b,17,100340,3,19,115,19,F,blocked,variable,homogeneous,4,absent,0.540102958679199,1,horizontal,horizontal,1,2,green,3,NaN,615.445130110311,415.445130110311,NaN,NaN,984.554869889689,784.554869889689,984.554869889689,415.445130110311,615.445130110311,415.445130110311,615.445130110311,784.554869889689,0,0,4,0,vertical,horizontal,horizontal,horizontal
3b,17,100340,3,20,116,19,F,blocked,variable,homogeneous,4,absent,0.744219779968262,1,horizontal,horizontal,1,2,red,4,NaN,615.445130110311,784.554869889689,NaN,NaN,984.554869889689,784.554869889689,984.554869889689,415.445130110311,615.445130110311,415.445130110311,615.445130110311,784.554869889689,0,0,0,4,vertical,horizontal,vertical,horizontal
3b,17,100340,3,21,117,19,F,blocked,variable,homogeneous,4,absent,0.428743839263916,1,vertical,vertical,1,2,green,1,NaN,984.554869889689,784.554869889689,NaN,NaN,984.554869889689,784.554869889689,984.554869889689,415.445130110311,615.445130110311,415.445130110311,615.445130110311,784.554869889689,4,0,0,0,vertical,vertical,horizontal,vertical
3b,17,100340,3,22,118,19,F,blocked,variable,homogeneous,4,absent,0.456703901290894,1,horizontal,horizontal,1,2,green,3,NaN,615.445130110311,415.445130110311,NaN,NaN,984.554869889689,784.554869889689,984.554869889689,415.445130110311,615.445130110311,415.445130110311,615.445130110311,784.554869889689,0,0,4,0,horizontal,vertical,horizontal,horizontal
3b,17,100340,3,23,119,19,F,blocked,variable,homogeneous,4,present,0.589354991912842,1,horizontal,horizontal,1,2,green,4,3,615.445130110311,784.554869889689,615.445130110311,415.445130110311,984.554869889689,784.554869889689,984.554869889689,415.445130110311,615.445130110311,415.445130110311,615.445130110311,784.554869889689,0,0,0,4,horizontal,horizontal,vertical,horizontal
3b,17,100340,3,24,120,19,F,blocked,variable,homogeneous,4,absent,0.505632877349854,1,vertical,vertical,1,2,red,2,NaN,984.554869889689,415.445130110311,NaN,NaN,984.554869889689,784.554869889689,984.554869889689,415.445130110311,615.445130110311,415.445130110311,615.445130110311,784.554869889689,0,4,0,0,horizontal,vertical,horizontal,vertical
3b,17,100340,3,25,121,19,F,blocked,variable,homogeneous,4,present,0.565905094146729,1,horizontal,horizontal,1,2,red,4,3,615.445130110311,784.554869889689,615.445130110311,415.445130110311,984.554869889689,784.554869889689,984.554869889689,415.445130110311,615.445130110311,415.445130110311,615.445130110311,784.554869889689,0,0,0,4,horizontal,vertical,horizontal,horizontal
3b,17,100340,3,26,122,19,F,blocked,variable,homogeneous,4,present,0.650247097015381,1,horizontal,horizontal,1,2,green,4,1,615.445130110311,784.554869889689,984.554869889689,784.554869889689,984.554869889689,784.554869889689,984.554869889689,415.445130110311,615.445130110311,415.445130110311,615.445130110311,784.554869889689,0,0,0,4,vertical,horizontal,horizontal,horizontal
3b,17,100340,3,27,123,19,F,blocked,variable,homogeneous,4,absent,0.574402093887329,1,horizontal,horizontal,1,2,green,1,NaN,984.554869889689,784.554869889689,NaN,NaN,984.554869889689,784.554869889689,984.554869889689,415.445130110311,615.445130110311,415.445130110311,615.445130110311,784.554869889689,4,0,0,0,horizontal,horizontal,horizontal,horizontal
3b,17,100340,3,28,124,19,F,blocked,variable,homogeneous,4,absent,0.466743946075439,1,horizontal,horizontal,1,2,red,4,NaN,615.445130110311,784.554869889689,NaN,NaN,984.554869889689,784.554869889689,984.554869889689,415.445130110311,615.445130110311,415.445130110311,615.445130110311,784.554869889689,0,0,0,4,vertical,horizontal,vertical,horizontal
3b,17,100340,3,29,125,19,F,blocked,variable,homogeneous,4,present,0.599224090576172,1,vertical,vertical,1,2,green,1,2,984.554869889689,784.554869889689,984.554869889689,415.445130110311,984.554869889689,784.554869889689,984.554869889689,415.445130110311,615.445130110311,415.445130110311,615.445130110311,784.554869889689,4,0,0,0,vertical,vertical,horizontal,horizontal
3b,17,100340,3,30,126,19,F,blocked,variable,homogeneous,4,present,0.515689134597778,0,vertical,horizontal,1,2,red,4,1,615.445130110311,784.554869889689,984.554869889689,784.554869889689,984.554869889689,784.554869889689,984.554869889689,415.445130110311,615.445130110311,415.445130110311,615.445130110311,784.554869889689,0,0,0,4,vertical,horizontal,vertical,vertical
3b,17,100340,3,31,127,19,F,blocked,variable,homogeneous,4,present,0.879852056503296,1,vertical,vertical,1,2,red,2,1,984.554869889689,415.445130110311,984.554869889689,784.554869889689,984.554869889689,784.554869889689,984.554869889689,415.445130110311,615.445130110311,415.445130110311,615.445130110311,784.554869889689,0,4,0,0,horizontal,vertical,vertical,horizontal
3b,17,100340,3,32,128,19,F,blocked,variable,homogeneous,4,present,1.32426404953003,1,horizontal,horizontal,1,2,red,3,4,615.445130110311,415.445130110311,615.445130110311,784.554869889689,984.554869889689,784.554869889689,984.554869889689,415.445130110311,615.445130110311,415.445130110311,615.445130110311,784.554869889689,0,0,4,0,vertical,vertical,horizontal,vertical
3b,17,100340,3,33,129,19,F,blocked,variable,homogeneous,4,present,0.544394016265869,1,horizontal,horizontal,1,2,red,2,4,984.554869889689,415.445130110311,615.445130110311,784.554869889689,984.554869889689,784.554869889689,984.554869889689,415.445130110311,615.445130110311,415.445130110311,615.445130110311,784.554869889689,0,4,0,0,vertical,horizontal,horizontal,horizontal
3b,17,100340,3,34,130,19,F,blocked,variable,homogeneous,4,present,0.556646823883057,1,vertical,vertical,1,2,green,1,3,984.554869889689,784.554869889689,615.445130110311,415.445130110311,984.554869889689,784.554869889689,984.554869889689,415.445130110311,615.445130110311,415.445130110311,615.445130110311,784.554869889689,4,0,0,0,vertical,horizontal,horizontal,horizontal
3b,17,100340,3,35,131,19,F,blocked,variable,homogeneous,4,present,0.672934055328369,1,horizontal,horizontal,1,2,red,2,4,984.554869889689,415.445130110311,615.445130110311,784.554869889689,984.554869889689,784.554869889689,984.554869889689,415.445130110311,615.445130110311,415.445130110311,615.445130110311,784.554869889689,0,4,0,0,vertical,horizontal,horizontal,vertical
3b,17,100340,3,36,132,19,F,blocked,variable,homogeneous,4,present,0.485279083251953,1,vertical,vertical,1,2,green,3,4,615.445130110311,415.445130110311,615.445130110311,784.554869889689,984.554869889689,784.554869889689,984.554869889689,415.445130110311,615.445130110311,415.445130110311,615.445130110311,784.554869889689,0,0,4,0,horizontal,vertical,vertical,vertical
3b,17,100340,3,37,133,19,F,blocked,variable,homogeneous,4,present,0.753680944442749,1,horizontal,horizontal,1,2,red,2,1,984.554869889689,415.445130110311,984.554869889689,784.554869889689,984.554869889689,784.554869889689,984.554869889689,415.445130110311,615.445130110311,415.445130110311,615.445130110311,784.554869889689,0,4,0,0,horizontal,horizontal,horizontal,horizontal
3b,17,100340,3,38,134,19,F,blocked,variable,homogeneous,4,present,0.997989892959595,1,horizontal,horizontal,1,2,red,4,1,615.445130110311,784.554869889689,984.554869889689,784.554869889689,984.554869889689,784.554869889689,984.554869889689,415.445130110311,615.445130110311,415.445130110311,615.445130110311,784.554869889689,0,0,0,4,vertical,horizontal,vertical,horizontal
3b,17,100340,3,39,135,19,F,blocked,variable,homogeneous,4,absent,0.530233860015869,1,vertical,vertical,1,2,green,3,NaN,615.445130110311,415.445130110311,NaN,NaN,984.554869889689,784.554869889689,984.554869889689,415.445130110311,615.445130110311,415.445130110311,615.445130110311,784.554869889689,0,0,4,0,vertical,horizontal,vertical,vertical
3b,17,100340,3,40,136,19,F,blocked,variable,homogeneous,4,present,0.886580944061279,1,horizontal,horizontal,1,2,red,4,3,615.445130110311,784.554869889689,615.445130110311,415.445130110311,984.554869889689,784.554869889689,984.554869889689,415.445130110311,615.445130110311,415.445130110311,615.445130110311,784.554869889689,0,0,0,4,vertical,horizontal,horizontal,horizontal
3b,17,100340,3,41,137,19,F,blocked,variable,homogeneous,4,present,0.506675004959106,1,horizontal,horizontal,1,2,green,4,3,615.445130110311,784.554869889689,615.445130110311,415.445130110311,984.554869889689,784.554869889689,984.554869889689,415.445130110311,615.445130110311,415.445130110311,615.445130110311,784.554869889689,0,0,0,4,horizontal,vertical,vertical,horizontal
3b,17,100340,3,42,138,19,F,blocked,variable,homogeneous,4,present,0.679322957992554,1,vertical,vertical,1,2,red,3,2,615.445130110311,415.445130110311,984.554869889689,415.445130110311,984.554869889689,784.554869889689,984.554869889689,415.445130110311,615.445130110311,415.445130110311,615.445130110311,784.554869889689,0,0,4,0,horizontal,vertical,vertical,vertical
3b,17,100340,3,43,139,19,F,blocked,variable,homogeneous,4,absent,0.867433071136475,1,vertical,vertical,1,2,red,1,NaN,984.554869889689,784.554869889689,NaN,NaN,984.554869889689,784.554869889689,984.554869889689,415.445130110311,615.445130110311,415.445130110311,615.445130110311,784.554869889689,4,0,0,0,vertical,horizontal,horizontal,vertical
3b,17,100340,3,44,140,19,F,blocked,variable,homogeneous,4,present,0.623692035675049,1,vertical,vertical,1,2,green,3,4,615.445130110311,415.445130110311,615.445130110311,784.554869889689,984.554869889689,784.554869889689,984.554869889689,415.445130110311,615.445130110311,415.445130110311,615.445130110311,784.554869889689,0,0,4,0,horizontal,horizontal,vertical,vertical
3b,17,100340,3,45,141,19,F,blocked,variable,homogeneous,4,present,0.652112007141113,1,vertical,vertical,1,2,red,2,3,984.554869889689,415.445130110311,615.445130110311,415.445130110311,984.554869889689,784.554869889689,984.554869889689,415.445130110311,615.445130110311,415.445130110311,615.445130110311,784.554869889689,0,4,0,0,horizontal,vertical,horizontal,vertical
3b,17,100340,3,46,142,19,F,blocked,variable,homogeneous,4,present,0.528223037719727,1,vertical,vertical,1,2,red,1,2,984.554869889689,784.554869889689,984.554869889689,415.445130110311,984.554869889689,784.554869889689,984.554869889689,415.445130110311,615.445130110311,415.445130110311,615.445130110311,784.554869889689,4,0,0,0,vertical,horizontal,horizontal,horizontal
3b,17,100340,3,47,143,19,F,blocked,variable,homogeneous,4,present,0.580713033676147,1,horizontal,horizontal,1,2,green,4,3,615.445130110311,784.554869889689,615.445130110311,415.445130110311,984.554869889689,784.554869889689,984.554869889689,415.445130110311,615.445130110311,415.445130110311,615.445130110311,784.554869889689,0,0,0,4,vertical,vertical,horizontal,horizontal
3b,17,100340,3,48,144,19,F,blocked,variable,homogeneous,4,present,0.513236045837402,1,vertical,vertical,1,2,red,2,1,984.554869889689,415.445130110311,984.554869889689,784.554869889689,984.554869889689,784.554869889689,984.554869889689,415.445130110311,615.445130110311,415.445130110311,615.445130110311,784.554869889689,0,4,0,0,horizontal,vertical,vertical,vertical
3b,17,100340,4,1,145,19,F,blocked,variable,homogeneous,4,present,0.807558059692383,0,horizontal,vertical,1,2,green,2,1,984.554869889689,415.445130110311,984.554869889689,784.554869889689,984.554869889689,784.554869889689,984.554869889689,415.445130110311,615.445130110311,415.445130110311,615.445130110311,784.554869889689,0,4,0,0,vertical,horizontal,vertical,vertical
3b,17,100340,4,2,146,19,F,blocked,variable,homogeneous,4,present,0.539828062057495,1,horizontal,horizontal,1,2,red,2,1,984.554869889689,415.445130110311,984.554869889689,784.554869889689,984.554869889689,784.554869889689,984.554869889689,415.445130110311,615.445130110311,415.445130110311,615.445130110311,784.554869889689,0,4,0,0,vertical,horizontal,vertical,horizontal
3b,17,100340,4,3,147,19,F,blocked,variable,homogeneous,4,present,0.520197153091431,0,vertical,horizontal,1,2,red,1,2,984.554869889689,784.554869889689,984.554869889689,415.445130110311,984.554869889689,784.554869889689,984.554869889689,415.445130110311,615.445130110311,415.445130110311,615.445130110311,784.554869889689,4,0,0,0,vertical,horizontal,vertical,vertical
3b,17,100340,4,4,148,19,F,blocked,variable,homogeneous,4,present,1.14067697525024,1,vertical,vertical,1,2,red,4,1,615.445130110311,784.554869889689,984.554869889689,784.554869889689,984.554869889689,784.554869889689,984.554869889689,415.445130110311,615.445130110311,415.445130110311,615.445130110311,784.554869889689,0,0,0,4,horizontal,vertical,vertical,vertical
3b,17,100340,4,5,149,19,F,blocked,variable,homogeneous,4,absent,0.697011947631836,1,horizontal,horizontal,1,2,green,3,NaN,615.445130110311,415.445130110311,NaN,NaN,984.554869889689,784.554869889689,984.554869889689,415.445130110311,615.445130110311,415.445130110311,615.445130110311,784.554869889689,0,0,4,0,horizontal,horizontal,horizontal,vertical
3b,17,100340,4,6,150,19,F,blocked,variable,homogeneous,4,present,0.549147129058838,1,vertical,vertical,1,2,green,2,1,984.554869889689,415.445130110311,984.554869889689,784.554869889689,984.554869889689,784.554869889689,984.554869889689,415.445130110311,615.445130110311,415.445130110311,615.445130110311,784.554869889689,0,4,0,0,horizontal,vertical,vertical,horizontal
3b,17,100340,4,7,151,19,F,blocked,variable,homogeneous,4,absent,0.457723140716553,1,vertical,vertical,1,2,red,2,NaN,984.554869889689,415.445130110311,NaN,NaN,984.554869889689,784.554869889689,984.554869889689,415.445130110311,615.445130110311,415.445130110311,615.445130110311,784.554869889689,0,4,0,0,horizontal,vertical,vertical,vertical
3b,17,100340,4,8,152,19,F,blocked,variable,homogeneous,4,present,0.782069206237793,1,vertical,vertical,1,2,red,1,4,984.554869889689,784.554869889689,615.445130110311,784.554869889689,984.554869889689,784.554869889689,984.554869889689,415.445130110311,615.445130110311,415.445130110311,615.445130110311,784.554869889689,4,0,0,0,vertical,vertical,vertical,vertical
3b,17,100340,4,9,153,19,F,blocked,variable,homogeneous,4,absent,0.522270917892456,1,horizontal,horizontal,1,2,red,1,NaN,984.554869889689,784.554869889689,NaN,NaN,984.554869889689,784.554869889689,984.554869889689,415.445130110311,615.445130110311,415.445130110311,615.445130110311,784.554869889689,4,0,0,0,horizontal,horizontal,horizontal,vertical
3b,17,100340,4,10,154,19,F,blocked,variable,homogeneous,4,absent,0.67071795463562,1,horizontal,horizontal,1,2,red,1,NaN,984.554869889689,784.554869889689,NaN,NaN,984.554869889689,784.554869889689,984.554869889689,415.445130110311,615.445130110311,415.445130110311,615.445130110311,784.554869889689,4,0,0,0,horizontal,horizontal,vertical,vertical
3b,17,100340,4,11,155,19,F,blocked,variable,homogeneous,4,absent,0.498665809631348,1,vertical,vertical,1,2,red,2,NaN,984.554869889689,415.445130110311,NaN,NaN,984.554869889689,784.554869889689,984.554869889689,415.445130110311,615.445130110311,415.445130110311,615.445130110311,784.554869889689,0,4,0,0,horizontal,vertical,vertical,horizontal
3b,17,100340,4,12,156,19,F,blocked,variable,homogeneous,4,present,0.558995962142944,1,vertical,vertical,1,2,red,1,3,984.554869889689,784.554869889689,615.445130110311,415.445130110311,984.554869889689,784.554869889689,984.554869889689,415.445130110311,615.445130110311,415.445130110311,615.445130110311,784.554869889689,4,0,0,0,vertical,vertical,horizontal,vertical
3b,17,100340,4,13,157,19,F,blocked,variable,homogeneous,4,absent,0.595395088195801,1,horizontal,horizontal,1,2,red,3,NaN,615.445130110311,415.445130110311,NaN,NaN,984.554869889689,784.554869889689,984.554869889689,415.445130110311,615.445130110311,415.445130110311,615.445130110311,784.554869889689,0,0,4,0,horizontal,horizontal,horizontal,vertical
3b,17,100340,4,14,158,19,F,blocked,variable,homogeneous,4,absent,0.591886043548584,1,horizontal,horizontal,1,2,green,2,NaN,984.554869889689,415.445130110311,NaN,NaN,984.554869889689,784.554869889689,984.554869889689,415.445130110311,615.445130110311,415.445130110311,615.445130110311,784.554869889689,0,4,0,0,vertical,horizontal,vertical,vertical
3b,17,100340,4,15,159,19,F,blocked,variable,homogeneous,4,present,0.788163900375366,1,horizontal,horizontal,1,2,green,4,2,615.445130110311,784.554869889689,984.554869889689,415.445130110311,984.554869889689,784.554869889689,984.554869889689,415.445130110311,615.445130110311,415.445130110311,615.445130110311,784.554869889689,0,0,0,4,horizontal,vertical,vertical,horizontal
3b,17,100340,4,16,160,19,F,blocked,variable,homogeneous,4,present,0.632252216339111,1,horizontal,horizontal,1,2,green,4,1,615.445130110311,784.554869889689,984.554869889689,784.554869889689,984.554869889689,784.554869889689,984.554869889689,415.445130110311,615.445130110311,415.445130110311,615.445130110311,784.554869889689,0,0,0,4,horizontal,vertical,horizontal,horizontal
3b,17,100340,4,17,161,19,F,blocked,variable,homogeneous,4,absent,0.748743057250977,1,vertical,vertical,1,2,red,1,NaN,984.554869889689,784.554869889689,NaN,NaN,984.554869889689,784.554869889689,984.554869889689,415.445130110311,615.445130110311,415.445130110311,615.445130110311,784.554869889689,4,0,0,0,vertical,vertical,horizontal,horizontal
3b,17,100340,4,18,162,19,F,blocked,variable,homogeneous,4,present,0.584950923919678,1,horizontal,horizontal,1,2,green,3,4,615.445130110311,415.445130110311,615.445130110311,784.554869889689,984.554869889689,784.554869889689,984.554869889689,415.445130110311,615.445130110311,415.445130110311,615.445130110311,784.554869889689,0,0,4,0,vertical,horizontal,horizontal,vertical
3b,17,100340,4,19,163,19,F,blocked,variable,homogeneous,4,present,0.717235088348389,1,horizontal,horizontal,1,2,red,3,4,615.445130110311,415.445130110311,615.445130110311,784.554869889689,984.554869889689,784.554869889689,984.554869889689,415.445130110311,615.445130110311,415.445130110311,615.445130110311,784.554869889689,0,0,4,0,horizontal,vertical,horizontal,vertical
3b,17,100340,4,20,164,19,F,blocked,variable,homogeneous,4,present,0.481658935546875,1,horizontal,horizontal,1,2,green,1,4,984.554869889689,784.554869889689,615.445130110311,784.554869889689,984.554869889689,784.554869889689,984.554869889689,415.445130110311,615.445130110311,415.445130110311,615.445130110311,784.554869889689,4,0,0,0,horizontal,horizontal,vertical,vertical
3b,17,100340,4,21,165,19,F,blocked,variable,homogeneous,4,present,0.781877040863037,1,horizontal,horizontal,1,2,red,2,1,984.554869889689,415.445130110311,984.554869889689,784.554869889689,984.554869889689,784.554869889689,984.554869889689,415.445130110311,615.445130110311,415.445130110311,615.445130110311,784.554869889689,0,4,0,0,vertical,horizontal,vertical,horizontal
3b,17,100340,4,22,166,19,F,blocked,variable,homogeneous,4,absent,0.450186014175415,1,horizontal,horizontal,1,2,green,2,NaN,984.554869889689,415.445130110311,NaN,NaN,984.554869889689,784.554869889689,984.554869889689,415.445130110311,615.445130110311,415.445130110311,615.445130110311,784.554869889689,0,4,0,0,horizontal,horizontal,horizontal,horizontal
3b,17,100340,4,23,167,19,F,blocked,variable,homogeneous,4,absent,0.350533962249756,0,vertical,horizontal,1,2,red,3,NaN,615.445130110311,415.445130110311,NaN,NaN,984.554869889689,784.554869889689,984.554869889689,415.445130110311,615.445130110311,415.445130110311,615.445130110311,784.554869889689,0,0,4,0,horizontal,horizontal,vertical,horizontal
3b,17,100340,4,24,168,19,F,blocked,variable,homogeneous,4,present,1.40282320976257,1,vertical,vertical,1,2,green,1,2,984.554869889689,784.554869889689,984.554869889689,415.445130110311,984.554869889689,784.554869889689,984.554869889689,415.445130110311,615.445130110311,415.445130110311,615.445130110311,784.554869889689,4,0,0,0,vertical,vertical,horizontal,horizontal
3b,17,100340,4,25,169,19,F,blocked,variable,homogeneous,4,present,0.599103927612305,1,vertical,vertical,1,2,green,1,2,984.554869889689,784.554869889689,984.554869889689,415.445130110311,984.554869889689,784.554869889689,984.554869889689,415.445130110311,615.445130110311,415.445130110311,615.445130110311,784.554869889689,4,0,0,0,vertical,vertical,vertical,horizontal
3b,17,100340,4,26,170,19,F,blocked,variable,homogeneous,4,absent,0.619347095489502,1,vertical,vertical,1,2,green,4,NaN,615.445130110311,784.554869889689,NaN,NaN,984.554869889689,784.554869889689,984.554869889689,415.445130110311,615.445130110311,415.445130110311,615.445130110311,784.554869889689,0,0,0,4,vertical,horizontal,horizontal,vertical
3b,17,100340,4,27,171,19,F,blocked,variable,homogeneous,4,present,0.535757064819336,1,vertical,vertical,1,2,red,4,3,615.445130110311,784.554869889689,615.445130110311,415.445130110311,984.554869889689,784.554869889689,984.554869889689,415.445130110311,615.445130110311,415.445130110311,615.445130110311,784.554869889689,0,0,0,4,vertical,horizontal,vertical,vertical
3b,17,100340,4,28,172,19,F,blocked,variable,homogeneous,4,absent,0.500136137008667,1,vertical,vertical,1,2,green,3,NaN,615.445130110311,415.445130110311,NaN,NaN,984.554869889689,784.554869889689,984.554869889689,415.445130110311,615.445130110311,415.445130110311,615.445130110311,784.554869889689,0,0,4,0,vertical,vertical,vertical,horizontal
3b,17,100340,4,29,173,19,F,blocked,variable,homogeneous,4,present,0.840352058410645,1,vertical,vertical,1,2,red,1,4,984.554869889689,784.554869889689,615.445130110311,784.554869889689,984.554869889689,784.554869889689,984.554869889689,415.445130110311,615.445130110311,415.445130110311,615.445130110311,784.554869889689,4,0,0,0,vertical,horizontal,horizontal,vertical
3b,17,100340,4,30,174,19,F,blocked,variable,homogeneous,4,present,0.476627826690674,1,vertical,vertical,1,2,green,1,4,984.554869889689,784.554869889689,615.445130110311,784.554869889689,984.554869889689,784.554869889689,984.554869889689,415.445130110311,615.445130110311,415.445130110311,615.445130110311,784.554869889689,4,0,0,0,vertical,vertical,horizontal,vertical
3b,17,100340,4,31,175,19,F,blocked,variable,homogeneous,4,absent,0.841063022613525,1,horizontal,horizontal,1,2,red,2,NaN,984.554869889689,415.445130110311,NaN,NaN,984.554869889689,784.554869889689,984.554869889689,415.445130110311,615.445130110311,415.445130110311,615.445130110311,784.554869889689,0,4,0,0,vertical,horizontal,horizontal,horizontal
3b,17,100340,4,32,176,19,F,blocked,variable,homogeneous,4,absent,0.573394060134888,1,horizontal,horizontal,1,2,red,2,NaN,984.554869889689,415.445130110311,NaN,NaN,984.554869889689,784.554869889689,984.554869889689,415.445130110311,615.445130110311,415.445130110311,615.445130110311,784.554869889689,0,4,0,0,horizontal,horizontal,vertical,horizontal
3b,17,100340,4,33,177,19,F,blocked,variable,homogeneous,4,present,0.537779092788696,1,horizontal,horizontal,1,2,green,4,3,615.445130110311,784.554869889689,615.445130110311,415.445130110311,984.554869889689,784.554869889689,984.554869889689,415.445130110311,615.445130110311,415.445130110311,615.445130110311,784.554869889689,0,0,0,4,horizontal,horizontal,vertical,horizontal
3b,17,100340,4,34,178,19,F,blocked,variable,homogeneous,4,absent,0.573930025100708,1,vertical,vertical,1,2,green,3,NaN,615.445130110311,415.445130110311,NaN,NaN,984.554869889689,784.554869889689,984.554869889689,415.445130110311,615.445130110311,415.445130110311,615.445130110311,784.554869889689,0,0,4,0,vertical,vertical,vertical,horizontal
3b,17,100340,4,35,179,19,F,blocked,variable,homogeneous,4,present,0.594247817993164,1,horizontal,horizontal,1,2,red,3,2,615.445130110311,415.445130110311,984.554869889689,415.445130110311,984.554869889689,784.554869889689,984.554869889689,415.445130110311,615.445130110311,415.445130110311,615.445130110311,784.554869889689,0,0,4,0,horizontal,horizontal,horizontal,vertical
3b,17,100340,4,36,180,19,F,blocked,variable,homogeneous,4,present,0.654464960098267,1,vertical,vertical,1,2,red,1,3,984.554869889689,784.554869889689,615.445130110311,415.445130110311,984.554869889689,784.554869889689,984.554869889689,415.445130110311,615.445130110311,415.445130110311,615.445130110311,784.554869889689,4,0,0,0,vertical,vertical,vertical,vertical
3b,17,100340,4,37,181,19,F,blocked,variable,homogeneous,4,present,0.730854988098145,1,vertical,vertical,1,2,red,2,3,984.554869889689,415.445130110311,615.445130110311,415.445130110311,984.554869889689,784.554869889689,984.554869889689,415.445130110311,615.445130110311,415.445130110311,615.445130110311,784.554869889689,0,4,0,0,horizontal,vertical,horizontal,vertical
3b,17,100340,4,38,182,19,F,blocked,variable,homogeneous,4,absent,0.65504789352417,1,vertical,vertical,1,2,green,4,NaN,615.445130110311,784.554869889689,NaN,NaN,984.554869889689,784.554869889689,984.554869889689,415.445130110311,615.445130110311,415.445130110311,615.445130110311,784.554869889689,0,0,0,4,horizontal,horizontal,vertical,vertical
3b,17,100340,4,39,183,19,F,blocked,variable,homogeneous,4,present,0.499674081802368,1,vertical,vertical,1,2,red,2,3,984.554869889689,415.445130110311,615.445130110311,415.445130110311,984.554869889689,784.554869889689,984.554869889689,415.445130110311,615.445130110311,415.445130110311,615.445130110311,784.554869889689,0,4,0,0,horizontal,vertical,vertical,horizontal
3b,17,100340,4,40,184,19,F,blocked,variable,homogeneous,4,present,0.519747018814087,0,horizontal,vertical,1,2,green,2,1,984.554869889689,415.445130110311,984.554869889689,784.554869889689,984.554869889689,784.554869889689,984.554869889689,415.445130110311,615.445130110311,415.445130110311,615.445130110311,784.554869889689,0,4,0,0,vertical,horizontal,horizontal,horizontal
3b,17,100340,4,41,185,19,F,blocked,variable,homogeneous,4,present,0.747970819473267,1,horizontal,horizontal,1,2,green,4,3,615.445130110311,784.554869889689,615.445130110311,415.445130110311,984.554869889689,784.554869889689,984.554869889689,415.445130110311,615.445130110311,415.445130110311,615.445130110311,784.554869889689,0,0,0,4,vertical,vertical,horizontal,horizontal
3b,17,100340,4,42,186,19,F,blocked,variable,homogeneous,4,present,1.4162130355835,1,vertical,vertical,1,2,red,1,2,984.554869889689,784.554869889689,984.554869889689,415.445130110311,984.554869889689,784.554869889689,984.554869889689,415.445130110311,615.445130110311,415.445130110311,615.445130110311,784.554869889689,4,0,0,0,vertical,vertical,vertical,horizontal
3b,17,100340,4,43,187,19,F,blocked,variable,homogeneous,4,present,0.580379962921143,1,vertical,vertical,1,2,red,2,4,984.554869889689,415.445130110311,615.445130110311,784.554869889689,984.554869889689,784.554869889689,984.554869889689,415.445130110311,615.445130110311,415.445130110311,615.445130110311,784.554869889689,0,4,0,0,horizontal,vertical,horizontal,horizontal
3b,17,100340,4,44,188,19,F,blocked,variable,homogeneous,4,present,0.569098949432373,1,horizontal,horizontal,1,2,red,4,2,615.445130110311,784.554869889689,984.554869889689,415.445130110311,984.554869889689,784.554869889689,984.554869889689,415.445130110311,615.445130110311,415.445130110311,615.445130110311,784.554869889689,0,0,0,4,vertical,vertical,horizontal,horizontal
3b,17,100340,4,45,189,19,F,blocked,variable,homogeneous,4,present,0.645375967025757,1,horizontal,horizontal,1,2,green,4,2,615.445130110311,784.554869889689,984.554869889689,415.445130110311,984.554869889689,784.554869889689,984.554869889689,415.445130110311,615.445130110311,415.445130110311,615.445130110311,784.554869889689,0,0,0,4,horizontal,vertical,vertical,horizontal
3b,17,100340,4,46,190,19,F,blocked,variable,homogeneous,4,present,0.721443891525269,1,horizontal,horizontal,1,2,red,3,2,615.445130110311,415.445130110311,984.554869889689,415.445130110311,984.554869889689,784.554869889689,984.554869889689,415.445130110311,615.445130110311,415.445130110311,615.445130110311,784.554869889689,0,0,4,0,horizontal,horizontal,horizontal,horizontal
3b,17,100340,4,47,191,19,F,blocked,variable,homogeneous,4,present,0.5660719871521,1,horizontal,horizontal,1,2,red,3,4,615.445130110311,415.445130110311,615.445130110311,784.554869889689,984.554869889689,784.554869889689,984.554869889689,415.445130110311,615.445130110311,415.445130110311,615.445130110311,784.554869889689,0,0,4,0,vertical,horizontal,horizontal,horizontal
3b,17,100340,4,48,192,19,F,blocked,variable,homogeneous,4,present,1.10615801811218,1,vertical,vertical,1,2,red,2,4,984.554869889689,415.445130110311,615.445130110311,784.554869889689,984.554869889689,784.554869889689,984.554869889689,415.445130110311,615.445130110311,415.445130110311,615.445130110311,784.554869889689,0,4,0,0,vertical,vertical,horizontal,vertical
3b,17,100340,5,1,193,19,F,blocked,variable,homogeneous,4,present,0.865496873855591,1,vertical,vertical,1,2,red,2,4,984.554869889689,415.445130110311,615.445130110311,784.554869889689,984.554869889689,784.554869889689,984.554869889689,415.445130110311,615.445130110311,415.445130110311,615.445130110311,784.554869889689,0,4,0,0,vertical,vertical,horizontal,vertical
3b,17,100340,5,2,194,19,F,blocked,variable,homogeneous,4,absent,0.685821056365967,1,horizontal,horizontal,1,2,green,4,NaN,615.445130110311,784.554869889689,NaN,NaN,984.554869889689,784.554869889689,984.554869889689,415.445130110311,615.445130110311,415.445130110311,615.445130110311,784.554869889689,0,0,0,4,horizontal,horizontal,horizontal,horizontal
3b,17,100340,5,3,195,19,F,blocked,variable,homogeneous,4,absent,0.570000171661377,1,horizontal,horizontal,1,2,green,3,NaN,615.445130110311,415.445130110311,NaN,NaN,984.554869889689,784.554869889689,984.554869889689,415.445130110311,615.445130110311,415.445130110311,615.445130110311,784.554869889689,0,0,4,0,vertical,vertical,horizontal,horizontal
3b,17,100340,5,4,196,19,F,blocked,variable,homogeneous,4,present,0.566306114196777,1,vertical,vertical,1,2,red,3,4,615.445130110311,415.445130110311,615.445130110311,784.554869889689,984.554869889689,784.554869889689,984.554869889689,415.445130110311,615.445130110311,415.445130110311,615.445130110311,784.554869889689,0,0,4,0,vertical,vertical,vertical,vertical
3b,17,100340,5,5,197,19,F,blocked,variable,homogeneous,4,absent,0.410604953765869,1,vertical,vertical,1,2,red,2,NaN,984.554869889689,415.445130110311,NaN,NaN,984.554869889689,784.554869889689,984.554869889689,415.445130110311,615.445130110311,415.445130110311,615.445130110311,784.554869889689,0,4,0,0,vertical,vertical,horizontal,horizontal
3b,17,100340,5,6,198,19,F,blocked,variable,homogeneous,4,present,0.607032775878906,1,horizontal,horizontal,1,2,red,3,2,615.445130110311,415.445130110311,984.554869889689,415.445130110311,984.554869889689,784.554869889689,984.554869889689,415.445130110311,615.445130110311,415.445130110311,615.445130110311,784.554869889689,0,0,4,0,horizontal,horizontal,horizontal,horizontal
3b,17,100340,5,7,199,19,F,blocked,variable,homogeneous,4,present,0.683145046234131,1,horizontal,horizontal,1,2,green,1,2,984.554869889689,784.554869889689,984.554869889689,415.445130110311,984.554869889689,784.554869889689,984.554869889689,415.445130110311,615.445130110311,415.445130110311,615.445130110311,784.554869889689,4,0,0,0,horizontal,horizontal,vertical,horizontal
3b,17,100340,5,8,200,19,F,blocked,variable,homogeneous,4,absent,0.479696989059448,1,vertical,vertical,1,2,green,1,NaN,984.554869889689,784.554869889689,NaN,NaN,984.554869889689,784.554869889689,984.554869889689,415.445130110311,615.445130110311,415.445130110311,615.445130110311,784.554869889689,4,0,0,0,vertical,vertical,horizontal,vertical
3b,17,100340,5,9,201,19,F,blocked,variable,homogeneous,4,present,0.708091974258423,1,horizontal,horizontal,1,2,red,2,4,984.554869889689,415.445130110311,615.445130110311,784.554869889689,984.554869889689,784.554869889689,984.554869889689,415.445130110311,615.445130110311,415.445130110311,615.445130110311,784.554869889689,0,4,0,0,horizontal,horizontal,horizontal,vertical
3b,17,100340,5,10,202,19,F,blocked,variable,homogeneous,4,present,0.46425986289978,1,vertical,vertical,1,2,green,2,1,984.554869889689,415.445130110311,984.554869889689,784.554869889689,984.554869889689,784.554869889689,984.554869889689,415.445130110311,615.445130110311,415.445130110311,615.445130110311,784.554869889689,0,4,0,0,vertical,vertical,vertical,vertical
3b,17,100340,5,11,203,19,F,blocked,variable,homogeneous,4,present,0.628531932830811,1,horizontal,horizontal,1,2,green,3,1,615.445130110311,415.445130110311,984.554869889689,784.554869889689,984.554869889689,784.554869889689,984.554869889689,415.445130110311,615.445130110311,415.445130110311,615.445130110311,784.554869889689,0,0,4,0,vertical,vertical,horizontal,vertical
3b,17,100340,5,12,204,19,F,blocked,variable,homogeneous,4,present,0.48093318939209,1,horizontal,horizontal,1,2,green,3,1,615.445130110311,415.445130110311,984.554869889689,784.554869889689,984.554869889689,784.554869889689,984.554869889689,415.445130110311,615.445130110311,415.445130110311,615.445130110311,784.554869889689,0,0,4,0,vertical,horizontal,horizontal,horizontal
3b,17,100340,5,13,205,19,F,blocked,variable,homogeneous,4,present,0.637109041213989,1,horizontal,horizontal,1,2,red,3,2,615.445130110311,415.445130110311,984.554869889689,415.445130110311,984.554869889689,784.554869889689,984.554869889689,415.445130110311,615.445130110311,415.445130110311,615.445130110311,784.554869889689,0,0,4,0,vertical,vertical,horizontal,horizontal
3b,17,100340,5,14,206,19,F,blocked,variable,homogeneous,4,absent,0.681449174880981,1,vertical,vertical,1,2,red,4,NaN,615.445130110311,784.554869889689,NaN,NaN,984.554869889689,784.554869889689,984.554869889689,415.445130110311,615.445130110311,415.445130110311,615.445130110311,784.554869889689,0,0,0,4,horizontal,vertical,vertical,vertical
3b,17,100340,5,15,207,19,F,blocked,variable,homogeneous,4,absent,0.70182204246521,1,horizontal,horizontal,1,2,red,2,NaN,984.554869889689,415.445130110311,NaN,NaN,984.554869889689,784.554869889689,984.554869889689,415.445130110311,615.445130110311,415.445130110311,615.445130110311,784.554869889689,0,4,0,0,horizontal,horizontal,horizontal,vertical
3b,17,100340,5,16,208,19,F,blocked,variable,homogeneous,4,present,0.618144989013672,1,vertical,vertical,1,2,red,2,3,984.554869889689,415.445130110311,615.445130110311,415.445130110311,984.554869889689,784.554869889689,984.554869889689,415.445130110311,615.445130110311,415.445130110311,615.445130110311,784.554869889689,0,4,0,0,horizontal,vertical,vertical,horizontal
3b,17,100340,5,17,209,19,F,blocked,variable,homogeneous,4,present,0.606427192687988,1,vertical,vertical,1,2,green,2,3,984.554869889689,415.445130110311,615.445130110311,415.445130110311,984.554869889689,784.554869889689,984.554869889689,415.445130110311,615.445130110311,415.445130110311,615.445130110311,784.554869889689,0,4,0,0,vertical,vertical,vertical,vertical
3b,17,100340,5,18,210,19,F,blocked,variable,homogeneous,4,present,0.898684024810791,1,vertical,vertical,1,2,red,3,4,615.445130110311,415.445130110311,615.445130110311,784.554869889689,984.554869889689,784.554869889689,984.554869889689,415.445130110311,615.445130110311,415.445130110311,615.445130110311,784.554869889689,0,0,4,0,vertical,vertical,vertical,vertical
3b,17,100340,5,19,211,19,F,blocked,variable,homogeneous,4,absent,0.550946950912476,1,vertical,vertical,1,2,green,4,NaN,615.445130110311,784.554869889689,NaN,NaN,984.554869889689,784.554869889689,984.554869889689,415.445130110311,615.445130110311,415.445130110311,615.445130110311,784.554869889689,0,0,0,4,horizontal,horizontal,vertical,vertical
3b,17,100340,5,20,212,19,F,blocked,variable,homogeneous,4,absent,0.547382116317749,1,horizontal,horizontal,1,2,red,4,NaN,615.445130110311,784.554869889689,NaN,NaN,984.554869889689,784.554869889689,984.554869889689,415.445130110311,615.445130110311,415.445130110311,615.445130110311,784.554869889689,0,0,0,4,horizontal,horizontal,horizontal,horizontal
3b,17,100340,5,21,213,19,F,blocked,variable,homogeneous,4,present,0.631672143936157,1,horizontal,horizontal,1,2,green,4,3,615.445130110311,784.554869889689,615.445130110311,415.445130110311,984.554869889689,784.554869889689,984.554869889689,415.445130110311,615.445130110311,415.445130110311,615.445130110311,784.554869889689,0,0,0,4,vertical,vertical,vertical,horizontal
3b,17,100340,5,22,214,19,F,blocked,variable,homogeneous,4,present,0.571865797042847,1,vertical,vertical,1,2,green,2,4,984.554869889689,415.445130110311,615.445130110311,784.554869889689,984.554869889689,784.554869889689,984.554869889689,415.445130110311,615.445130110311,415.445130110311,615.445130110311,784.554869889689,0,4,0,0,vertical,vertical,horizontal,vertical
3b,17,100340,5,23,215,19,F,blocked,variable,homogeneous,4,present,0.800304889678955,1,horizontal,horizontal,1,2,red,4,3,615.445130110311,784.554869889689,615.445130110311,415.445130110311,984.554869889689,784.554869889689,984.554869889689,415.445130110311,615.445130110311,415.445130110311,615.445130110311,784.554869889689,0,0,0,4,horizontal,horizontal,vertical,horizontal
3b,17,100340,5,24,216,19,F,blocked,variable,homogeneous,4,present,0.716520071029663,1,vertical,vertical,1,2,green,4,1,615.445130110311,784.554869889689,984.554869889689,784.554869889689,984.554869889689,784.554869889689,984.554869889689,415.445130110311,615.445130110311,415.445130110311,615.445130110311,784.554869889689,0,0,0,4,vertical,vertical,vertical,vertical
3b,17,100340,5,25,217,19,F,blocked,variable,homogeneous,4,absent,0.705024003982544,1,horizontal,horizontal,1,2,red,4,NaN,615.445130110311,784.554869889689,NaN,NaN,984.554869889689,784.554869889689,984.554869889689,415.445130110311,615.445130110311,415.445130110311,615.445130110311,784.554869889689,0,0,0,4,vertical,vertical,horizontal,horizontal
3b,17,100340,5,26,218,19,F,blocked,variable,homogeneous,4,absent,0.589112043380737,1,horizontal,horizontal,1,2,green,3,NaN,615.445130110311,415.445130110311,NaN,NaN,984.554869889689,784.554869889689,984.554869889689,415.445130110311,615.445130110311,415.445130110311,615.445130110311,784.554869889689,0,0,4,0,vertical,vertical,horizontal,horizontal
3b,17,100340,5,27,219,19,F,blocked,variable,homogeneous,4,absent,0.617443799972534,1,vertical,vertical,1,2,green,4,NaN,615.445130110311,784.554869889689,NaN,NaN,984.554869889689,784.554869889689,984.554869889689,415.445130110311,615.445130110311,415.445130110311,615.445130110311,784.554869889689,0,0,0,4,vertical,horizontal,horizontal,vertical
3b,17,100340,5,28,220,19,F,blocked,variable,homogeneous,4,present,0.725820064544678,1,horizontal,horizontal,1,2,red,4,2,615.445130110311,784.554869889689,984.554869889689,415.445130110311,984.554869889689,784.554869889689,984.554869889689,415.445130110311,615.445130110311,415.445130110311,615.445130110311,784.554869889689,0,0,0,4,horizontal,vertical,vertical,horizontal
3b,17,100340,5,29,221,19,F,blocked,variable,homogeneous,4,present,1.25818300247192,1,vertical,vertical,1,2,green,4,1,615.445130110311,784.554869889689,984.554869889689,784.554869889689,984.554869889689,784.554869889689,984.554869889689,415.445130110311,615.445130110311,415.445130110311,615.445130110311,784.554869889689,0,0,0,4,horizontal,horizontal,horizontal,vertical
3b,17,100340,5,30,222,19,F,blocked,variable,homogeneous,4,present,0.558330059051514,1,horizontal,horizontal,1,2,green,4,3,615.445130110311,784.554869889689,615.445130110311,415.445130110311,984.554869889689,784.554869889689,984.554869889689,415.445130110311,615.445130110311,415.445130110311,615.445130110311,784.554869889689,0,0,0,4,vertical,vertical,vertical,horizontal
3b,17,100340,5,31,223,19,F,blocked,variable,homogeneous,4,present,0.6026771068573,1,vertical,vertical,1,2,green,3,1,615.445130110311,415.445130110311,984.554869889689,784.554869889689,984.554869889689,784.554869889689,984.554869889689,415.445130110311,615.445130110311,415.445130110311,615.445130110311,784.554869889689,0,0,4,0,vertical,horizontal,vertical,vertical
3b,17,100340,5,32,224,19,F,blocked,variable,homogeneous,4,present,0.503002166748047,1,vertical,vertical,1,2,green,2,3,984.554869889689,415.445130110311,615.445130110311,415.445130110311,984.554869889689,784.554869889689,984.554869889689,415.445130110311,615.445130110311,415.445130110311,615.445130110311,784.554869889689,0,4,0,0,vertical,vertical,horizontal,horizontal
3b,17,100340,5,33,225,19,F,blocked,variable,homogeneous,4,present,0.579540967941284,1,horizontal,horizontal,1,2,red,4,1,615.445130110311,784.554869889689,984.554869889689,784.554869889689,984.554869889689,784.554869889689,984.554869889689,415.445130110311,615.445130110311,415.445130110311,615.445130110311,784.554869889689,0,0,0,4,vertical,horizontal,vertical,horizontal
3b,17,100340,5,34,226,19,F,blocked,variable,homogeneous,4,absent,0.495671033859253,1,vertical,vertical,1,2,green,2,NaN,984.554869889689,415.445130110311,NaN,NaN,984.554869889689,784.554869889689,984.554869889689,415.445130110311,615.445130110311,415.445130110311,615.445130110311,784.554869889689,0,4,0,0,vertical,vertical,horizontal,horizontal
3b,17,100340,5,35,227,19,F,blocked,variable,homogeneous,4,present,0.691942930221558,1,horizontal,horizontal,1,2,red,4,2,615.445130110311,784.554869889689,984.554869889689,415.445130110311,984.554869889689,784.554869889689,984.554869889689,415.445130110311,615.445130110311,415.445130110311,615.445130110311,784.554869889689,0,0,0,4,vertical,vertical,horizontal,horizontal
3b,17,100340,5,36,228,19,F,blocked,variable,homogeneous,4,absent,0.776350975036621,1,vertical,vertical,1,2,red,2,NaN,984.554869889689,415.445130110311,NaN,NaN,984.554869889689,784.554869889689,984.554869889689,415.445130110311,615.445130110311,415.445130110311,615.445130110311,784.554869889689,0,4,0,0,horizontal,vertical,horizontal,vertical
3b,17,100340,5,37,229,19,F,blocked,variable,homogeneous,4,present,0.636518955230713,1,vertical,vertical,1,2,green,2,4,984.554869889689,415.445130110311,615.445130110311,784.554869889689,984.554869889689,784.554869889689,984.554869889689,415.445130110311,615.445130110311,415.445130110311,615.445130110311,784.554869889689,0,4,0,0,vertical,vertical,horizontal,vertical
3b,17,100340,5,38,230,19,F,blocked,variable,homogeneous,4,absent,0.560711145401001,1,horizontal,horizontal,1,2,red,1,NaN,984.554869889689,784.554869889689,NaN,NaN,984.554869889689,784.554869889689,984.554869889689,415.445130110311,615.445130110311,415.445130110311,615.445130110311,784.554869889689,4,0,0,0,horizontal,vertical,vertical,horizontal
3b,17,100340,5,39,231,19,F,blocked,variable,homogeneous,4,present,0.661213874816895,1,horizontal,horizontal,1,2,red,2,3,984.554869889689,415.445130110311,615.445130110311,415.445130110311,984.554869889689,784.554869889689,984.554869889689,415.445130110311,615.445130110311,415.445130110311,615.445130110311,784.554869889689,0,4,0,0,horizontal,horizontal,horizontal,horizontal
3b,17,100340,5,40,232,19,F,blocked,variable,homogeneous,4,present,0.953580856323242,1,vertical,vertical,1,2,red,4,1,615.445130110311,784.554869889689,984.554869889689,784.554869889689,984.554869889689,784.554869889689,984.554869889689,415.445130110311,615.445130110311,415.445130110311,615.445130110311,784.554869889689,0,0,0,4,vertical,vertical,vertical,vertical
3b,17,100340,5,41,233,19,F,blocked,variable,homogeneous,4,present,0.933531999588013,1,vertical,vertical,1,2,red,2,4,984.554869889689,415.445130110311,615.445130110311,784.554869889689,984.554869889689,784.554869889689,984.554869889689,415.445130110311,615.445130110311,415.445130110311,615.445130110311,784.554869889689,0,4,0,0,vertical,vertical,vertical,vertical
3b,17,100340,5,42,234,19,F,blocked,variable,homogeneous,4,absent,0.73014497756958,1,horizontal,horizontal,1,2,red,3,NaN,615.445130110311,415.445130110311,NaN,NaN,984.554869889689,784.554869889689,984.554869889689,415.445130110311,615.445130110311,415.445130110311,615.445130110311,784.554869889689,0,0,4,0,horizontal,vertical,horizontal,horizontal
3b,17,100340,5,43,235,19,F,blocked,variable,homogeneous,4,present,0.74247407913208,1,vertical,vertical,1,2,green,3,4,615.445130110311,415.445130110311,615.445130110311,784.554869889689,984.554869889689,784.554869889689,984.554869889689,415.445130110311,615.445130110311,415.445130110311,615.445130110311,784.554869889689,0,0,4,0,horizontal,vertical,vertical,vertical
3b,17,100340,5,44,236,19,F,blocked,variable,homogeneous,4,present,0.674787998199463,1,horizontal,horizontal,1,2,green,1,4,984.554869889689,784.554869889689,615.445130110311,784.554869889689,984.554869889689,784.554869889689,984.554869889689,415.445130110311,615.445130110311,415.445130110311,615.445130110311,784.554869889689,4,0,0,0,horizontal,vertical,horizontal,vertical
3b,17,100340,5,45,237,19,F,blocked,variable,homogeneous,4,present,0.43877911567688,0,horizontal,vertical,1,2,red,4,1,615.445130110311,784.554869889689,984.554869889689,784.554869889689,984.554869889689,784.554869889689,984.554869889689,415.445130110311,615.445130110311,415.445130110311,615.445130110311,784.554869889689,0,0,0,4,vertical,vertical,horizontal,horizontal
3b,17,100340,5,46,238,19,F,blocked,variable,homogeneous,4,present,0.859362125396729,1,horizontal,horizontal,1,2,green,4,1,615.445130110311,784.554869889689,984.554869889689,784.554869889689,984.554869889689,784.554869889689,984.554869889689,415.445130110311,615.445130110311,415.445130110311,615.445130110311,784.554869889689,0,0,0,4,vertical,horizontal,horizontal,horizontal
3b,17,100340,5,47,239,19,F,blocked,variable,homogeneous,4,absent,0.615658044815063,1,vertical,vertical,1,2,red,1,NaN,984.554869889689,784.554869889689,NaN,NaN,984.554869889689,784.554869889689,984.554869889689,415.445130110311,615.445130110311,415.445130110311,615.445130110311,784.554869889689,4,0,0,0,vertical,vertical,vertical,horizontal
3b,17,100340,5,48,240,19,F,blocked,variable,homogeneous,4,present,0.588014841079712,1,vertical,vertical,1,2,red,1,2,984.554869889689,784.554869889689,984.554869889689,415.445130110311,984.554869889689,784.554869889689,984.554869889689,415.445130110311,615.445130110311,415.445130110311,615.445130110311,784.554869889689,4,0,0,0,vertical,vertical,vertical,horizontal
3b,17,100340,6,1,241,19,F,blocked,variable,homogeneous,4,absent,0.551833152770996,1,horizontal,horizontal,1,2,green,4,NaN,615.445130110311,784.554869889689,NaN,NaN,984.554869889689,784.554869889689,984.554869889689,415.445130110311,615.445130110311,415.445130110311,615.445130110311,784.554869889689,0,0,0,4,horizontal,horizontal,horizontal,horizontal
3b,17,100340,6,2,242,19,F,blocked,variable,homogeneous,4,present,1.14826512336731,1,horizontal,horizontal,1,2,red,2,3,984.554869889689,415.445130110311,615.445130110311,415.445130110311,984.554869889689,784.554869889689,984.554869889689,415.445130110311,615.445130110311,415.445130110311,615.445130110311,784.554869889689,0,4,0,0,vertical,horizontal,vertical,horizontal
3b,17,100340,6,3,243,19,F,blocked,variable,homogeneous,4,absent,0.928810834884644,1,horizontal,horizontal,1,2,green,4,NaN,615.445130110311,784.554869889689,NaN,NaN,984.554869889689,784.554869889689,984.554869889689,415.445130110311,615.445130110311,415.445130110311,615.445130110311,784.554869889689,0,0,0,4,vertical,horizontal,vertical,horizontal
3b,17,100340,6,4,244,19,F,blocked,variable,homogeneous,4,present,0.572995185852051,1,horizontal,horizontal,1,2,red,3,4,615.445130110311,415.445130110311,615.445130110311,784.554869889689,984.554869889689,784.554869889689,984.554869889689,415.445130110311,615.445130110311,415.445130110311,615.445130110311,784.554869889689,0,0,4,0,horizontal,horizontal,horizontal,horizontal
3b,17,100340,6,5,245,19,F,blocked,variable,homogeneous,4,present,0.76912522315979,1,horizontal,horizontal,1,2,red,4,1,615.445130110311,784.554869889689,984.554869889689,784.554869889689,984.554869889689,784.554869889689,984.554869889689,415.445130110311,615.445130110311,415.445130110311,615.445130110311,784.554869889689,0,0,0,4,vertical,horizontal,horizontal,horizontal
3b,17,100340,6,6,246,19,F,blocked,variable,homogeneous,4,present,0.413415908813477,1,vertical,vertical,1,2,green,3,4,615.445130110311,415.445130110311,615.445130110311,784.554869889689,984.554869889689,784.554869889689,984.554869889689,415.445130110311,615.445130110311,415.445130110311,615.445130110311,784.554869889689,0,0,4,0,vertical,vertical,vertical,vertical
3b,17,100340,6,7,247,19,F,blocked,variable,homogeneous,4,present,0.529819965362549,1,vertical,vertical,1,2,red,3,1,615.445130110311,415.445130110311,984.554869889689,784.554869889689,984.554869889689,784.554869889689,984.554869889689,415.445130110311,615.445130110311,415.445130110311,615.445130110311,784.554869889689,0,0,4,0,vertical,vertical,vertical,horizontal
3b,17,100340,6,8,248,19,F,blocked,variable,homogeneous,4,present,0.566116094589233,1,horizontal,horizontal,1,2,green,2,4,984.554869889689,415.445130110311,615.445130110311,784.554869889689,984.554869889689,784.554869889689,984.554869889689,415.445130110311,615.445130110311,415.445130110311,615.445130110311,784.554869889689,0,4,0,0,vertical,horizontal,horizontal,horizontal
3b,17,100340,6,9,249,19,F,blocked,variable,homogeneous,4,present,0.586418151855469,1,horizontal,horizontal,1,2,red,4,2,615.445130110311,784.554869889689,984.554869889689,415.445130110311,984.554869889689,784.554869889689,984.554869889689,415.445130110311,615.445130110311,415.445130110311,615.445130110311,784.554869889689,0,0,0,4,horizontal,horizontal,horizontal,horizontal
3b,17,100340,6,10,250,19,F,blocked,variable,homogeneous,4,present,0.550854921340942,1,vertical,vertical,1,2,green,3,1,615.445130110311,415.445130110311,984.554869889689,784.554869889689,984.554869889689,784.554869889689,984.554869889689,415.445130110311,615.445130110311,415.445130110311,615.445130110311,784.554869889689,0,0,4,0,horizontal,horizontal,vertical,horizontal
3b,17,100340,6,11,251,19,F,blocked,variable,homogeneous,4,absent,0.698951959609985,1,vertical,vertical,1,2,green,2,NaN,984.554869889689,415.445130110311,NaN,NaN,984.554869889689,784.554869889689,984.554869889689,415.445130110311,615.445130110311,415.445130110311,615.445130110311,784.554869889689,0,4,0,0,vertical,vertical,horizontal,vertical
3b,17,100340,6,12,252,19,F,blocked,variable,homogeneous,4,absent,0.983348846435547,1,horizontal,horizontal,1,2,green,4,NaN,615.445130110311,784.554869889689,NaN,NaN,984.554869889689,784.554869889689,984.554869889689,415.445130110311,615.445130110311,415.445130110311,615.445130110311,784.554869889689,0,0,0,4,vertical,horizontal,vertical,horizontal
3b,17,100340,6,13,253,19,F,blocked,variable,homogeneous,4,absent,0.64360499382019,1,horizontal,horizontal,1,2,green,2,NaN,984.554869889689,415.445130110311,NaN,NaN,984.554869889689,784.554869889689,984.554869889689,415.445130110311,615.445130110311,415.445130110311,615.445130110311,784.554869889689,0,4,0,0,vertical,horizontal,vertical,horizontal
3b,17,100340,6,14,254,19,F,blocked,variable,homogeneous,4,absent,0.503885984420776,1,horizontal,horizontal,1,2,green,1,NaN,984.554869889689,784.554869889689,NaN,NaN,984.554869889689,784.554869889689,984.554869889689,415.445130110311,615.445130110311,415.445130110311,615.445130110311,784.554869889689,4,0,0,0,horizontal,horizontal,horizontal,horizontal
3b,17,100340,6,15,255,19,F,blocked,variable,homogeneous,4,present,0.572041034698486,1,horizontal,horizontal,1,2,green,2,4,984.554869889689,415.445130110311,615.445130110311,784.554869889689,984.554869889689,784.554869889689,984.554869889689,415.445130110311,615.445130110311,415.445130110311,615.445130110311,784.554869889689,0,4,0,0,vertical,horizontal,horizontal,horizontal
3b,17,100340,6,16,256,19,F,blocked,variable,homogeneous,4,absent,0.560464143753052,1,vertical,vertical,1,2,red,3,NaN,615.445130110311,415.445130110311,NaN,NaN,984.554869889689,784.554869889689,984.554869889689,415.445130110311,615.445130110311,415.445130110311,615.445130110311,784.554869889689,0,0,4,0,vertical,horizontal,vertical,vertical
3b,17,100340,6,17,257,19,F,blocked,variable,homogeneous,4,present,0.74090313911438,1,vertical,vertical,1,2,green,1,3,984.554869889689,784.554869889689,615.445130110311,415.445130110311,984.554869889689,784.554869889689,984.554869889689,415.445130110311,615.445130110311,415.445130110311,615.445130110311,784.554869889689,4,0,0,0,vertical,horizontal,vertical,horizontal
3b,17,100340,6,18,258,19,F,blocked,variable,homogeneous,4,present,0.481126070022583,1,vertical,vertical,1,2,green,3,1,615.445130110311,415.445130110311,984.554869889689,784.554869889689,984.554869889689,784.554869889689,984.554869889689,415.445130110311,615.445130110311,415.445130110311,615.445130110311,784.554869889689,0,0,4,0,vertical,vertical,vertical,vertical
3b,17,100340,6,19,259,19,F,blocked,variable,homogeneous,4,present,0.573490142822266,1,vertical,vertical,1,2,red,4,1,615.445130110311,784.554869889689,984.554869889689,784.554869889689,984.554869889689,784.554869889689,984.554869889689,415.445130110311,615.445130110311,415.445130110311,615.445130110311,784.554869889689,0,0,0,4,horizontal,vertical,vertical,vertical
3b,17,100340,6,20,260,19,F,blocked,variable,homogeneous,4,present,0.497775077819824,1,vertical,vertical,1,2,green,2,3,984.554869889689,415.445130110311,615.445130110311,415.445130110311,984.554869889689,784.554869889689,984.554869889689,415.445130110311,615.445130110311,415.445130110311,615.445130110311,784.554869889689,0,4,0,0,vertical,vertical,horizontal,vertical
3b,17,100340,6,21,261,19,F,blocked,variable,homogeneous,4,present,0.549973011016846,1,vertical,vertical,1,2,red,3,1,615.445130110311,415.445130110311,984.554869889689,784.554869889689,984.554869889689,784.554869889689,984.554869889689,415.445130110311,615.445130110311,415.445130110311,615.445130110311,784.554869889689,0,0,4,0,horizontal,horizontal,vertical,vertical
3b,17,100340,6,22,262,19,F,blocked,variable,homogeneous,4,present,0.586344957351685,1,vertical,vertical,1,2,green,1,2,984.554869889689,784.554869889689,984.554869889689,415.445130110311,984.554869889689,784.554869889689,984.554869889689,415.445130110311,615.445130110311,415.445130110311,615.445130110311,784.554869889689,4,0,0,0,vertical,horizontal,vertical,horizontal
3b,17,100340,6,23,263,19,F,blocked,variable,homogeneous,4,absent,0.614710092544556,1,vertical,vertical,1,2,red,3,NaN,615.445130110311,415.445130110311,NaN,NaN,984.554869889689,784.554869889689,984.554869889689,415.445130110311,615.445130110311,415.445130110311,615.445130110311,784.554869889689,0,0,4,0,vertical,vertical,vertical,horizontal
3b,17,100340,6,24,264,19,F,blocked,variable,homogeneous,4,present,0.595144987106323,1,horizontal,horizontal,1,2,red,4,3,615.445130110311,784.554869889689,615.445130110311,415.445130110311,984.554869889689,784.554869889689,984.554869889689,415.445130110311,615.445130110311,415.445130110311,615.445130110311,784.554869889689,0,0,0,4,horizontal,horizontal,horizontal,horizontal
3b,17,100340,6,25,265,19,F,blocked,variable,homogeneous,4,present,0.791333198547363,1,horizontal,horizontal,1,2,green,4,3,615.445130110311,784.554869889689,615.445130110311,415.445130110311,984.554869889689,784.554869889689,984.554869889689,415.445130110311,615.445130110311,415.445130110311,615.445130110311,784.554869889689,0,0,0,4,vertical,horizontal,horizontal,horizontal
3b,17,100340,6,26,266,19,F,blocked,variable,homogeneous,4,absent,0.731610059738159,1,vertical,vertical,1,2,green,1,NaN,984.554869889689,784.554869889689,NaN,NaN,984.554869889689,784.554869889689,984.554869889689,415.445130110311,615.445130110311,415.445130110311,615.445130110311,784.554869889689,4,0,0,0,vertical,vertical,vertical,vertical
3b,17,100340,6,27,267,19,F,blocked,variable,homogeneous,4,absent,0.783730983734131,1,horizontal,horizontal,1,2,green,4,NaN,615.445130110311,784.554869889689,NaN,NaN,984.554869889689,784.554869889689,984.554869889689,415.445130110311,615.445130110311,415.445130110311,615.445130110311,784.554869889689,0,0,0,4,vertical,vertical,vertical,horizontal
3b,17,100340,6,28,268,19,F,blocked,variable,homogeneous,4,present,0.620336055755615,1,vertical,vertical,1,2,red,1,3,984.554869889689,784.554869889689,615.445130110311,415.445130110311,984.554869889689,784.554869889689,984.554869889689,415.445130110311,615.445130110311,415.445130110311,615.445130110311,784.554869889689,4,0,0,0,vertical,vertical,vertical,vertical
3b,17,100340,6,29,269,19,F,blocked,variable,homogeneous,4,present,0.544618129730225,1,vertical,vertical,1,2,red,3,1,615.445130110311,415.445130110311,984.554869889689,784.554869889689,984.554869889689,784.554869889689,984.554869889689,415.445130110311,615.445130110311,415.445130110311,615.445130110311,784.554869889689,0,0,4,0,vertical,vertical,vertical,vertical
3b,17,100340,6,30,270,19,F,blocked,variable,homogeneous,4,absent,0.620887994766235,1,horizontal,horizontal,1,2,green,3,NaN,615.445130110311,415.445130110311,NaN,NaN,984.554869889689,784.554869889689,984.554869889689,415.445130110311,615.445130110311,415.445130110311,615.445130110311,784.554869889689,0,0,4,0,vertical,vertical,horizontal,horizontal
3b,17,100340,6,31,271,19,F,blocked,variable,homogeneous,4,present,0.585226058959961,1,horizontal,horizontal,1,2,red,1,3,984.554869889689,784.554869889689,615.445130110311,415.445130110311,984.554869889689,784.554869889689,984.554869889689,415.445130110311,615.445130110311,415.445130110311,615.445130110311,784.554869889689,4,0,0,0,horizontal,horizontal,vertical,horizontal
3b,17,100340,6,32,272,19,F,blocked,variable,homogeneous,4,absent,0.613466024398804,1,vertical,vertical,1,2,green,4,NaN,615.445130110311,784.554869889689,NaN,NaN,984.554869889689,784.554869889689,984.554869889689,415.445130110311,615.445130110311,415.445130110311,615.445130110311,784.554869889689,0,0,0,4,vertical,vertical,horizontal,vertical
3b,17,100340,6,33,273,19,F,blocked,variable,homogeneous,4,present,0.51386284828186,1,horizontal,horizontal,1,2,red,4,2,615.445130110311,784.554869889689,984.554869889689,415.445130110311,984.554869889689,784.554869889689,984.554869889689,415.445130110311,615.445130110311,415.445130110311,615.445130110311,784.554869889689,0,0,0,4,horizontal,vertical,vertical,horizontal
3b,17,100340,6,34,274,19,F,blocked,variable,homogeneous,4,present,0.733971118927002,1,horizontal,horizontal,1,2,green,3,1,615.445130110311,415.445130110311,984.554869889689,784.554869889689,984.554869889689,784.554869889689,984.554869889689,415.445130110311,615.445130110311,415.445130110311,615.445130110311,784.554869889689,0,0,4,0,horizontal,vertical,horizontal,vertical
3b,17,100340,6,35,275,19,F,blocked,variable,homogeneous,4,present,0.506245851516724,1,vertical,vertical,1,2,red,2,1,984.554869889689,415.445130110311,984.554869889689,784.554869889689,984.554869889689,784.554869889689,984.554869889689,415.445130110311,615.445130110311,415.445130110311,615.445130110311,784.554869889689,0,4,0,0,vertical,vertical,vertical,vertical
