experiment,subject,uniqueID,block,trial,trial_cumulative,age,gender,color_cond_blocking,color_history,shape_type,set_size,distractor,rt,acc,target_orient,response_key,response_made,iti,target_color,target_item,distractor_item,target_X,target_Y,distractor_X,distractor_Y,item1_X,item1_Y,item2_X,item2_Y,item3_X,item3_Y,item4_X,item4_Y,item1_shape,item2_shape,item3_shape,item4_shape,item1_line,item2_line,item3_line,item4_line
3b,22,100353,1,1,1,19,F,blocked,constant,homogeneous,4,present,1.30520606040955,0,vertical,horizontal,1,2,green,2,4,984.554869889689,415.445130110311,615.445130110311,784.554869889689,984.554869889689,784.554869889689,984.554869889689,415.445130110311,615.445130110311,415.445130110311,615.445130110311,784.554869889689,0,4,0,0,horizontal,vertical,horizontal,horizontal
3b,22,100353,1,2,2,19,F,blocked,constant,homogeneous,4,present,NaN,0,vertical,none,0,3,green,3,1,615.445130110311,415.445130110311,984.554869889689,784.554869889689,984.554869889689,784.554869889689,984.554869889689,415.445130110311,615.445130110311,415.445130110311,615.445130110311,784.554869889689,0,0,4,0,horizontal,vertical,vertical,horizontal
3b,22,100353,1,3,3,19,F,blocked,constant,homogeneous,4,present,0.849544048309326,1,vertical,vertical,1,5,green,2,1,984.554869889689,415.445130110311,984.554869889689,784.554869889689,984.554869889689,784.554869889689,984.554869889689,415.445130110311,615.445130110311,415.445130110311,615.445130110311,784.554869889689,0,4,0,0,vertical,vertical,horizontal,horizontal
3b,22,100353,1,4,4,19,F,blocked,constant,homogeneous,4,present,0.901654005050659,1,vertical,vertical,1,2,green,1,4,984.554869889689,784.554869889689,615.445130110311,784.554869889689,984.554869889689,784.554869889689,984.554869889689,415.445130110311,615.445130110311,415.445130110311,615.445130110311,784.554869889689,4,0,0,0,vertical,vertical,vertical,vertical
3b,22,100353,1,5,5,19,F,blocked,constant,homogeneous,4,present,1.16208481788635,1,horizontal,horizontal,1,8,green,3,2,615.445130110311,415.445130110311,984.554869889689,415.445130110311,984.554869889689,784.554869889689,984.554869889689,415.445130110311,615.445130110311,415.445130110311,615.445130110311,784.554869889689,0,0,4,0,horizontal,vertical,horizontal,vertical
3b,22,100353,1,6,6,19,F,blocked,constant,homogeneous,4,present,1.00626397132874,1,vertical,vertical,1,2,green,4,1,615.445130110311,784.554869889689,984.554869889689,784.554869889689,984.554869889689,784.554869889689,984.554869889689,415.445130110311,615.445130110311,415.445130110311,615.445130110311,784.554869889689,0,0,0,4,vertical,horizontal,vertical,vertical
3b,22,100353,1,7,7,19,F,blocked,constant,homogeneous,4,absent,0.546275854110718,0,vertical,horizontal,1,3,green,2,NaN,984.554869889689,415.445130110311,NaN,NaN,984.554869889689,784.554869889689,984.554869889689,415.445130110311,615.445130110311,415.445130110311,615.445130110311,784.554869889689,0,4,0,0,vertical,vertical,horizontal,horizontal
3b,22,100353,1,8,8,19,F,blocked,constant,homogeneous,4,absent,0.966933012008667,1,horizontal,horizontal,1,3,green,4,NaN,615.445130110311,784.554869889689,NaN,NaN,984.554869889689,784.554869889689,984.554869889689,415.445130110311,615.445130110311,415.445130110311,615.445130110311,784.554869889689,0,0,0,4,vertical,horizontal,horizontal,horizontal
3b,22,100353,1,9,9,19,F,blocked,constant,homogeneous,4,present,NaN,0,horizontal,none,0,2,green,3,4,615.445130110311,415.445130110311,615.445130110311,784.554869889689,984.554869889689,784.554869889689,984.554869889689,415.445130110311,615.445130110311,415.445130110311,615.445130110311,784.554869889689,0,0,4,0,vertical,vertical,horizontal,horizontal
3b,22,100353,1,10,10,19,F,blocked,constant,homogeneous,4,absent,1.36758089065552,1,vertical,vertical,1,2,green,1,NaN,984.554869889689,784.554869889689,NaN,NaN,984.554869889689,784.554869889689,984.554869889689,415.445130110311,615.445130110311,415.445130110311,615.445130110311,784.554869889689,4,0,0,0,vertical,vertical,horizontal,vertical
3b,22,100353,1,11,11,19,F,blocked,constant,homogeneous,4,present,1.35555410385132,0,horizontal,vertical,1,3,green,4,2,615.445130110311,784.554869889689,984.554869889689,415.445130110311,984.554869889689,784.554869889689,984.554869889689,415.445130110311,615.445130110311,415.445130110311,615.445130110311,784.554869889689,0,0,0,4,vertical,horizontal,vertical,horizontal
3b,22,100353,1,12,12,19,F,blocked,constant,homogeneous,4,present,1.79245185852051,1,vertical,vertical,1,5,green,1,3,984.554869889689,784.554869889689,615.445130110311,415.445130110311,984.554869889689,784.554869889689,984.554869889689,415.445130110311,615.445130110311,415.445130110311,615.445130110311,784.554869889689,4,0,0,0,vertical,horizontal,vertical,horizontal
3b,22,100353,1,13,13,19,F,blocked,constant,homogeneous,4,present,NaN,0,vertical,none,0,2,green,4,3,615.445130110311,784.554869889689,615.445130110311,415.445130110311,984.554869889689,784.554869889689,984.554869889689,415.445130110311,615.445130110311,415.445130110311,615.445130110311,784.554869889689,0,0,0,4,vertical,horizontal,horizontal,vertical
3b,22,100353,1,14,14,19,F,blocked,constant,homogeneous,4,absent,1.72062587738037,1,vertical,vertical,1,2,green,2,NaN,984.554869889689,415.445130110311,NaN,NaN,984.554869889689,784.554869889689,984.554869889689,415.445130110311,615.445130110311,415.445130110311,615.445130110311,784.554869889689,0,4,0,0,horizontal,vertical,vertical,vertical
3b,22,100353,1,15,15,19,F,blocked,constant,homogeneous,4,present,NaN,0,horizontal,none,0,3,green,1,3,984.554869889689,784.554869889689,615.445130110311,415.445130110311,984.554869889689,784.554869889689,984.554869889689,415.445130110311,615.445130110311,415.445130110311,615.445130110311,784.554869889689,4,0,0,0,horizontal,horizontal,horizontal,horizontal
3b,22,100353,1,16,16,19,F,blocked,constant,homogeneous,4,present,0.913567066192627,1,vertical,vertical,1,5,green,2,1,984.554869889689,415.445130110311,984.554869889689,784.554869889689,984.554869889689,784.554869889689,984.554869889689,415.445130110311,615.445130110311,415.445130110311,615.445130110311,784.554869889689,0,4,0,0,vertical,vertical,horizontal,horizontal
3b,22,100353,1,17,17,19,F,blocked,constant,homogeneous,4,present,NaN,0,horizontal,none,0,2,green,1,3,984.554869889689,784.554869889689,615.445130110311,415.445130110311,984.554869889689,784.554869889689,984.554869889689,415.445130110311,615.445130110311,415.445130110311,615.445130110311,784.554869889689,4,0,0,0,horizontal,horizontal,horizontal,vertical
3b,22,100353,1,18,18,19,F,blocked,constant,homogeneous,4,absent,1.6819908618927,1,horizontal,horizontal,1,2,green,2,NaN,984.554869889689,415.445130110311,NaN,NaN,984.554869889689,784.554869889689,984.554869889689,415.445130110311,615.445130110311,415.445130110311,615.445130110311,784.554869889689,0,4,0,0,vertical,horizontal,vertical,vertical
3b,22,100353,1,19,19,19,F,blocked,constant,homogeneous,4,present,1.24623107910156,1,vertical,vertical,1,3,green,3,4,615.445130110311,415.445130110311,615.445130110311,784.554869889689,984.554869889689,784.554869889689,984.554869889689,415.445130110311,615.445130110311,415.445130110311,615.445130110311,784.554869889689,0,0,4,0,vertical,horizontal,vertical,vertical
3b,22,100353,1,20,20,19,F,blocked,constant,homogeneous,4,absent,0.77071213722229,1,vertical,vertical,1,3,green,3,NaN,615.445130110311,415.445130110311,NaN,NaN,984.554869889689,784.554869889689,984.554869889689,415.445130110311,615.445130110311,415.445130110311,615.445130110311,784.554869889689,0,0,4,0,vertical,horizontal,vertical,vertical
3b,22,100353,1,21,21,19,F,blocked,constant,homogeneous,4,present,0.847192049026489,1,vertical,vertical,1,2,green,1,2,984.554869889689,784.554869889689,984.554869889689,415.445130110311,984.554869889689,784.554869889689,984.554869889689,415.445130110311,615.445130110311,415.445130110311,615.445130110311,784.554869889689,4,0,0,0,vertical,vertical,vertical,horizontal
3b,22,100353,1,22,22,19,F,blocked,constant,homogeneous,4,present,NaN,0,horizontal,none,0,2,green,1,4,984.554869889689,784.554869889689,615.445130110311,784.554869889689,984.554869889689,784.554869889689,984.554869889689,415.445130110311,615.445130110311,415.445130110311,615.445130110311,784.554869889689,4,0,0,0,horizontal,horizontal,horizontal,horizontal
3b,22,100353,1,23,23,19,F,blocked,constant,homogeneous,4,present,NaN,0,horizontal,none,0,3,green,4,2,615.445130110311,784.554869889689,984.554869889689,415.445130110311,984.554869889689,784.554869889689,984.554869889689,415.445130110311,615.445130110311,415.445130110311,615.445130110311,784.554869889689,0,0,0,4,horizontal,horizontal,vertical,horizontal
3b,22,100353,1,24,24,19,F,blocked,constant,homogeneous,4,present,1.0119252204895,1,horizontal,horizontal,1,5,green,1,3,984.554869889689,784.554869889689,615.445130110311,415.445130110311,984.554869889689,784.554869889689,984.554869889689,415.445130110311,615.445130110311,415.445130110311,615.445130110311,784.554869889689,4,0,0,0,horizontal,vertical,vertical,vertical
3b,22,100353,1,25,25,19,F,blocked,constant,homogeneous,4,absent,1.1681079864502,0,horizontal,vertical,1,5,green,2,NaN,984.554869889689,415.445130110311,NaN,NaN,984.554869889689,784.554869889689,984.554869889689,415.445130110311,615.445130110311,415.445130110311,615.445130110311,784.554869889689,0,4,0,0,horizontal,horizontal,horizontal,horizontal
3b,22,100353,1,26,26,19,F,blocked,constant,homogeneous,4,absent,1.16455006599426,0,vertical,horizontal,1,5,green,1,NaN,984.554869889689,784.554869889689,NaN,NaN,984.554869889689,784.554869889689,984.554869889689,415.445130110311,615.445130110311,415.445130110311,615.445130110311,784.554869889689,4,0,0,0,vertical,vertical,horizontal,horizontal
3b,22,100353,1,27,27,19,F,blocked,constant,homogeneous,4,present,1.17714691162109,1,vertical,vertical,1,8,green,4,3,615.445130110311,784.554869889689,615.445130110311,415.445130110311,984.554869889689,784.554869889689,984.554869889689,415.445130110311,615.445130110311,415.445130110311,615.445130110311,784.554869889689,0,0,0,4,horizontal,vertical,vertical,vertical
3b,22,100353,1,28,28,19,F,blocked,constant,homogeneous,4,present,NaN,0,horizontal,none,0,5,green,4,1,615.445130110311,784.554869889689,984.554869889689,784.554869889689,984.554869889689,784.554869889689,984.554869889689,415.445130110311,615.445130110311,415.445130110311,615.445130110311,784.554869889689,0,0,0,4,horizontal,vertical,horizontal,horizontal
3b,22,100353,1,29,29,19,F,blocked,constant,homogeneous,4,present,1.31371712684631,1,horizontal,horizontal,1,2,green,1,4,984.554869889689,784.554869889689,615.445130110311,784.554869889689,984.554869889689,784.554869889689,984.554869889689,415.445130110311,615.445130110311,415.445130110311,615.445130110311,784.554869889689,4,0,0,0,horizontal,horizontal,horizontal,vertical
3b,22,100353,1,30,30,19,F,blocked,constant,homogeneous,4,present,1.09407901763916,0,vertical,horizontal,1,5,green,4,1,615.445130110311,784.554869889689,984.554869889689,784.554869889689,984.554869889689,784.554869889689,984.554869889689,415.445130110311,615.445130110311,415.445130110311,615.445130110311,784.554869889689,0,0,0,4,vertical,horizontal,vertical,vertical
3b,22,100353,1,31,31,19,F,blocked,constant,homogeneous,4,present,1.06660485267639,1,vertical,vertical,1,3,green,3,2,615.445130110311,415.445130110311,984.554869889689,415.445130110311,984.554869889689,784.554869889689,984.554869889689,415.445130110311,615.445130110311,415.445130110311,615.445130110311,784.554869889689,0,0,4,0,horizontal,vertical,vertical,horizontal
3b,22,100353,1,32,32,19,F,blocked,constant,homogeneous,4,present,1.99891686439514,1,horizontal,horizontal,1,2,green,2,1,984.554869889689,415.445130110311,984.554869889689,784.554869889689,984.554869889689,784.554869889689,984.554869889689,415.445130110311,615.445130110311,415.445130110311,615.445130110311,784.554869889689,0,4,0,0,horizontal,horizontal,horizontal,vertical
3b,22,100353,1,33,33,19,F,blocked,constant,homogeneous,4,absent,NaN,0,horizontal,none,0,2,green,2,NaN,984.554869889689,415.445130110311,NaN,NaN,984.554869889689,784.554869889689,984.554869889689,415.445130110311,615.445130110311,415.445130110311,615.445130110311,784.554869889689,0,4,0,0,vertical,horizontal,horizontal,vertical
3b,22,100353,1,34,34,19,F,blocked,constant,homogeneous,4,present,1.17544794082642,1,horizontal,horizontal,1,2,green,3,2,615.445130110311,415.445130110311,984.554869889689,415.445130110311,984.554869889689,784.554869889689,984.554869889689,415.445130110311,615.445130110311,415.445130110311,615.445130110311,784.554869889689,0,0,4,0,horizontal,horizontal,horizontal,vertical
3b,22,100353,1,35,35,19,F,blocked,constant,homogeneous,4,absent,1.0757040977478,1,vertical,vertical,1,8,green,1,NaN,984.554869889689,784.554869889689,NaN,NaN,984.554869889689,784.554869889689,984.554869889689,415.445130110311,615.445130110311,415.445130110311,615.445130110311,784.554869889689,4,0,0,0,vertical,vertical,horizontal,vertical
3b,22,100353,1,36,36,19,F,blocked,constant,homogeneous,4,absent,1.40803790092468,1,horizontal,horizontal,1,3,green,4,NaN,615.445130110311,784.554869889689,NaN,NaN,984.554869889689,784.554869889689,984.554869889689,415.445130110311,615.445130110311,415.445130110311,615.445130110311,784.554869889689,0,0,0,4,vertical,vertical,vertical,horizontal
3b,22,100353,1,37,37,19,F,blocked,constant,homogeneous,4,present,1.86057901382446,1,vertical,vertical,1,2,green,4,2,615.445130110311,784.554869889689,984.554869889689,415.445130110311,984.554869889689,784.554869889689,984.554869889689,415.445130110311,615.445130110311,415.445130110311,615.445130110311,784.554869889689,0,0,0,4,vertical,horizontal,horizontal,vertical
3b,22,100353,1,38,38,19,F,blocked,constant,homogeneous,4,present,1.22461295127869,0,horizontal,vertical,1,5,green,4,1,615.445130110311,784.554869889689,984.554869889689,784.554869889689,984.554869889689,784.554869889689,984.554869889689,415.445130110311,615.445130110311,415.445130110311,615.445130110311,784.554869889689,0,0,0,4,horizontal,horizontal,horizontal,horizontal
3b,22,100353,1,39,39,19,F,blocked,constant,homogeneous,4,absent,1.18911910057068,1,horizontal,horizontal,1,2,green,2,NaN,984.554869889689,415.445130110311,NaN,NaN,984.554869889689,784.554869889689,984.554869889689,415.445130110311,615.445130110311,415.445130110311,615.445130110311,784.554869889689,0,4,0,0,horizontal,horizontal,vertical,vertical
3b,22,100353,1,40,40,19,F,blocked,constant,homogeneous,4,present,1.07340502738953,0,horizontal,vertical,1,3,green,4,2,615.445130110311,784.554869889689,984.554869889689,415.445130110311,984.554869889689,784.554869889689,984.554869889689,415.445130110311,615.445130110311,415.445130110311,615.445130110311,784.554869889689,0,0,0,4,horizontal,vertical,vertical,horizontal
3b,22,100353,1,41,41,19,F,blocked,constant,homogeneous,4,absent,1.88589596748352,1,horizontal,horizontal,1,5,green,1,NaN,984.554869889689,784.554869889689,NaN,NaN,984.554869889689,784.554869889689,984.554869889689,415.445130110311,615.445130110311,415.445130110311,615.445130110311,784.554869889689,4,0,0,0,horizontal,horizontal,vertical,horizontal
3b,22,100353,1,42,42,19,F,blocked,constant,homogeneous,4,absent,NaN,0,vertical,none,0,5,green,3,NaN,615.445130110311,415.445130110311,NaN,NaN,984.554869889689,784.554869889689,984.554869889689,415.445130110311,615.445130110311,415.445130110311,615.445130110311,784.554869889689,0,0,4,0,horizontal,horizontal,vertical,horizontal
3b,22,100353,1,43,43,19,F,blocked,constant,homogeneous,4,present,1.29434490203857,0,vertical,horizontal,1,3,green,2,3,984.554869889689,415.445130110311,615.445130110311,415.445130110311,984.554869889689,784.554869889689,984.554869889689,415.445130110311,615.445130110311,415.445130110311,615.445130110311,784.554869889689,0,4,0,0,horizontal,vertical,vertical,vertical
3b,22,100353,1,44,44,19,F,blocked,constant,homogeneous,4,present,1.09074306488037,1,horizontal,horizontal,1,8,green,4,3,615.445130110311,784.554869889689,615.445130110311,415.445130110311,984.554869889689,784.554869889689,984.554869889689,415.445130110311,615.445130110311,415.445130110311,615.445130110311,784.554869889689,0,0,0,4,horizontal,vertical,horizontal,horizontal
3b,22,100353,1,45,45,19,F,blocked,constant,homogeneous,4,absent,NaN,0,horizontal,none,0,8,green,2,NaN,984.554869889689,415.445130110311,NaN,NaN,984.554869889689,784.554869889689,984.554869889689,415.445130110311,615.445130110311,415.445130110311,615.445130110311,784.554869889689,0,4,0,0,horizontal,horizontal,horizontal,horizontal
3b,22,100353,1,46,46,19,F,blocked,constant,homogeneous,4,present,NaN,0,vertical,none,0,8,green,2,1,984.554869889689,415.445130110311,984.554869889689,784.554869889689,984.554869889689,784.554869889689,984.554869889689,415.445130110311,615.445130110311,415.445130110311,615.445130110311,784.554869889689,0,4,0,0,horizontal,vertical,vertical,vertical
3b,22,100353,1,47,47,19,F,blocked,constant,homogeneous,4,present,0.776002168655396,1,horizontal,horizontal,1,5,green,2,4,984.554869889689,415.445130110311,615.445130110311,784.554869889689,984.554869889689,784.554869889689,984.554869889689,415.445130110311,615.445130110311,415.445130110311,615.445130110311,784.554869889689,0,4,0,0,vertical,horizontal,horizontal,horizontal
3b,22,100353,1,48,48,19,F,blocked,constant,homogeneous,4,absent,1.70827603340149,1,vertical,vertical,1,2,green,4,NaN,615.445130110311,784.554869889689,NaN,NaN,984.554869889689,784.554869889689,984.554869889689,415.445130110311,615.445130110311,415.445130110311,615.445130110311,784.554869889689,0,0,0,4,vertical,vertical,vertical,vertical
3b,22,100353,2,1,49,19,F,blocked,constant,homogeneous,4,present,1.75651907920837,1,horizontal,horizontal,1,2,green,1,4,984.554869889689,784.554869889689,615.445130110311,784.554869889689,984.554869889689,784.554869889689,984.554869889689,415.445130110311,615.445130110311,415.445130110311,615.445130110311,784.554869889689,4,0,0,0,horizontal,vertical,horizontal,horizontal
3b,22,100353,2,2,50,19,F,blocked,constant,homogeneous,4,present,1.12877082824707,1,vertical,vertical,1,3,green,1,4,984.554869889689,784.554869889689,615.445130110311,784.554869889689,984.554869889689,784.554869889689,984.554869889689,415.445130110311,615.445130110311,415.445130110311,615.445130110311,784.554869889689,4,0,0,0,vertical,horizontal,vertical,vertical
3b,22,100353,2,3,51,19,F,blocked,constant,homogeneous,4,absent,1.44507098197937,1,vertical,vertical,1,5,green,1,NaN,984.554869889689,784.554869889689,NaN,NaN,984.554869889689,784.554869889689,984.554869889689,415.445130110311,615.445130110311,415.445130110311,615.445130110311,784.554869889689,4,0,0,0,vertical,vertical,vertical,horizontal
3b,22,100353,2,4,52,19,F,blocked,constant,homogeneous,4,present,1.63356685638428,1,horizontal,horizontal,1,5,green,1,4,984.554869889689,784.554869889689,615.445130110311,784.554869889689,984.554869889689,784.554869889689,984.554869889689,415.445130110311,615.445130110311,415.445130110311,615.445130110311,784.554869889689,4,0,0,0,horizontal,horizontal,horizontal,horizontal
3b,22,100353,2,5,53,19,F,blocked,constant,homogeneous,4,present,1.65392899513245,1,horizontal,horizontal,1,3,green,3,2,615.445130110311,415.445130110311,984.554869889689,415.445130110311,984.554869889689,784.554869889689,984.554869889689,415.445130110311,615.445130110311,415.445130110311,615.445130110311,784.554869889689,0,0,4,0,vertical,horizontal,horizontal,horizontal
3b,22,100353,2,6,54,19,F,blocked,constant,homogeneous,4,absent,NaN,0,horizontal,none,0,2,green,1,NaN,984.554869889689,784.554869889689,NaN,NaN,984.554869889689,784.554869889689,984.554869889689,415.445130110311,615.445130110311,415.445130110311,615.445130110311,784.554869889689,4,0,0,0,horizontal,horizontal,horizontal,vertical
3b,22,100353,2,7,55,19,F,blocked,constant,homogeneous,4,absent,0.878582000732422,1,vertical,vertical,1,5,green,1,NaN,984.554869889689,784.554869889689,NaN,NaN,984.554869889689,784.554869889689,984.554869889689,415.445130110311,615.445130110311,415.445130110311,615.445130110311,784.554869889689,4,0,0,0,vertical,vertical,horizontal,horizontal
3b,22,100353,2,8,56,19,F,blocked,constant,homogeneous,4,present,0.859121084213257,0,vertical,horizontal,1,5,green,3,4,615.445130110311,415.445130110311,615.445130110311,784.554869889689,984.554869889689,784.554869889689,984.554869889689,415.445130110311,615.445130110311,415.445130110311,615.445130110311,784.554869889689,0,0,4,0,vertical,horizontal,vertical,horizontal
3b,22,100353,2,9,57,19,F,blocked,constant,homogeneous,4,present,1.43926692008972,1,vertical,vertical,1,3,green,1,3,984.554869889689,784.554869889689,615.445130110311,415.445130110311,984.554869889689,784.554869889689,984.554869889689,415.445130110311,615.445130110311,415.445130110311,615.445130110311,784.554869889689,4,0,0,0,vertical,vertical,horizontal,horizontal
3b,22,100353,2,10,58,19,F,blocked,constant,homogeneous,4,absent,1.42757511138916,1,horizontal,horizontal,1,2,green,2,NaN,984.554869889689,415.445130110311,NaN,NaN,984.554869889689,784.554869889689,984.554869889689,415.445130110311,615.445130110311,415.445130110311,615.445130110311,784.554869889689,0,4,0,0,vertical,horizontal,horizontal,vertical
3b,22,100353,2,11,59,19,F,blocked,constant,homogeneous,4,present,0.887860059738159,1,horizontal,horizontal,1,2,green,2,4,984.554869889689,415.445130110311,615.445130110311,784.554869889689,984.554869889689,784.554869889689,984.554869889689,415.445130110311,615.445130110311,415.445130110311,615.445130110311,784.554869889689,0,4,0,0,vertical,horizontal,horizontal,horizontal
3b,22,100353,2,12,60,19,F,blocked,constant,homogeneous,4,present,0.660075902938843,1,vertical,vertical,1,5,green,1,4,984.554869889689,784.554869889689,615.445130110311,784.554869889689,984.554869889689,784.554869889689,984.554869889689,415.445130110311,615.445130110311,415.445130110311,615.445130110311,784.554869889689,4,0,0,0,vertical,vertical,vertical,vertical
3b,22,100353,2,13,61,19,F,blocked,constant,homogeneous,4,absent,1.00050902366638,0,vertical,horizontal,1,2,green,3,NaN,615.445130110311,415.445130110311,NaN,NaN,984.554869889689,784.554869889689,984.554869889689,415.445130110311,615.445130110311,415.445130110311,615.445130110311,784.554869889689,0,0,4,0,vertical,vertical,vertical,horizontal
3b,22,100353,2,14,62,19,F,blocked,constant,homogeneous,4,present,1.18079400062561,0,vertical,horizontal,1,5,green,2,1,984.554869889689,415.445130110311,984.554869889689,784.554869889689,984.554869889689,784.554869889689,984.554869889689,415.445130110311,615.445130110311,415.445130110311,615.445130110311,784.554869889689,0,4,0,0,vertical,vertical,vertical,vertical
3b,22,100353,2,15,63,19,F,blocked,constant,homogeneous,4,present,0.849285125732422,1,vertical,vertical,1,5,green,2,3,984.554869889689,415.445130110311,615.445130110311,415.445130110311,984.554869889689,784.554869889689,984.554869889689,415.445130110311,615.445130110311,415.445130110311,615.445130110311,784.554869889689,0,4,0,0,vertical,vertical,vertical,vertical
3b,22,100353,2,16,64,19,F,blocked,constant,homogeneous,4,present,0.797446966171265,0,vertical,horizontal,1,3,green,1,3,984.554869889689,784.554869889689,615.445130110311,415.445130110311,984.554869889689,784.554869889689,984.554869889689,415.445130110311,615.445130110311,415.445130110311,615.445130110311,784.554869889689,4,0,0,0,vertical,horizontal,vertical,horizontal
3b,22,100353,2,17,65,19,F,blocked,constant,homogeneous,4,present,1.07371497154236,1,horizontal,horizontal,1,3,green,3,2,615.445130110311,415.445130110311,984.554869889689,415.445130110311,984.554869889689,784.554869889689,984.554869889689,415.445130110311,615.445130110311,415.445130110311,615.445130110311,784.554869889689,0,0,4,0,horizontal,vertical,horizontal,horizontal
3b,22,100353,2,18,66,19,F,blocked,constant,homogeneous,4,present,0.766413927078247,1,vertical,vertical,1,2,green,3,2,615.445130110311,415.445130110311,984.554869889689,415.445130110311,984.554869889689,784.554869889689,984.554869889689,415.445130110311,615.445130110311,415.445130110311,615.445130110311,784.554869889689,0,0,4,0,horizontal,vertical,vertical,horizontal
3b,22,100353,2,19,67,19,F,blocked,constant,homogeneous,4,present,1.07442283630371,1,horizontal,horizontal,1,2,green,4,1,615.445130110311,784.554869889689,984.554869889689,784.554869889689,984.554869889689,784.554869889689,984.554869889689,415.445130110311,615.445130110311,415.445130110311,615.445130110311,784.554869889689,0,0,0,4,vertical,horizontal,horizontal,horizontal
3b,22,100353,2,20,68,19,F,blocked,constant,homogeneous,4,absent,1.65471506118774,1,horizontal,horizontal,1,3,green,2,NaN,984.554869889689,415.445130110311,NaN,NaN,984.554869889689,784.554869889689,984.554869889689,415.445130110311,615.445130110311,415.445130110311,615.445130110311,784.554869889689,0,4,0,0,horizontal,horizontal,horizontal,horizontal
3b,22,100353,2,21,69,19,F,blocked,constant,homogeneous,4,present,0.859308958053589,0,horizontal,vertical,1,2,green,1,4,984.554869889689,784.554869889689,615.445130110311,784.554869889689,984.554869889689,784.554869889689,984.554869889689,415.445130110311,615.445130110311,415.445130110311,615.445130110311,784.554869889689,4,0,0,0,horizontal,vertical,vertical,horizontal
3b,22,100353,2,22,70,19,F,blocked,constant,homogeneous,4,present,0.91146993637085,1,vertical,vertical,1,8,green,3,4,615.445130110311,415.445130110311,615.445130110311,784.554869889689,984.554869889689,784.554869889689,984.554869889689,415.445130110311,615.445130110311,415.445130110311,615.445130110311,784.554869889689,0,0,4,0,vertical,vertical,vertical,vertical
3b,22,100353,2,23,71,19,F,blocked,constant,homogeneous,4,present,0.651776075363159,1,horizontal,horizontal,1,5,green,2,4,984.554869889689,415.445130110311,615.445130110311,784.554869889689,984.554869889689,784.554869889689,984.554869889689,415.445130110311,615.445130110311,415.445130110311,615.445130110311,784.554869889689,0,4,0,0,vertical,horizontal,horizontal,vertical
3b,22,100353,2,24,72,19,F,blocked,constant,homogeneous,4,present,1.20015716552734,1,vertical,vertical,1,2,green,1,2,984.554869889689,784.554869889689,984.554869889689,415.445130110311,984.554869889689,784.554869889689,984.554869889689,415.445130110311,615.445130110311,415.445130110311,615.445130110311,784.554869889689,4,0,0,0,vertical,horizontal,horizontal,vertical
3b,22,100353,2,25,73,19,F,blocked,constant,homogeneous,4,absent,1.26053500175476,1,vertical,vertical,1,3,green,2,NaN,984.554869889689,415.445130110311,NaN,NaN,984.554869889689,784.554869889689,984.554869889689,415.445130110311,615.445130110311,415.445130110311,615.445130110311,784.554869889689,0,4,0,0,vertical,vertical,horizontal,horizontal
3b,22,100353,2,26,74,19,F,blocked,constant,homogeneous,4,present,1.44895315170288,1,horizontal,horizontal,1,3,green,2,3,984.554869889689,415.445130110311,615.445130110311,415.445130110311,984.554869889689,784.554869889689,984.554869889689,415.445130110311,615.445130110311,415.445130110311,615.445130110311,784.554869889689,0,4,0,0,vertical,horizontal,vertical,vertical
3b,22,100353,2,27,75,19,F,blocked,constant,homogeneous,4,present,1.53325605392456,1,horizontal,horizontal,1,5,green,3,2,615.445130110311,415.445130110311,984.554869889689,415.445130110311,984.554869889689,784.554869889689,984.554869889689,415.445130110311,615.445130110311,415.445130110311,615.445130110311,784.554869889689,0,0,4,0,vertical,horizontal,horizontal,vertical
3b,22,100353,2,28,76,19,F,blocked,constant,homogeneous,4,absent,0.889488935470581,1,vertical,vertical,1,2,green,1,NaN,984.554869889689,784.554869889689,NaN,NaN,984.554869889689,784.554869889689,984.554869889689,415.445130110311,615.445130110311,415.445130110311,615.445130110311,784.554869889689,4,0,0,0,vertical,vertical,vertical,horizontal
3b,22,100353,2,29,77,19,F,blocked,constant,homogeneous,4,present,0.94187593460083,1,horizontal,horizontal,1,2,green,4,3,615.445130110311,784.554869889689,615.445130110311,415.445130110311,984.554869889689,784.554869889689,984.554869889689,415.445130110311,615.445130110311,415.445130110311,615.445130110311,784.554869889689,0,0,0,4,vertical,horizontal,vertical,horizontal
3b,22,100353,2,30,78,19,F,blocked,constant,homogeneous,4,present,1.47417712211609,1,horizontal,horizontal,1,8,green,4,3,615.445130110311,784.554869889689,615.445130110311,415.445130110311,984.554869889689,784.554869889689,984.554869889689,415.445130110311,615.445130110311,415.445130110311,615.445130110311,784.554869889689,0,0,0,4,vertical,horizontal,horizontal,horizontal
3b,22,100353,2,31,79,19,F,blocked,constant,homogeneous,4,present,0.886579990386963,1,vertical,vertical,1,2,green,2,3,984.554869889689,415.445130110311,615.445130110311,415.445130110311,984.554869889689,784.554869889689,984.554869889689,415.445130110311,615.445130110311,415.445130110311,615.445130110311,784.554869889689,0,4,0,0,horizontal,vertical,horizontal,horizontal
3b,22,100353,2,32,80,19,F,blocked,constant,homogeneous,4,present,0.930859804153442,1,vertical,vertical,1,8,green,2,3,984.554869889689,415.445130110311,615.445130110311,415.445130110311,984.554869889689,784.554869889689,984.554869889689,415.445130110311,615.445130110311,415.445130110311,615.445130110311,784.554869889689,0,4,0,0,vertical,vertical,vertical,vertical
3b,22,100353,2,33,81,19,F,blocked,constant,homogeneous,4,present,1.0711350440979,1,horizontal,horizontal,1,2,green,2,4,984.554869889689,415.445130110311,615.445130110311,784.554869889689,984.554869889689,784.554869889689,984.554869889689,415.445130110311,615.445130110311,415.445130110311,615.445130110311,784.554869889689,0,4,0,0,horizontal,horizontal,horizontal,horizontal
3b,22,100353,2,34,82,19,F,blocked,constant,homogeneous,4,absent,0.715831995010376,1,horizontal,horizontal,1,5,green,2,NaN,984.554869889689,415.445130110311,NaN,NaN,984.554869889689,784.554869889689,984.554869889689,415.445130110311,615.445130110311,415.445130110311,615.445130110311,784.554869889689,0,4,0,0,horizontal,horizontal,vertical,horizontal
3b,22,100353,2,35,83,19,F,blocked,constant,homogeneous,4,present,0.784013032913208,1,vertical,vertical,1,2,green,2,4,984.554869889689,415.445130110311,615.445130110311,784.554869889689,984.554869889689,784.554869889689,984.554869889689,415.445130110311,615.445130110311,415.445130110311,615.445130110311,784.554869889689,0,4,0,0,horizontal,vertical,horizontal,horizontal
3b,22,100353,2,36,84,19,F,blocked,constant,homogeneous,4,absent,0.956326961517334,1,vertical,vertical,1,8,green,3,NaN,615.445130110311,415.445130110311,NaN,NaN,984.554869889689,784.554869889689,984.554869889689,415.445130110311,615.445130110311,415.445130110311,615.445130110311,784.554869889689,0,0,4,0,vertical,vertical,vertical,vertical
3b,22,100353,2,37,85,19,F,blocked,constant,homogeneous,4,present,1.32886385917664,1,horizontal,horizontal,1,3,green,1,4,984.554869889689,784.554869889689,615.445130110311,784.554869889689,984.554869889689,784.554869889689,984.554869889689,415.445130110311,615.445130110311,415.445130110311,615.445130110311,784.554869889689,4,0,0,0,horizontal,vertical,vertical,horizontal
3b,22,100353,2,38,86,19,F,blocked,constant,homogeneous,4,absent,0.996932029724121,1,vertical,vertical,1,2,green,1,NaN,984.554869889689,784.554869889689,NaN,NaN,984.554869889689,784.554869889689,984.554869889689,415.445130110311,615.445130110311,415.445130110311,615.445130110311,784.554869889689,4,0,0,0,vertical,vertical,vertical,vertical
3b,22,100353,2,39,87,19,F,blocked,constant,homogeneous,4,absent,0.913180828094482,1,horizontal,horizontal,1,3,green,1,NaN,984.554869889689,784.554869889689,NaN,NaN,984.554869889689,784.554869889689,984.554869889689,415.445130110311,615.445130110311,415.445130110311,615.445130110311,784.554869889689,4,0,0,0,horizontal,horizontal,vertical,horizontal
3b,22,100353,2,40,88,19,F,blocked,constant,homogeneous,4,present,NaN,0,vertical,none,0,2,green,4,1,615.445130110311,784.554869889689,984.554869889689,784.554869889689,984.554869889689,784.554869889689,984.554869889689,415.445130110311,615.445130110311,415.445130110311,615.445130110311,784.554869889689,0,0,0,4,horizontal,vertical,vertical,vertical
3b,22,100353,2,41,89,19,F,blocked,constant,homogeneous,4,present,1.45813989639282,1,vertical,vertical,1,3,green,1,3,984.554869889689,784.554869889689,615.445130110311,415.445130110311,984.554869889689,784.554869889689,984.554869889689,415.445130110311,615.445130110311,415.445130110311,615.445130110311,784.554869889689,4,0,0,0,vertical,horizontal,vertical,horizontal
3b,22,100353,2,42,90,19,F,blocked,constant,homogeneous,4,present,0.758288145065308,1,horizontal,horizontal,1,5,green,3,4,615.445130110311,415.445130110311,615.445130110311,784.554869889689,984.554869889689,784.554869889689,984.554869889689,415.445130110311,615.445130110311,415.445130110311,615.445130110311,784.554869889689,0,0,4,0,vertical,horizontal,horizontal,horizontal
3b,22,100353,2,43,91,19,F,blocked,constant,homogeneous,4,absent,0.778580188751221,1,horizontal,horizontal,1,5,green,3,NaN,615.445130110311,415.445130110311,NaN,NaN,984.554869889689,784.554869889689,984.554869889689,415.445130110311,615.445130110311,415.445130110311,615.445130110311,784.554869889689,0,0,4,0,horizontal,vertical,horizontal,vertical
3b,22,100353,2,44,92,19,F,blocked,constant,homogeneous,4,absent,0.966941833496094,1,horizontal,horizontal,1,8,green,2,NaN,984.554869889689,415.445130110311,NaN,NaN,984.554869889689,784.554869889689,984.554869889689,415.445130110311,615.445130110311,415.445130110311,615.445130110311,784.554869889689,0,4,0,0,vertical,horizontal,horizontal,vertical
3b,22,100353,2,45,93,19,F,blocked,constant,homogeneous,4,absent,0.995565176010132,1,horizontal,horizontal,1,2,green,3,NaN,615.445130110311,415.445130110311,NaN,NaN,984.554869889689,784.554869889689,984.554869889689,415.445130110311,615.445130110311,415.445130110311,615.445130110311,784.554869889689,0,0,4,0,vertical,horizontal,horizontal,horizontal
3b,22,100353,2,46,94,19,F,blocked,constant,homogeneous,4,present,1.18399786949158,1,horizontal,horizontal,1,8,green,2,1,984.554869889689,415.445130110311,984.554869889689,784.554869889689,984.554869889689,784.554869889689,984.554869889689,415.445130110311,615.445130110311,415.445130110311,615.445130110311,784.554869889689,0,4,0,0,vertical,horizontal,horizontal,horizontal
3b,22,100353,2,47,95,19,F,blocked,constant,homogeneous,4,absent,0.81208610534668,1,vertical,vertical,1,3,green,1,NaN,984.554869889689,784.554869889689,NaN,NaN,984.554869889689,784.554869889689,984.554869889689,415.445130110311,615.445130110311,415.445130110311,615.445130110311,784.554869889689,4,0,0,0,vertical,horizontal,horizontal,horizontal
3b,22,100353,2,48,96,19,F,blocked,constant,homogeneous,4,present,1.16865491867065,1,vertical,vertical,1,2,green,4,3,615.445130110311,784.554869889689,615.445130110311,415.445130110311,984.554869889689,784.554869889689,984.554869889689,415.445130110311,615.445130110311,415.445130110311,615.445130110311,784.554869889689,0,0,0,4,vertical,horizontal,horizontal,vertical
3b,22,100353,3,1,97,19,F,blocked,constant,homogeneous,4,present,1.47917485237122,0,vertical,horizontal,1,2,green,2,1,984.554869889689,415.445130110311,984.554869889689,784.554869889689,984.554869889689,784.554869889689,984.554869889689,415.445130110311,615.445130110311,415.445130110311,615.445130110311,784.554869889689,0,4,0,0,horizontal,vertical,horizontal,vertical
3b,22,100353,3,2,98,19,F,blocked,constant,homogeneous,4,absent,0.963797092437744,1,vertical,vertical,1,2,green,1,NaN,984.554869889689,784.554869889689,NaN,NaN,984.554869889689,784.554869889689,984.554869889689,415.445130110311,615.445130110311,415.445130110311,615.445130110311,784.554869889689,4,0,0,0,vertical,horizontal,vertical,vertical
3b,22,100353,3,3,99,19,F,blocked,constant,homogeneous,4,present,1.60820984840393,1,horizontal,horizontal,1,5,green,1,2,984.554869889689,784.554869889689,984.554869889689,415.445130110311,984.554869889689,784.554869889689,984.554869889689,415.445130110311,615.445130110311,415.445130110311,615.445130110311,784.554869889689,4,0,0,0,horizontal,vertical,vertical,vertical
3b,22,100353,3,4,100,19,F,blocked,constant,homogeneous,4,absent,0.716578960418701,1,horizontal,horizontal,1,3,green,1,NaN,984.554869889689,784.554869889689,NaN,NaN,984.554869889689,784.554869889689,984.554869889689,415.445130110311,615.445130110311,415.445130110311,615.445130110311,784.554869889689,4,0,0,0,horizontal,horizontal,horizontal,vertical
3b,22,100353,3,5,101,19,F,blocked,constant,homogeneous,4,present,1.06482481956482,1,vertical,vertical,1,8,green,1,2,984.554869889689,784.554869889689,984.554869889689,415.445130110311,984.554869889689,784.554869889689,984.554869889689,415.445130110311,615.445130110311,415.445130110311,615.445130110311,784.554869889689,4,0,0,0,vertical,vertical,vertical,vertical
3b,22,100353,3,6,102,19,F,blocked,constant,homogeneous,4,present,0.70895791053772,1,horizontal,horizontal,1,3,green,1,4,984.554869889689,784.554869889689,615.445130110311,784.554869889689,984.554869889689,784.554869889689,984.554869889689,415.445130110311,615.445130110311,415.445130110311,615.445130110311,784.554869889689,4,0,0,0,horizontal,horizontal,vertical,vertical
3b,22,100353,3,7,103,19,F,blocked,constant,homogeneous,4,absent,0.94554591178894,1,vertical,vertical,1,2,green,3,NaN,615.445130110311,415.445130110311,NaN,NaN,984.554869889689,784.554869889689,984.554869889689,415.445130110311,615.445130110311,415.445130110311,615.445130110311,784.554869889689,0,0,4,0,horizontal,vertical,vertical,vertical
3b,22,100353,3,8,104,19,F,blocked,constant,homogeneous,4,present,0.973659992218018,1,vertical,vertical,1,5,green,3,1,615.445130110311,415.445130110311,984.554869889689,784.554869889689,984.554869889689,784.554869889689,984.554869889689,415.445130110311,615.445130110311,415.445130110311,615.445130110311,784.554869889689,0,0,4,0,vertical,vertical,vertical,horizontal
3b,22,100353,3,9,105,19,F,blocked,constant,homogeneous,4,present,0.738069772720337,1,horizontal,horizontal,1,8,green,3,2,615.445130110311,415.445130110311,984.554869889689,415.445130110311,984.554869889689,784.554869889689,984.554869889689,415.445130110311,615.445130110311,415.445130110311,615.445130110311,784.554869889689,0,0,4,0,vertical,vertical,horizontal,horizontal
3b,22,100353,3,10,106,19,F,blocked,constant,homogeneous,4,present,1.22267293930054,1,horizontal,horizontal,1,5,green,2,1,984.554869889689,415.445130110311,984.554869889689,784.554869889689,984.554869889689,784.554869889689,984.554869889689,415.445130110311,615.445130110311,415.445130110311,615.445130110311,784.554869889689,0,4,0,0,vertical,horizontal,horizontal,horizontal
3b,22,100353,3,11,107,19,F,blocked,constant,homogeneous,4,present,NaN,0,vertical,none,0,3,green,1,4,984.554869889689,784.554869889689,615.445130110311,784.554869889689,984.554869889689,784.554869889689,984.554869889689,415.445130110311,615.445130110311,415.445130110311,615.445130110311,784.554869889689,4,0,0,0,vertical,vertical,vertical,vertical
3b,22,100353,3,12,108,19,F,blocked,constant,homogeneous,4,absent,0.671321868896484,1,vertical,vertical,1,5,green,3,NaN,615.445130110311,415.445130110311,NaN,NaN,984.554869889689,784.554869889689,984.554869889689,415.445130110311,615.445130110311,415.445130110311,615.445130110311,784.554869889689,0,0,4,0,vertical,vertical,vertical,horizontal
3b,22,100353,3,13,109,19,F,blocked,constant,homogeneous,4,present,0.651551008224487,1,horizontal,horizontal,1,3,green,3,2,615.445130110311,415.445130110311,984.554869889689,415.445130110311,984.554869889689,784.554869889689,984.554869889689,415.445130110311,615.445130110311,415.445130110311,615.445130110311,784.554869889689,0,0,4,0,vertical,vertical,horizontal,horizontal
3b,22,100353,3,14,110,19,F,blocked,constant,homogeneous,4,present,1.15998291969299,1,vertical,vertical,1,2,green,1,2,984.554869889689,784.554869889689,984.554869889689,415.445130110311,984.554869889689,784.554869889689,984.554869889689,415.445130110311,615.445130110311,415.445130110311,615.445130110311,784.554869889689,4,0,0,0,vertical,vertical,vertical,horizontal
3b,22,100353,3,15,111,19,F,blocked,constant,homogeneous,4,present,0.732152938842773,1,vertical,vertical,1,5,green,1,4,984.554869889689,784.554869889689,615.445130110311,784.554869889689,984.554869889689,784.554869889689,984.554869889689,415.445130110311,615.445130110311,415.445130110311,615.445130110311,784.554869889689,4,0,0,0,vertical,vertical,horizontal,vertical
3b,22,100353,3,16,112,19,F,blocked,constant,homogeneous,4,present,1.05673599243164,1,horizontal,horizontal,1,2,green,4,3,615.445130110311,784.554869889689,615.445130110311,415.445130110311,984.554869889689,784.554869889689,984.554869889689,415.445130110311,615.445130110311,415.445130110311,615.445130110311,784.554869889689,0,0,0,4,horizontal,horizontal,vertical,horizontal
3b,22,100353,3,17,113,19,F,blocked,constant,homogeneous,4,present,0.6927490234375,1,horizontal,horizontal,1,3,green,1,3,984.554869889689,784.554869889689,615.445130110311,415.445130110311,984.554869889689,784.554869889689,984.554869889689,415.445130110311,615.445130110311,415.445130110311,615.445130110311,784.554869889689,4,0,0,0,horizontal,vertical,horizontal,vertical
3b,22,100353,3,18,114,19,F,blocked,constant,homogeneous,4,absent,0.697068929672241,1,horizontal,horizontal,1,2,green,1,NaN,984.554869889689,784.554869889689,NaN,NaN,984.554869889689,784.554869889689,984.554869889689,415.445130110311,615.445130110311,415.445130110311,615.445130110311,784.554869889689,4,0,0,0,horizontal,vertical,horizontal,vertical
3b,22,100353,3,19,115,19,F,blocked,constant,homogeneous,4,present,0.765566110610962,1,horizontal,horizontal,1,3,green,3,1,615.445130110311,415.445130110311,984.554869889689,784.554869889689,984.554869889689,784.554869889689,984.554869889689,415.445130110311,615.445130110311,415.445130110311,615.445130110311,784.554869889689,0,0,4,0,vertical,vertical,horizontal,horizontal
3b,22,100353,3,20,116,19,F,blocked,constant,homogeneous,4,absent,0.697801113128662,1,horizontal,horizontal,1,5,green,1,NaN,984.554869889689,784.554869889689,NaN,NaN,984.554869889689,784.554869889689,984.554869889689,415.445130110311,615.445130110311,415.445130110311,615.445130110311,784.554869889689,4,0,0,0,horizontal,horizontal,vertical,vertical
3b,22,100353,3,21,117,19,F,blocked,constant,homogeneous,4,present,1.09421896934509,1,vertical,vertical,1,3,green,2,3,984.554869889689,415.445130110311,615.445130110311,415.445130110311,984.554869889689,784.554869889689,984.554869889689,415.445130110311,615.445130110311,415.445130110311,615.445130110311,784.554869889689,0,4,0,0,vertical,vertical,vertical,horizontal
3b,22,100353,3,22,118,19,F,blocked,constant,homogeneous,4,absent,0.802642107009888,1,vertical,vertical,1,3,green,4,NaN,615.445130110311,784.554869889689,NaN,NaN,984.554869889689,784.554869889689,984.554869889689,415.445130110311,615.445130110311,415.445130110311,615.445130110311,784.554869889689,0,0,0,4,vertical,horizontal,horizontal,vertical
3b,22,100353,3,23,119,19,F,blocked,constant,homogeneous,4,absent,0.982748031616211,1,horizontal,horizontal,1,2,green,3,NaN,615.445130110311,415.445130110311,NaN,NaN,984.554869889689,784.554869889689,984.554869889689,415.445130110311,615.445130110311,415.445130110311,615.445130110311,784.554869889689,0,0,4,0,horizontal,vertical,horizontal,vertical
3b,22,100353,3,24,120,19,F,blocked,constant,homogeneous,4,present,0.7394859790802,1,horizontal,horizontal,1,8,green,3,4,615.445130110311,415.445130110311,615.445130110311,784.554869889689,984.554869889689,784.554869889689,984.554869889689,415.445130110311,615.445130110311,415.445130110311,615.445130110311,784.554869889689,0,0,4,0,vertical,horizontal,horizontal,vertical
3b,22,100353,3,25,121,19,F,blocked,constant,homogeneous,4,absent,0.887756109237671,1,vertical,vertical,1,8,green,2,NaN,984.554869889689,415.445130110311,NaN,NaN,984.554869889689,784.554869889689,984.554869889689,415.445130110311,615.445130110311,415.445130110311,615.445130110311,784.554869889689,0,4,0,0,horizontal,vertical,horizontal,vertical
3b,22,100353,3,26,122,19,F,blocked,constant,homogeneous,4,present,1.14023590087891,1,vertical,vertical,1,3,green,2,1,984.554869889689,415.445130110311,984.554869889689,784.554869889689,984.554869889689,784.554869889689,984.554869889689,415.445130110311,615.445130110311,415.445130110311,615.445130110311,784.554869889689,0,4,0,0,vertical,vertical,vertical,horizontal
3b,22,100353,3,27,123,19,F,blocked,constant,homogeneous,4,absent,1.25643396377563,1,vertical,vertical,1,3,green,4,NaN,615.445130110311,784.554869889689,NaN,NaN,984.554869889689,784.554869889689,984.554869889689,415.445130110311,615.445130110311,415.445130110311,615.445130110311,784.554869889689,0,0,0,4,vertical,horizontal,horizontal,vertical
3b,22,100353,3,28,124,19,F,blocked,constant,homogeneous,4,present,0.740428924560547,1,horizontal,horizontal,1,2,green,4,2,615.445130110311,784.554869889689,984.554869889689,415.445130110311,984.554869889689,784.554869889689,984.554869889689,415.445130110311,615.445130110311,415.445130110311,615.445130110311,784.554869889689,0,0,0,4,vertical,horizontal,vertical,horizontal
3b,22,100353,3,29,125,19,F,blocked,constant,homogeneous,4,present,1.02499914169312,1,horizontal,horizontal,1,2,green,2,1,984.554869889689,415.445130110311,984.554869889689,784.554869889689,984.554869889689,784.554869889689,984.554869889689,415.445130110311,615.445130110311,415.445130110311,615.445130110311,784.554869889689,0,4,0,0,horizontal,horizontal,vertical,horizontal
3b,22,100353,3,30,126,19,F,blocked,constant,homogeneous,4,absent,1.09324908256531,1,horizontal,horizontal,1,8,green,1,NaN,984.554869889689,784.554869889689,NaN,NaN,984.554869889689,784.554869889689,984.554869889689,415.445130110311,615.445130110311,415.445130110311,615.445130110311,784.554869889689,4,0,0,0,horizontal,vertical,vertical,vertical
3b,22,100353,3,31,127,19,F,blocked,constant,homogeneous,4,present,1.0018298625946,1,horizontal,horizontal,1,5,green,2,4,984.554869889689,415.445130110311,615.445130110311,784.554869889689,984.554869889689,784.554869889689,984.554869889689,415.445130110311,615.445130110311,415.445130110311,615.445130110311,784.554869889689,0,4,0,0,horizontal,horizontal,horizontal,vertical
3b,22,100353,3,32,128,19,F,blocked,constant,homogeneous,4,present,1.62210392951965,1,horizontal,horizontal,1,2,green,1,2,984.554869889689,784.554869889689,984.554869889689,415.445130110311,984.554869889689,784.554869889689,984.554869889689,415.445130110311,615.445130110311,415.445130110311,615.445130110311,784.554869889689,4,0,0,0,horizontal,horizontal,vertical,horizontal
3b,22,100353,3,33,129,19,F,blocked,constant,homogeneous,4,present,1.0183641910553,1,vertical,vertical,1,5,green,2,3,984.554869889689,415.445130110311,615.445130110311,415.445130110311,984.554869889689,784.554869889689,984.554869889689,415.445130110311,615.445130110311,415.445130110311,615.445130110311,784.554869889689,0,4,0,0,vertical,vertical,vertical,horizontal
3b,22,100353,3,34,130,19,F,blocked,constant,homogeneous,4,present,0.774701118469238,1,horizontal,horizontal,1,5,green,4,2,615.445130110311,784.554869889689,984.554869889689,415.445130110311,984.554869889689,784.554869889689,984.554869889689,415.445130110311,615.445130110311,415.445130110311,615.445130110311,784.554869889689,0,0,0,4,horizontal,horizontal,vertical,horizontal
3b,22,100353,3,35,131,19,F,blocked,constant,homogeneous,4,absent,1.01879501342773,1,horizontal,horizontal,1,2,green,1,NaN,984.554869889689,784.554869889689,NaN,NaN,984.554869889689,784.554869889689,984.554869889689,415.445130110311,615.445130110311,415.445130110311,615.445130110311,784.554869889689,4,0,0,0,horizontal,horizontal,vertical,horizontal
3b,22,100353,3,36,132,19,F,blocked,constant,homogeneous,4,absent,1.10332298278809,1,vertical,vertical,1,5,green,4,NaN,615.445130110311,784.554869889689,NaN,NaN,984.554869889689,784.554869889689,984.554869889689,415.445130110311,615.445130110311,415.445130110311,615.445130110311,784.554869889689,0,0,0,4,horizontal,horizontal,horizontal,vertical
3b,22,100353,3,37,133,19,F,blocked,constant,homogeneous,4,present,1.09998297691345,1,vertical,vertical,1,3,green,2,1,984.554869889689,415.445130110311,984.554869889689,784.554869889689,984.554869889689,784.554869889689,984.554869889689,415.445130110311,615.445130110311,415.445130110311,615.445130110311,784.554869889689,0,4,0,0,vertical,vertical,horizontal,vertical
3b,22,100353,3,38,134,19,F,blocked,constant,homogeneous,4,present,1.08013701438904,1,horizontal,horizontal,1,2,green,4,2,615.445130110311,784.554869889689,984.554869889689,415.445130110311,984.554869889689,784.554869889689,984.554869889689,415.445130110311,615.445130110311,415.445130110311,615.445130110311,784.554869889689,0,0,0,4,vertical,vertical,vertical,horizontal
3b,22,100353,3,39,135,19,F,blocked,constant,homogeneous,4,present,1.40437912940979,1,vertical,vertical,1,2,green,4,3,615.445130110311,784.554869889689,615.445130110311,415.445130110311,984.554869889689,784.554869889689,984.554869889689,415.445130110311,615.445130110311,415.445130110311,615.445130110311,784.554869889689,0,0,0,4,vertical,vertical,vertical,vertical
3b,22,100353,3,40,136,19,F,blocked,constant,homogeneous,4,present,0.712804079055786,1,vertical,vertical,1,2,green,4,3,615.445130110311,784.554869889689,615.445130110311,415.445130110311,984.554869889689,784.554869889689,984.554869889689,415.445130110311,615.445130110311,415.445130110311,615.445130110311,784.554869889689,0,0,0,4,horizontal,vertical,horizontal,vertical
3b,22,100353,3,41,137,19,F,blocked,constant,homogeneous,4,absent,0.933335065841675,1,horizontal,horizontal,1,3,green,2,NaN,984.554869889689,415.445130110311,NaN,NaN,984.554869889689,784.554869889689,984.554869889689,415.445130110311,615.445130110311,415.445130110311,615.445130110311,784.554869889689,0,4,0,0,horizontal,horizontal,horizontal,horizontal
3b,22,100353,3,42,138,19,F,blocked,constant,homogeneous,4,absent,0.905503988265991,1,vertical,vertical,1,2,green,3,NaN,615.445130110311,415.445130110311,NaN,NaN,984.554869889689,784.554869889689,984.554869889689,415.445130110311,615.445130110311,415.445130110311,615.445130110311,784.554869889689,0,0,4,0,vertical,vertical,vertical,horizontal
3b,22,100353,3,43,139,19,F,blocked,constant,homogeneous,4,present,0.853780031204224,1,horizontal,horizontal,1,2,green,4,1,615.445130110311,784.554869889689,984.554869889689,784.554869889689,984.554869889689,784.554869889689,984.554869889689,415.445130110311,615.445130110311,415.445130110311,615.445130110311,784.554869889689,0,0,0,4,vertical,horizontal,horizontal,horizontal
3b,22,100353,3,44,140,19,F,blocked,constant,homogeneous,4,present,0.689661026000977,1,vertical,vertical,1,2,green,2,4,984.554869889689,415.445130110311,615.445130110311,784.554869889689,984.554869889689,784.554869889689,984.554869889689,415.445130110311,615.445130110311,415.445130110311,615.445130110311,784.554869889689,0,4,0,0,vertical,vertical,vertical,vertical
3b,22,100353,3,45,141,19,F,blocked,constant,homogeneous,4,present,0.96662712097168,1,vertical,vertical,1,8,green,1,4,984.554869889689,784.554869889689,615.445130110311,784.554869889689,984.554869889689,784.554869889689,984.554869889689,415.445130110311,615.445130110311,415.445130110311,615.445130110311,784.554869889689,4,0,0,0,vertical,horizontal,vertical,horizontal
3b,22,100353,3,46,142,19,F,blocked,constant,homogeneous,4,present,0.87504506111145,1,vertical,vertical,1,5,green,2,3,984.554869889689,415.445130110311,615.445130110311,415.445130110311,984.554869889689,784.554869889689,984.554869889689,415.445130110311,615.445130110311,415.445130110311,615.445130110311,784.554869889689,0,4,0,0,horizontal,vertical,vertical,vertical
3b,22,100353,3,47,143,19,F,blocked,constant,homogeneous,4,present,0.74283504486084,1,vertical,vertical,1,2,green,2,1,984.554869889689,415.445130110311,984.554869889689,784.554869889689,984.554869889689,784.554869889689,984.554869889689,415.445130110311,615.445130110311,415.445130110311,615.445130110311,784.554869889689,0,4,0,0,horizontal,vertical,horizontal,horizontal
3b,22,100353,3,48,144,19,F,blocked,constant,homogeneous,4,absent,1.01952791213989,1,horizontal,horizontal,1,5,green,2,NaN,984.554869889689,415.445130110311,NaN,NaN,984.554869889689,784.554869889689,984.554869889689,415.445130110311,615.445130110311,415.445130110311,615.445130110311,784.554869889689,0,4,0,0,horizontal,horizontal,horizontal,vertical
3b,22,100353,4,1,145,19,F,blocked,constant,homogeneous,4,present,NaN,0,horizontal,none,0,5,red,2,3,984.554869889689,415.445130110311,615.445130110311,415.445130110311,984.554869889689,784.554869889689,984.554869889689,415.445130110311,615.445130110311,415.445130110311,615.445130110311,784.554869889689,0,4,0,0,vertical,horizontal,horizontal,horizontal
3b,22,100353,4,2,146,19,F,blocked,constant,homogeneous,4,present,1.1147940158844,1,vertical,vertical,1,5,red,4,1,615.445130110311,784.554869889689,984.554869889689,784.554869889689,984.554869889689,784.554869889689,984.554869889689,415.445130110311,615.445130110311,415.445130110311,615.445130110311,784.554869889689,0,0,0,4,vertical,vertical,horizontal,vertical
3b,22,100353,4,3,147,19,F,blocked,constant,homogeneous,4,present,1.19899988174438,1,vertical,vertical,1,3,red,2,1,984.554869889689,415.445130110311,984.554869889689,784.554869889689,984.554869889689,784.554869889689,984.554869889689,415.445130110311,615.445130110311,415.445130110311,615.445130110311,784.554869889689,0,4,0,0,vertical,vertical,horizontal,vertical
3b,22,100353,4,4,148,19,F,blocked,constant,homogeneous,4,present,0.722929954528809,1,horizontal,horizontal,1,5,red,4,1,615.445130110311,784.554869889689,984.554869889689,784.554869889689,984.554869889689,784.554869889689,984.554869889689,415.445130110311,615.445130110311,415.445130110311,615.445130110311,784.554869889689,0,0,0,4,horizontal,vertical,vertical,horizontal
3b,22,100353,4,5,149,19,F,blocked,constant,homogeneous,4,absent,0.855532169342041,1,vertical,vertical,1,2,red,2,NaN,984.554869889689,415.445130110311,NaN,NaN,984.554869889689,784.554869889689,984.554869889689,415.445130110311,615.445130110311,415.445130110311,615.445130110311,784.554869889689,0,4,0,0,horizontal,vertical,vertical,vertical
3b,22,100353,4,6,150,19,F,blocked,constant,homogeneous,4,present,1.14785003662109,1,vertical,vertical,1,5,red,1,3,984.554869889689,784.554869889689,615.445130110311,415.445130110311,984.554869889689,784.554869889689,984.554869889689,415.445130110311,615.445130110311,415.445130110311,615.445130110311,784.554869889689,4,0,0,0,vertical,vertical,horizontal,vertical
3b,22,100353,4,7,151,19,F,blocked,constant,homogeneous,4,present,0.7119300365448,1,vertical,vertical,1,3,red,2,4,984.554869889689,415.445130110311,615.445130110311,784.554869889689,984.554869889689,784.554869889689,984.554869889689,415.445130110311,615.445130110311,415.445130110311,615.445130110311,784.554869889689,0,4,0,0,horizontal,vertical,horizontal,horizontal
3b,22,100353,4,8,152,19,F,blocked,constant,homogeneous,4,absent,1.24454593658447,1,vertical,vertical,1,5,red,3,NaN,615.445130110311,415.445130110311,NaN,NaN,984.554869889689,784.554869889689,984.554869889689,415.445130110311,615.445130110311,415.445130110311,615.445130110311,784.554869889689,0,0,4,0,vertical,vertical,vertical,horizontal
3b,22,100353,4,9,153,19,F,blocked,constant,homogeneous,4,present,1.0648500919342,0,vertical,horizontal,1,5,red,1,2,984.554869889689,784.554869889689,984.554869889689,415.445130110311,984.554869889689,784.554869889689,984.554869889689,415.445130110311,615.445130110311,415.445130110311,615.445130110311,784.554869889689,4,0,0,0,vertical,vertical,vertical,horizontal
3b,22,100353,4,10,154,19,F,blocked,constant,homogeneous,4,absent,0.7013258934021,1,vertical,vertical,1,3,red,3,NaN,615.445130110311,415.445130110311,NaN,NaN,984.554869889689,784.554869889689,984.554869889689,415.445130110311,615.445130110311,415.445130110311,615.445130110311,784.554869889689,0,0,4,0,horizontal,vertical,vertical,vertical
3b,22,100353,4,11,155,19,F,blocked,constant,homogeneous,4,present,0.713490009307861,1,vertical,vertical,1,2,red,1,3,984.554869889689,784.554869889689,615.445130110311,415.445130110311,984.554869889689,784.554869889689,984.554869889689,415.445130110311,615.445130110311,415.445130110311,615.445130110311,784.554869889689,4,0,0,0,vertical,horizontal,vertical,vertical
3b,22,100353,4,12,156,19,F,blocked,constant,homogeneous,4,absent,0.693802833557129,1,horizontal,horizontal,1,5,red,1,NaN,984.554869889689,784.554869889689,NaN,NaN,984.554869889689,784.554869889689,984.554869889689,415.445130110311,615.445130110311,415.445130110311,615.445130110311,784.554869889689,4,0,0,0,horizontal,vertical,vertical,vertical
3b,22,100353,4,13,157,19,F,blocked,constant,homogeneous,4,present,0.770228147506714,1,horizontal,horizontal,1,2,red,4,2,615.445130110311,784.554869889689,984.554869889689,415.445130110311,984.554869889689,784.554869889689,984.554869889689,415.445130110311,615.445130110311,415.445130110311,615.445130110311,784.554869889689,0,0,0,4,horizontal,horizontal,vertical,horizontal
3b,22,100353,4,14,158,19,F,blocked,constant,homogeneous,4,present,1.03856611251831,1,vertical,vertical,1,8,red,1,4,984.554869889689,784.554869889689,615.445130110311,784.554869889689,984.554869889689,784.554869889689,984.554869889689,415.445130110311,615.445130110311,415.445130110311,615.445130110311,784.554869889689,4,0,0,0,vertical,horizontal,vertical,vertical
3b,22,100353,4,15,159,19,F,blocked,constant,homogeneous,4,absent,0.69072413444519,1,horizontal,horizontal,1,2,red,1,NaN,984.554869889689,784.554869889689,NaN,NaN,984.554869889689,784.554869889689,984.554869889689,415.445130110311,615.445130110311,415.445130110311,615.445130110311,784.554869889689,4,0,0,0,horizontal,vertical,horizontal,horizontal
3b,22,100353,4,16,160,19,F,blocked,constant,homogeneous,4,present,0.759028911590576,1,horizontal,horizontal,1,3,red,1,3,984.554869889689,784.554869889689,615.445130110311,415.445130110311,984.554869889689,784.554869889689,984.554869889689,415.445130110311,615.445130110311,415.445130110311,615.445130110311,784.554869889689,4,0,0,0,horizontal,vertical,vertical,horizontal
3b,22,100353,4,17,161,19,F,blocked,constant,homogeneous,4,absent,0.747462034225464,1,vertical,vertical,1,2,red,4,NaN,615.445130110311,784.554869889689,NaN,NaN,984.554869889689,784.554869889689,984.554869889689,415.445130110311,615.445130110311,415.445130110311,615.445130110311,784.554869889689,0,0,0,4,horizontal,horizontal,vertical,vertical
3b,22,100353,4,18,162,19,F,blocked,constant,homogeneous,4,present,0.775891065597534,1,horizontal,horizontal,1,2,red,2,4,984.554869889689,415.445130110311,615.445130110311,784.554869889689,984.554869889689,784.554869889689,984.554869889689,415.445130110311,615.445130110311,415.445130110311,615.445130110311,784.554869889689,0,4,0,0,vertical,horizontal,horizontal,vertical
3b,22,100353,4,19,163,19,F,blocked,constant,homogeneous,4,absent,1.13214802742004,1,vertical,vertical,1,8,red,1,NaN,984.554869889689,784.554869889689,NaN,NaN,984.554869889689,784.554869889689,984.554869889689,415.445130110311,615.445130110311,415.445130110311,615.445130110311,784.554869889689,4,0,0,0,vertical,horizontal,horizontal,vertical
3b,22,100353,4,20,164,19,F,blocked,constant,homogeneous,4,present,0.98449182510376,1,horizontal,horizontal,1,2,red,4,2,615.445130110311,784.554869889689,984.554869889689,415.445130110311,984.554869889689,784.554869889689,984.554869889689,415.445130110311,615.445130110311,415.445130110311,615.445130110311,784.554869889689,0,0,0,4,horizontal,horizontal,vertical,horizontal
3b,22,100353,4,21,165,19,F,blocked,constant,homogeneous,4,absent,0.612820148468018,1,horizontal,horizontal,1,3,red,1,NaN,984.554869889689,784.554869889689,NaN,NaN,984.554869889689,784.554869889689,984.554869889689,415.445130110311,615.445130110311,415.445130110311,615.445130110311,784.554869889689,4,0,0,0,horizontal,vertical,vertical,horizontal
3b,22,100353,4,22,166,19,F,blocked,constant,homogeneous,4,present,0.713387966156006,1,vertical,vertical,1,3,red,4,1,615.445130110311,784.554869889689,984.554869889689,784.554869889689,984.554869889689,784.554869889689,984.554869889689,415.445130110311,615.445130110311,415.445130110311,615.445130110311,784.554869889689,0,0,0,4,horizontal,vertical,horizontal,vertical
3b,22,100353,4,23,167,19,F,blocked,constant,homogeneous,4,absent,1.22156691551208,1,horizontal,horizontal,1,8,red,2,NaN,984.554869889689,415.445130110311,NaN,NaN,984.554869889689,784.554869889689,984.554869889689,415.445130110311,615.445130110311,415.445130110311,615.445130110311,784.554869889689,0,4,0,0,vertical,horizontal,horizontal,horizontal
3b,22,100353,4,24,168,19,F,blocked,constant,homogeneous,4,absent,0.841943979263306,1,vertical,vertical,1,2,red,1,NaN,984.554869889689,784.554869889689,NaN,NaN,984.554869889689,784.554869889689,984.554869889689,415.445130110311,615.445130110311,415.445130110311,615.445130110311,784.554869889689,4,0,0,0,vertical,vertical,horizontal,horizontal
3b,22,100353,4,25,169,19,F,blocked,constant,homogeneous,4,absent,1.14217090606689,1,vertical,vertical,1,5,red,3,NaN,615.445130110311,415.445130110311,NaN,NaN,984.554869889689,784.554869889689,984.554869889689,415.445130110311,615.445130110311,415.445130110311,615.445130110311,784.554869889689,0,0,4,0,vertical,vertical,vertical,vertical
3b,22,100353,4,26,170,19,F,blocked,constant,homogeneous,4,present,1.03455185890198,1,horizontal,horizontal,1,5,red,4,2,615.445130110311,784.554869889689,984.554869889689,415.445130110311,984.554869889689,784.554869889689,984.554869889689,415.445130110311,615.445130110311,415.445130110311,615.445130110311,784.554869889689,0,0,0,4,vertical,vertical,horizontal,horizontal
3b,22,100353,4,27,171,19,F,blocked,constant,homogeneous,4,present,0.935015916824341,1,horizontal,horizontal,1,8,red,3,4,615.445130110311,415.445130110311,615.445130110311,784.554869889689,984.554869889689,784.554869889689,984.554869889689,415.445130110311,615.445130110311,415.445130110311,615.445130110311,784.554869889689,0,0,4,0,vertical,horizontal,horizontal,vertical
3b,22,100353,4,28,172,19,F,blocked,constant,homogeneous,4,present,0.835577011108398,1,horizontal,horizontal,1,2,red,4,2,615.445130110311,784.554869889689,984.554869889689,415.445130110311,984.554869889689,784.554869889689,984.554869889689,415.445130110311,615.445130110311,415.445130110311,615.445130110311,784.554869889689,0,0,0,4,vertical,horizontal,vertical,horizontal
3b,22,100353,4,29,173,19,F,blocked,constant,homogeneous,4,present,0.655941963195801,1,horizontal,horizontal,1,5,red,4,3,615.445130110311,784.554869889689,615.445130110311,415.445130110311,984.554869889689,784.554869889689,984.554869889689,415.445130110311,615.445130110311,415.445130110311,615.445130110311,784.554869889689,0,0,0,4,vertical,horizontal,horizontal,horizontal
3b,22,100353,4,30,174,19,F,blocked,constant,homogeneous,4,absent,0.796278953552246,1,horizontal,horizontal,1,5,red,3,NaN,615.445130110311,415.445130110311,NaN,NaN,984.554869889689,784.554869889689,984.554869889689,415.445130110311,615.445130110311,415.445130110311,615.445130110311,784.554869889689,0,0,4,0,vertical,horizontal,horizontal,vertical
3b,22,100353,4,31,175,19,F,blocked,constant,homogeneous,4,present,1.48068404197693,1,vertical,vertical,1,5,red,2,1,984.554869889689,415.445130110311,984.554869889689,784.554869889689,984.554869889689,784.554869889689,984.554869889689,415.445130110311,615.445130110311,415.445130110311,615.445130110311,784.554869889689,0,4,0,0,vertical,vertical,horizontal,vertical
3b,22,100353,4,32,176,19,F,blocked,constant,homogeneous,4,present,0.708704948425293,1,vertical,vertical,1,2,red,2,4,984.554869889689,415.445130110311,615.445130110311,784.554869889689,984.554869889689,784.554869889689,984.554869889689,415.445130110311,615.445130110311,415.445130110311,615.445130110311,784.554869889689,0,4,0,0,horizontal,vertical,vertical,vertical
3b,22,100353,4,33,177,19,F,blocked,constant,homogeneous,4,absent,0.865272045135498,1,horizontal,horizontal,1,2,red,1,NaN,984.554869889689,784.554869889689,NaN,NaN,984.554869889689,784.554869889689,984.554869889689,415.445130110311,615.445130110311,415.445130110311,615.445130110311,784.554869889689,4,0,0,0,horizontal,vertical,horizontal,horizontal
3b,22,100353,4,34,178,19,F,blocked,constant,homogeneous,4,absent,0.597500801086426,1,horizontal,horizontal,1,2,red,1,NaN,984.554869889689,784.554869889689,NaN,NaN,984.554869889689,784.554869889689,984.554869889689,415.445130110311,615.445130110311,415.445130110311,615.445130110311,784.554869889689,4,0,0,0,horizontal,horizontal,horizontal,horizontal
3b,22,100353,4,35,179,19,F,blocked,constant,homogeneous,4,present,1.08989286422729,1,vertical,vertical,1,3,red,4,2,615.445130110311,784.554869889689,984.554869889689,415.445130110311,984.554869889689,784.554869889689,984.554869889689,415.445130110311,615.445130110311,415.445130110311,615.445130110311,784.554869889689,0,0,0,4,horizontal,horizontal,horizontal,vertical
3b,22,100353,4,36,180,19,F,blocked,constant,homogeneous,4,present,0.766127109527588,1,horizontal,horizontal,1,8,red,1,4,984.554869889689,784.554869889689,615.445130110311,784.554869889689,984.554869889689,784.554869889689,984.554869889689,415.445130110311,615.445130110311,415.445130110311,615.445130110311,784.554869889689,4,0,0,0,horizontal,vertical,vertical,vertical
3b,22,100353,4,37,181,19,F,blocked,constant,homogeneous,4,present,1.73843502998352,1,vertical,vertical,1,8,red,2,3,984.554869889689,415.445130110311,615.445130110311,415.445130110311,984.554869889689,784.554869889689,984.554869889689,415.445130110311,615.445130110311,415.445130110311,615.445130110311,784.554869889689,0,4,0,0,vertical,vertical,horizontal,horizontal
3b,22,100353,4,38,182,19,F,blocked,constant,homogeneous,4,present,0.782889842987061,1,horizontal,horizontal,1,2,red,1,3,984.554869889689,784.554869889689,615.445130110311,415.445130110311,984.554869889689,784.554869889689,984.554869889689,415.445130110311,615.445130110311,415.445130110311,615.445130110311,784.554869889689,4,0,0,0,horizontal,horizontal,horizontal,horizontal
3b,22,100353,4,39,183,19,F,blocked,constant,homogeneous,4,present,0.667029857635498,1,horizontal,horizontal,1,2,red,3,2,615.445130110311,415.445130110311,984.554869889689,415.445130110311,984.554869889689,784.554869889689,984.554869889689,415.445130110311,615.445130110311,415.445130110311,615.445130110311,784.554869889689,0,0,4,0,horizontal,horizontal,horizontal,horizontal
3b,22,100353,4,40,184,19,F,blocked,constant,homogeneous,4,absent,0.623559951782227,1,horizontal,horizontal,1,3,red,3,NaN,615.445130110311,415.445130110311,NaN,NaN,984.554869889689,784.554869889689,984.554869889689,415.445130110311,615.445130110311,415.445130110311,615.445130110311,784.554869889689,0,0,4,0,vertical,horizontal,horizontal,vertical
3b,22,100353,4,41,185,19,F,blocked,constant,homogeneous,4,present,0.659751892089844,1,vertical,vertical,1,2,red,3,1,615.445130110311,415.445130110311,984.554869889689,784.554869889689,984.554869889689,784.554869889689,984.554869889689,415.445130110311,615.445130110311,415.445130110311,615.445130110311,784.554869889689,0,0,4,0,horizontal,horizontal,vertical,vertical
3b,22,100353,4,42,186,19,F,blocked,constant,homogeneous,4,present,0.640305042266846,1,horizontal,horizontal,1,3,red,3,4,615.445130110311,415.445130110311,615.445130110311,784.554869889689,984.554869889689,784.554869889689,984.554869889689,415.445130110311,615.445130110311,415.445130110311,615.445130110311,784.554869889689,0,0,4,0,horizontal,horizontal,horizontal,horizontal
3b,22,100353,4,43,187,19,F,blocked,constant,homogeneous,4,present,0.908459901809692,1,horizontal,horizontal,1,3,red,1,4,984.554869889689,784.554869889689,615.445130110311,784.554869889689,984.554869889689,784.554869889689,984.554869889689,415.445130110311,615.445130110311,415.445130110311,615.445130110311,784.554869889689,4,0,0,0,horizontal,horizontal,vertical,vertical
3b,22,100353,4,44,188,19,F,blocked,constant,homogeneous,4,present,0.760890007019043,1,vertical,vertical,1,2,red,2,4,984.554869889689,415.445130110311,615.445130110311,784.554869889689,984.554869889689,784.554869889689,984.554869889689,415.445130110311,615.445130110311,415.445130110311,615.445130110311,784.554869889689,0,4,0,0,vertical,vertical,vertical,vertical
3b,22,100353,4,45,189,19,F,blocked,constant,homogeneous,4,absent,0.845078945159912,1,vertical,vertical,1,3,red,1,NaN,984.554869889689,784.554869889689,NaN,NaN,984.554869889689,784.554869889689,984.554869889689,415.445130110311,615.445130110311,415.445130110311,615.445130110311,784.554869889689,4,0,0,0,vertical,vertical,horizontal,horizontal
3b,22,100353,4,46,190,19,F,blocked,constant,homogeneous,4,present,1.4013569355011,1,vertical,vertical,1,2,red,3,1,615.445130110311,415.445130110311,984.554869889689,784.554869889689,984.554869889689,784.554869889689,984.554869889689,415.445130110311,615.445130110311,415.445130110311,615.445130110311,784.554869889689,0,0,4,0,vertical,vertical,vertical,vertical
3b,22,100353,4,47,191,19,F,blocked,constant,homogeneous,4,present,0.741852998733521,1,horizontal,horizontal,1,3,red,2,4,984.554869889689,415.445130110311,615.445130110311,784.554869889689,984.554869889689,784.554869889689,984.554869889689,415.445130110311,615.445130110311,415.445130110311,615.445130110311,784.554869889689,0,4,0,0,horizontal,horizontal,horizontal,vertical
3b,22,100353,4,48,192,19,F,blocked,constant,homogeneous,4,present,0.80185604095459,1,vertical,vertical,1,2,red,4,3,615.445130110311,784.554869889689,615.445130110311,415.445130110311,984.554869889689,784.554869889689,984.554869889689,415.445130110311,615.445130110311,415.445130110311,615.445130110311,784.554869889689,0,0,0,4,vertical,vertical,vertical,vertical
3b,22,100353,5,1,193,19,F,blocked,constant,homogeneous,4,present,1.07395505905151,1,horizontal,horizontal,1,5,red,4,1,615.445130110311,784.554869889689,984.554869889689,784.554869889689,984.554869889689,784.554869889689,984.554869889689,415.445130110311,615.445130110311,415.445130110311,615.445130110311,784.554869889689,0,0,0,4,vertical,vertical,horizontal,horizontal
3b,22,100353,5,2,194,19,F,blocked,constant,homogeneous,4,present,0.82998514175415,1,vertical,vertical,1,3,red,3,1,615.445130110311,415.445130110311,984.554869889689,784.554869889689,984.554869889689,784.554869889689,984.554869889689,415.445130110311,615.445130110311,415.445130110311,615.445130110311,784.554869889689,0,0,4,0,vertical,vertical,vertical,vertical
3b,22,100353,5,3,195,19,F,blocked,constant,homogeneous,4,absent,0.690202951431274,1,vertical,vertical,1,3,red,1,NaN,984.554869889689,784.554869889689,NaN,NaN,984.554869889689,784.554869889689,984.554869889689,415.445130110311,615.445130110311,415.445130110311,615.445130110311,784.554869889689,4,0,0,0,vertical,vertical,horizontal,vertical
3b,22,100353,5,4,196,19,F,blocked,constant,homogeneous,4,absent,0.5746750831604,0,horizontal,vertical,1,5,red,1,NaN,984.554869889689,784.554869889689,NaN,NaN,984.554869889689,784.554869889689,984.554869889689,415.445130110311,615.445130110311,415.445130110311,615.445130110311,784.554869889689,4,0,0,0,horizontal,horizontal,horizontal,vertical
3b,22,100353,5,5,197,19,F,blocked,constant,homogeneous,4,absent,0.539268970489502,1,horizontal,horizontal,1,2,red,1,NaN,984.554869889689,784.554869889689,NaN,NaN,984.554869889689,784.554869889689,984.554869889689,415.445130110311,615.445130110311,415.445130110311,615.445130110311,784.554869889689,4,0,0,0,horizontal,horizontal,vertical,vertical
3b,22,100353,5,6,198,19,F,blocked,constant,homogeneous,4,absent,1.01523804664612,1,vertical,vertical,1,2,red,4,NaN,615.445130110311,784.554869889689,NaN,NaN,984.554869889689,784.554869889689,984.554869889689,415.445130110311,615.445130110311,415.445130110311,615.445130110311,784.554869889689,0,0,0,4,horizontal,vertical,horizontal,vertical
3b,22,100353,5,7,199,19,F,blocked,constant,homogeneous,4,absent,0.651940822601318,1,horizontal,horizontal,1,3,red,3,NaN,615.445130110311,415.445130110311,NaN,NaN,984.554869889689,784.554869889689,984.554869889689,415.445130110311,615.445130110311,415.445130110311,615.445130110311,784.554869889689,0,0,4,0,horizontal,horizontal,horizontal,vertical
3b,22,100353,5,8,200,19,F,blocked,constant,homogeneous,4,present,0.616071939468384,1,horizontal,horizontal,1,3,red,2,3,984.554869889689,415.445130110311,615.445130110311,415.445130110311,984.554869889689,784.554869889689,984.554869889689,415.445130110311,615.445130110311,415.445130110311,615.445130110311,784.554869889689,0,4,0,0,vertical,horizontal,vertical,vertical
3b,22,100353,5,9,201,19,F,blocked,constant,homogeneous,4,present,0.772246122360229,1,horizontal,horizontal,1,3,red,3,2,615.445130110311,415.445130110311,984.554869889689,415.445130110311,984.554869889689,784.554869889689,984.554869889689,415.445130110311,615.445130110311,415.445130110311,615.445130110311,784.554869889689,0,0,4,0,horizontal,horizontal,horizontal,horizontal
3b,22,100353,5,10,202,19,F,blocked,constant,homogeneous,4,absent,0.856930017471313,1,vertical,vertical,1,5,red,4,NaN,615.445130110311,784.554869889689,NaN,NaN,984.554869889689,784.554869889689,984.554869889689,415.445130110311,615.445130110311,415.445130110311,615.445130110311,784.554869889689,0,0,0,4,horizontal,vertical,vertical,vertical
3b,22,100353,5,11,203,19,F,blocked,constant,homogeneous,4,present,0.981058120727539,1,vertical,vertical,1,8,red,3,4,615.445130110311,415.445130110311,615.445130110311,784.554869889689,984.554869889689,784.554869889689,984.554869889689,415.445130110311,615.445130110311,415.445130110311,615.445130110311,784.554869889689,0,0,4,0,vertical,horizontal,vertical,vertical
3b,22,100353,5,12,204,19,F,blocked,constant,homogeneous,4,absent,1.03323006629944,1,horizontal,horizontal,1,3,red,1,NaN,984.554869889689,784.554869889689,NaN,NaN,984.554869889689,784.554869889689,984.554869889689,415.445130110311,615.445130110311,415.445130110311,615.445130110311,784.554869889689,4,0,0,0,horizontal,horizontal,vertical,horizontal
3b,22,100353,5,13,205,19,F,blocked,constant,homogeneous,4,present,1.14987993240356,1,vertical,vertical,1,2,red,4,1,615.445130110311,784.554869889689,984.554869889689,784.554869889689,984.554869889689,784.554869889689,984.554869889689,415.445130110311,615.445130110311,415.445130110311,615.445130110311,784.554869889689,0,0,0,4,horizontal,vertical,vertical,vertical
3b,22,100353,5,14,206,19,F,blocked,constant,homogeneous,4,present,0.722078084945679,1,horizontal,horizontal,1,2,red,4,2,615.445130110311,784.554869889689,984.554869889689,415.445130110311,984.554869889689,784.554869889689,984.554869889689,415.445130110311,615.445130110311,415.445130110311,615.445130110311,784.554869889689,0,0,0,4,vertical,vertical,horizontal,horizontal
3b,22,100353,5,15,207,19,F,blocked,constant,homogeneous,4,present,1.046462059021,1,horizontal,horizontal,1,3,red,2,1,984.554869889689,415.445130110311,984.554869889689,784.554869889689,984.554869889689,784.554869889689,984.554869889689,415.445130110311,615.445130110311,415.445130110311,615.445130110311,784.554869889689,0,4,0,0,vertical,horizontal,horizontal,horizontal
3b,22,100353,5,16,208,19,F,blocked,constant,homogeneous,4,absent,0.882692098617554,1,horizontal,horizontal,1,2,red,4,NaN,615.445130110311,784.554869889689,NaN,NaN,984.554869889689,784.554869889689,984.554869889689,415.445130110311,615.445130110311,415.445130110311,615.445130110311,784.554869889689,0,0,0,4,vertical,vertical,horizontal,horizontal
3b,22,100353,5,17,209,19,F,blocked,constant,homogeneous,4,present,0.767090082168579,1,vertical,vertical,1,2,red,1,3,984.554869889689,784.554869889689,615.445130110311,415.445130110311,984.554869889689,784.554869889689,984.554869889689,415.445130110311,615.445130110311,415.445130110311,615.445130110311,784.554869889689,4,0,0,0,vertical,vertical,horizontal,vertical
3b,22,100353,5,18,210,19,F,blocked,constant,homogeneous,4,present,0.747369050979614,1,vertical,vertical,1,5,red,1,4,984.554869889689,784.554869889689,615.445130110311,784.554869889689,984.554869889689,784.554869889689,984.554869889689,415.445130110311,615.445130110311,415.445130110311,615.445130110311,784.554869889689,4,0,0,0,vertical,horizontal,horizontal,horizontal
3b,22,100353,5,19,211,19,F,blocked,constant,homogeneous,4,present,0.791831970214844,1,horizontal,horizontal,1,8,red,1,2,984.554869889689,784.554869889689,984.554869889689,415.445130110311,984.554869889689,784.554869889689,984.554869889689,415.445130110311,615.445130110311,415.445130110311,615.445130110311,784.554869889689,4,0,0,0,horizontal,horizontal,vertical,vertical
3b,22,100353,5,20,212,19,F,blocked,constant,homogeneous,4,present,0.748077869415283,1,vertical,vertical,1,2,red,1,4,984.554869889689,784.554869889689,615.445130110311,784.554869889689,984.554869889689,784.554869889689,984.554869889689,415.445130110311,615.445130110311,415.445130110311,615.445130110311,784.554869889689,4,0,0,0,vertical,horizontal,vertical,horizontal
3b,22,100353,5,21,213,19,F,blocked,constant,homogeneous,4,present,1.40040111541748,1,vertical,vertical,1,2,red,2,1,984.554869889689,415.445130110311,984.554869889689,784.554869889689,984.554869889689,784.554869889689,984.554869889689,415.445130110311,615.445130110311,415.445130110311,615.445130110311,784.554869889689,0,4,0,0,vertical,vertical,horizontal,vertical
3b,22,100353,5,22,214,19,F,blocked,constant,homogeneous,4,present,0.836672067642212,1,horizontal,horizontal,1,2,red,2,3,984.554869889689,415.445130110311,615.445130110311,415.445130110311,984.554869889689,784.554869889689,984.554869889689,415.445130110311,615.445130110311,415.445130110311,615.445130110311,784.554869889689,0,4,0,0,horizontal,horizontal,horizontal,vertical
3b,22,100353,5,23,215,19,F,blocked,constant,homogeneous,4,absent,1.13717412948608,1,vertical,vertical,1,5,red,4,NaN,615.445130110311,784.554869889689,NaN,NaN,984.554869889689,784.554869889689,984.554869889689,415.445130110311,615.445130110311,415.445130110311,615.445130110311,784.554869889689,0,0,0,4,vertical,vertical,vertical,vertical
3b,22,100353,5,24,216,19,F,blocked,constant,homogeneous,4,absent,0.901425838470459,1,vertical,vertical,1,8,red,3,NaN,615.445130110311,415.445130110311,NaN,NaN,984.554869889689,784.554869889689,984.554869889689,415.445130110311,615.445130110311,415.445130110311,615.445130110311,784.554869889689,0,0,4,0,vertical,horizontal,vertical,horizontal
3b,22,100353,5,25,217,19,F,blocked,constant,homogeneous,4,absent,0.969916105270386,1,horizontal,horizontal,1,8,red,1,NaN,984.554869889689,784.554869889689,NaN,NaN,984.554869889689,784.554869889689,984.554869889689,415.445130110311,615.445130110311,415.445130110311,615.445130110311,784.554869889689,4,0,0,0,horizontal,vertical,vertical,vertical
3b,22,100353,5,26,218,19,F,blocked,constant,homogeneous,4,present,0.614336967468262,1,vertical,vertical,1,5,red,1,4,984.554869889689,784.554869889689,615.445130110311,784.554869889689,984.554869889689,784.554869889689,984.554869889689,415.445130110311,615.445130110311,415.445130110311,615.445130110311,784.554869889689,4,0,0,0,vertical,horizontal,horizontal,horizontal
3b,22,100353,5,27,219,19,F,blocked,constant,homogeneous,4,absent,0.874459981918335,1,vertical,vertical,1,3,red,2,NaN,984.554869889689,415.445130110311,NaN,NaN,984.554869889689,784.554869889689,984.554869889689,415.445130110311,615.445130110311,415.445130110311,615.445130110311,784.554869889689,0,4,0,0,vertical,vertical,vertical,horizontal
3b,22,100353,5,28,220,19,F,blocked,constant,homogeneous,4,absent,0.902896881103516,1,horizontal,horizontal,1,2,red,1,NaN,984.554869889689,784.554869889689,NaN,NaN,984.554869889689,784.554869889689,984.554869889689,415.445130110311,615.445130110311,415.445130110311,615.445130110311,784.554869889689,4,0,0,0,horizontal,horizontal,horizontal,horizontal
3b,22,100353,5,29,221,19,F,blocked,constant,homogeneous,4,present,0.947310924530029,1,vertical,vertical,1,2,red,3,4,615.445130110311,415.445130110311,615.445130110311,784.554869889689,984.554869889689,784.554869889689,984.554869889689,415.445130110311,615.445130110311,415.445130110311,615.445130110311,784.554869889689,0,0,4,0,horizontal,horizontal,vertical,horizontal
3b,22,100353,5,30,222,19,F,blocked,constant,homogeneous,4,present,0.64745020866394,1,vertical,vertical,1,2,red,3,4,615.445130110311,415.445130110311,615.445130110311,784.554869889689,984.554869889689,784.554869889689,984.554869889689,415.445130110311,615.445130110311,415.445130110311,615.445130110311,784.554869889689,0,0,4,0,vertical,vertical,vertical,vertical
3b,22,100353,5,31,223,19,F,blocked,constant,homogeneous,4,present,0.803982019424438,1,vertical,vertical,1,5,red,1,4,984.554869889689,784.554869889689,615.445130110311,784.554869889689,984.554869889689,784.554869889689,984.554869889689,415.445130110311,615.445130110311,415.445130110311,615.445130110311,784.554869889689,4,0,0,0,vertical,vertical,horizontal,horizontal
3b,22,100353,5,32,224,19,F,blocked,constant,homogeneous,4,absent,0.848212003707886,1,horizontal,horizontal,1,5,red,1,NaN,984.554869889689,784.554869889689,NaN,NaN,984.554869889689,784.554869889689,984.554869889689,415.445130110311,615.445130110311,415.445130110311,615.445130110311,784.554869889689,4,0,0,0,horizontal,vertical,vertical,horizontal
3b,22,100353,5,33,225,19,F,blocked,constant,homogeneous,4,present,1.10853290557861,1,horizontal,horizontal,1,5,red,2,4,984.554869889689,415.445130110311,615.445130110311,784.554869889689,984.554869889689,784.554869889689,984.554869889689,415.445130110311,615.445130110311,415.445130110311,615.445130110311,784.554869889689,0,4,0,0,vertical,horizontal,vertical,vertical
3b,22,100353,5,34,226,19,F,blocked,constant,homogeneous,4,present,0.680974960327148,1,vertical,vertical,1,3,red,4,2,615.445130110311,784.554869889689,984.554869889689,415.445130110311,984.554869889689,784.554869889689,984.554869889689,415.445130110311,615.445130110311,415.445130110311,615.445130110311,784.554869889689,0,0,0,4,vertical,vertical,vertical,vertical
3b,22,100353,5,35,227,19,F,blocked,constant,homogeneous,4,present,0.877399921417236,1,horizontal,horizontal,1,5,red,2,3,984.554869889689,415.445130110311,615.445130110311,415.445130110311,984.554869889689,784.554869889689,984.554869889689,415.445130110311,615.445130110311,415.445130110311,615.445130110311,784.554869889689,0,4,0,0,vertical,horizontal,vertical,horizontal
3b,22,100353,5,36,228,19,F,blocked,constant,homogeneous,4,present,0.689579010009766,1,vertical,vertical,1,5,red,4,3,615.445130110311,784.554869889689,615.445130110311,415.445130110311,984.554869889689,784.554869889689,984.554869889689,415.445130110311,615.445130110311,415.445130110311,615.445130110311,784.554869889689,0,0,0,4,horizontal,vertical,vertical,vertical
3b,22,100353,5,37,229,19,F,blocked,constant,homogeneous,4,present,0.630023956298828,1,horizontal,horizontal,1,2,red,1,4,984.554869889689,784.554869889689,615.445130110311,784.554869889689,984.554869889689,784.554869889689,984.554869889689,415.445130110311,615.445130110311,415.445130110311,615.445130110311,784.554869889689,4,0,0,0,horizontal,vertical,horizontal,vertical
3b,22,100353,5,38,230,19,F,blocked,constant,homogeneous,4,present,0.754326820373535,1,vertical,vertical,1,8,red,2,1,984.554869889689,415.445130110311,984.554869889689,784.554869889689,984.554869889689,784.554869889689,984.554869889689,415.445130110311,615.445130110311,415.445130110311,615.445130110311,784.554869889689,0,4,0,0,vertical,vertical,vertical,horizontal
3b,22,100353,5,39,231,19,F,blocked,constant,homogeneous,4,present,0.966876983642578,1,horizontal,horizontal,1,3,red,1,3,984.554869889689,784.554869889689,615.445130110311,415.445130110311,984.554869889689,784.554869889689,984.554869889689,415.445130110311,615.445130110311,415.445130110311,615.445130110311,784.554869889689,4,0,0,0,horizontal,horizontal,horizontal,horizontal
3b,22,100353,5,40,232,19,F,blocked,constant,homogeneous,4,present,1.30699491500854,1,horizontal,horizontal,1,2,red,4,2,615.445130110311,784.554869889689,984.554869889689,415.445130110311,984.554869889689,784.554869889689,984.554869889689,415.445130110311,615.445130110311,415.445130110311,615.445130110311,784.554869889689,0,0,0,4,horizontal,horizontal,vertical,horizontal
3b,22,100353,5,41,233,19,F,blocked,constant,homogeneous,4,present,0.975136995315552,1,vertical,vertical,1,3,red,4,3,615.445130110311,784.554869889689,615.445130110311,415.445130110311,984.554869889689,784.554869889689,984.554869889689,415.445130110311,615.445130110311,415.445130110311,615.445130110311,784.554869889689,0,0,0,4,horizontal,vertical,vertical,vertical
3b,22,100353,5,42,234,19,F,blocked,constant,homogeneous,4,present,0.659544944763184,0,vertical,horizontal,1,3,red,3,1,615.445130110311,415.445130110311,984.554869889689,784.554869889689,984.554869889689,784.554869889689,984.554869889689,415.445130110311,615.445130110311,415.445130110311,615.445130110311,784.554869889689,0,0,4,0,horizontal,vertical,vertical,horizontal
3b,22,100353,5,43,235,19,F,blocked,constant,homogeneous,4,absent,0.656008005142212,1,vertical,vertical,1,2,red,3,NaN,615.445130110311,415.445130110311,NaN,NaN,984.554869889689,784.554869889689,984.554869889689,415.445130110311,615.445130110311,415.445130110311,615.445130110311,784.554869889689,0,0,4,0,horizontal,vertical,vertical,horizontal
3b,22,100353,5,44,236,19,F,blocked,constant,homogeneous,4,absent,0.620412111282349,1,vertical,vertical,1,2,red,3,NaN,615.445130110311,415.445130110311,NaN,NaN,984.554869889689,784.554869889689,984.554869889689,415.445130110311,615.445130110311,415.445130110311,615.445130110311,784.554869889689,0,0,4,0,horizontal,vertical,vertical,horizontal
3b,22,100353,5,45,237,19,F,blocked,constant,homogeneous,4,present,0.76078200340271,1,horizontal,horizontal,1,5,red,1,3,984.554869889689,784.554869889689,615.445130110311,415.445130110311,984.554869889689,784.554869889689,984.554869889689,415.445130110311,615.445130110311,415.445130110311,615.445130110311,784.554869889689,4,0,0,0,horizontal,vertical,horizontal,horizontal
3b,22,100353,5,46,238,19,F,blocked,constant,homogeneous,4,present,0.940945148468018,1,horizontal,horizontal,1,8,red,2,4,984.554869889689,415.445130110311,615.445130110311,784.554869889689,984.554869889689,784.554869889689,984.554869889689,415.445130110311,615.445130110311,415.445130110311,615.445130110311,784.554869889689,0,4,0,0,vertical,horizontal,vertical,vertical
3b,22,100353,5,47,239,19,F,blocked,constant,homogeneous,4,present,1.06550002098083,1,horizontal,horizontal,1,2,red,3,4,615.445130110311,415.445130110311,615.445130110311,784.554869889689,984.554869889689,784.554869889689,984.554869889689,415.445130110311,615.445130110311,415.445130110311,615.445130110311,784.554869889689,0,0,4,0,horizontal,horizontal,horizontal,horizontal
3b,22,100353,5,48,240,19,F,blocked,constant,homogeneous,4,present,0.517642021179199,1,horizontal,horizontal,1,2,red,3,4,615.445130110311,415.445130110311,615.445130110311,784.554869889689,984.554869889689,784.554869889689,984.554869889689,415.445130110311,615.445130110311,415.445130110311,615.445130110311,784.554869889689,0,0,4,0,vertical,vertical,horizontal,horizontal
3b,22,100353,6,1,241,19,F,blocked,constant,homogeneous,4,absent,0.869282960891724,1,vertical,vertical,1,5,red,3,NaN,615.445130110311,415.445130110311,NaN,NaN,984.554869889689,784.554869889689,984.554869889689,415.445130110311,615.445130110311,415.445130110311,615.445130110311,784.554869889689,0,0,4,0,horizontal,horizontal,vertical,vertical
3b,22,100353,6,2,242,19,F,blocked,constant,homogeneous,4,present,0.769724130630493,1,vertical,vertical,1,8,red,1,3,984.554869889689,784.554869889689,615.445130110311,415.445130110311,984.554869889689,784.554869889689,984.554869889689,415.445130110311,615.445130110311,415.445130110311,615.445130110311,784.554869889689,4,0,0,0,vertical,horizontal,horizontal,horizontal
3b,22,100353,6,3,243,19,F,blocked,constant,homogeneous,4,absent,0.613998889923096,1,vertical,vertical,1,8,red,1,NaN,984.554869889689,784.554869889689,NaN,NaN,984.554869889689,784.554869889689,984.554869889689,415.445130110311,615.445130110311,415.445130110311,615.445130110311,784.554869889689,4,0,0,0,vertical,horizontal,vertical,vertical
3b,22,100353,6,4,244,19,F,blocked,constant,homogeneous,4,present,0.922079086303711,1,horizontal,horizontal,1,5,red,3,4,615.445130110311,415.445130110311,615.445130110311,784.554869889689,984.554869889689,784.554869889689,984.554869889689,415.445130110311,615.445130110311,415.445130110311,615.445130110311,784.554869889689,0,0,4,0,horizontal,horizontal,horizontal,horizontal
3b,22,100353,6,5,245,19,F,blocked,constant,homogeneous,4,present,0.926797151565552,1,horizontal,horizontal,1,5,red,4,2,615.445130110311,784.554869889689,984.554869889689,415.445130110311,984.554869889689,784.554869889689,984.554869889689,415.445130110311,615.445130110311,415.445130110311,615.445130110311,784.554869889689,0,0,0,4,horizontal,vertical,horizontal,horizontal
3b,22,100353,6,6,246,19,F,blocked,constant,homogeneous,4,present,0.618933916091919,1,vertical,vertical,1,2,red,2,3,984.554869889689,415.445130110311,615.445130110311,415.445130110311,984.554869889689,784.554869889689,984.554869889689,415.445130110311,615.445130110311,415.445130110311,615.445130110311,784.554869889689,0,4,0,0,vertical,vertical,vertical,vertical
3b,22,100353,6,7,247,19,F,blocked,constant,homogeneous,4,present,1.231281042099,1,horizontal,horizontal,1,5,red,3,2,615.445130110311,415.445130110311,984.554869889689,415.445130110311,984.554869889689,784.554869889689,984.554869889689,415.445130110311,615.445130110311,415.445130110311,615.445130110311,784.554869889689,0,0,4,0,vertical,horizontal,horizontal,vertical
3b,22,100353,6,8,248,19,F,blocked,constant,homogeneous,4,present,0.899612903594971,1,horizontal,horizontal,1,5,red,1,4,984.554869889689,784.554869889689,615.445130110311,784.554869889689,984.554869889689,784.554869889689,984.554869889689,415.445130110311,615.445130110311,415.445130110311,615.445130110311,784.554869889689,4,0,0,0,horizontal,horizontal,vertical,horizontal
3b,22,100353,6,9,249,19,F,blocked,constant,homogeneous,4,present,0.91992712020874,1,vertical,vertical,1,2,red,1,3,984.554869889689,784.554869889689,615.445130110311,415.445130110311,984.554869889689,784.554869889689,984.554869889689,415.445130110311,615.445130110311,415.445130110311,615.445130110311,784.554869889689,4,0,0,0,vertical,horizontal,horizontal,horizontal
3b,22,100353,6,10,250,19,F,blocked,constant,homogeneous,4,absent,0.684619903564453,1,horizontal,horizontal,1,3,red,1,NaN,984.554869889689,784.554869889689,NaN,NaN,984.554869889689,784.554869889689,984.554869889689,415.445130110311,615.445130110311,415.445130110311,615.445130110311,784.554869889689,4,0,0,0,horizontal,horizontal,horizontal,vertical
3b,22,100353,6,11,251,19,F,blocked,constant,homogeneous,4,present,1.02490305900574,1,vertical,vertical,1,8,red,4,1,615.445130110311,784.554869889689,984.554869889689,784.554869889689,984.554869889689,784.554869889689,984.554869889689,415.445130110311,615.445130110311,415.445130110311,615.445130110311,784.554869889689,0,0,0,4,horizontal,horizontal,vertical,vertical
3b,22,100353,6,12,252,19,F,blocked,constant,homogeneous,4,absent,1.75714778900146,1,vertical,vertical,1,3,red,4,NaN,615.445130110311,784.554869889689,NaN,NaN,984.554869889689,784.554869889689,984.554869889689,415.445130110311,615.445130110311,415.445130110311,615.445130110311,784.554869889689,0,0,0,4,horizontal,vertical,horizontal,vertical
3b,22,100353,6,13,253,19,F,blocked,constant,homogeneous,4,present,1.80142092704773,1,horizontal,horizontal,1,2,red,3,2,615.445130110311,415.445130110311,984.554869889689,415.445130110311,984.554869889689,784.554869889689,984.554869889689,415.445130110311,615.445130110311,415.445130110311,615.445130110311,784.554869889689,0,0,4,0,horizontal,vertical,horizontal,vertical
3b,22,100353,6,14,254,19,F,blocked,constant,homogeneous,4,present,1.19793701171875,1,horizontal,horizontal,1,3,red,3,4,615.445130110311,415.445130110311,615.445130110311,784.554869889689,984.554869889689,784.554869889689,984.554869889689,415.445130110311,615.445130110311,415.445130110311,615.445130110311,784.554869889689,0,0,4,0,vertical,vertical,horizontal,vertical
3b,22,100353,6,15,255,19,F,blocked,constant,homogeneous,4,absent,0.722079038619995,1,horizontal,horizontal,1,2,red,3,NaN,615.445130110311,415.445130110311,NaN,NaN,984.554869889689,784.554869889689,984.554869889689,415.445130110311,615.445130110311,415.445130110311,615.445130110311,784.554869889689,0,0,4,0,horizontal,horizontal,horizontal,vertical
3b,22,100353,6,16,256,19,F,blocked,constant,homogeneous,4,present,0.758389949798584,1,vertical,vertical,1,3,red,3,2,615.445130110311,415.445130110311,984.554869889689,415.445130110311,984.554869889689,784.554869889689,984.554869889689,415.445130110311,615.445130110311,415.445130110311,615.445130110311,784.554869889689,0,0,4,0,horizontal,horizontal,vertical,vertical
3b,22,100353,6,17,257,19,F,blocked,constant,homogeneous,4,absent,0.602802038192749,1,horizontal,horizontal,1,5,red,3,NaN,615.445130110311,415.445130110311,NaN,NaN,984.554869889689,784.554869889689,984.554869889689,415.445130110311,615.445130110311,415.445130110311,615.445130110311,784.554869889689,0,0,4,0,vertical,horizontal,horizontal,vertical
3b,22,100353,6,18,258,19,F,blocked,constant,homogeneous,4,absent,1.46331715583801,1,horizontal,horizontal,1,3,red,4,NaN,615.445130110311,784.554869889689,NaN,NaN,984.554869889689,784.554869889689,984.554869889689,415.445130110311,615.445130110311,415.445130110311,615.445130110311,784.554869889689,0,0,0,4,horizontal,horizontal,horizontal,horizontal
3b,22,100353,6,19,259,19,F,blocked,constant,homogeneous,4,present,0.739390134811401,1,vertical,vertical,1,3,red,4,3,615.445130110311,784.554869889689,615.445130110311,415.445130110311,984.554869889689,784.554869889689,984.554869889689,415.445130110311,615.445130110311,415.445130110311,615.445130110311,784.554869889689,0,0,0,4,vertical,horizontal,horizontal,vertical
3b,22,100353,6,20,260,19,F,blocked,constant,homogeneous,4,present,1.21556711196899,1,horizontal,horizontal,1,3,red,2,3,984.554869889689,415.445130110311,615.445130110311,415.445130110311,984.554869889689,784.554869889689,984.554869889689,415.445130110311,615.445130110311,415.445130110311,615.445130110311,784.554869889689,0,4,0,0,vertical,horizontal,vertical,vertical
3b,22,100353,6,21,261,19,F,blocked,constant,homogeneous,4,absent,1.1481351852417,1,horizontal,horizontal,1,2,red,1,NaN,984.554869889689,784.554869889689,NaN,NaN,984.554869889689,784.554869889689,984.554869889689,415.445130110311,615.445130110311,415.445130110311,615.445130110311,784.554869889689,4,0,0,0,horizontal,vertical,vertical,vertical
3b,22,100353,6,22,262,19,F,blocked,constant,homogeneous,4,present,0.904205083847046,1,horizontal,horizontal,1,2,red,3,2,615.445130110311,415.445130110311,984.554869889689,415.445130110311,984.554869889689,784.554869889689,984.554869889689,415.445130110311,615.445130110311,415.445130110311,615.445130110311,784.554869889689,0,0,4,0,horizontal,vertical,horizontal,horizontal
3b,22,100353,6,23,263,19,F,blocked,constant,homogeneous,4,absent,0.71659517288208,1,horizontal,horizontal,1,8,red,4,NaN,615.445130110311,784.554869889689,NaN,NaN,984.554869889689,784.554869889689,984.554869889689,415.445130110311,615.445130110311,415.445130110311,615.445130110311,784.554869889689,0,0,0,4,horizontal,horizontal,vertical,horizontal
3b,22,100353,6,24,264,19,F,blocked,constant,homogeneous,4,present,0.560974836349487,1,horizontal,horizontal,1,3,red,4,2,615.445130110311,784.554869889689,984.554869889689,415.445130110311,984.554869889689,784.554869889689,984.554869889689,415.445130110311,615.445130110311,415.445130110311,615.445130110311,784.554869889689,0,0,0,4,vertical,horizontal,horizontal,horizontal
3b,22,100353,6,25,265,19,F,blocked,constant,homogeneous,4,absent,1.04532408714294,1,vertical,vertical,1,3,red,2,NaN,984.554869889689,415.445130110311,NaN,NaN,984.554869889689,784.554869889689,984.554869889689,415.445130110311,615.445130110311,415.445130110311,615.445130110311,784.554869889689,0,4,0,0,vertical,vertical,horizontal,horizontal
3b,22,100353,6,26,266,19,F,blocked,constant,homogeneous,4,present,1.62575197219849,1,horizontal,horizontal,1,8,red,1,4,984.554869889689,784.554869889689,615.445130110311,784.554869889689,984.554869889689,784.554869889689,984.554869889689,415.445130110311,615.445130110311,415.445130110311,615.445130110311,784.554869889689,4,0,0,0,horizontal,horizontal,vertical,horizontal
3b,22,100353,6,27,267,19,F,blocked,constant,homogeneous,4,absent,0.846134901046753,1,vertical,vertical,1,5,red,2,NaN,984.554869889689,415.445130110311,NaN,NaN,984.554869889689,784.554869889689,984.554869889689,415.445130110311,615.445130110311,415.445130110311,615.445130110311,784.554869889689,0,4,0,0,horizontal,vertical,vertical,vertical
3b,22,100353,6,28,268,19,F,blocked,constant,homogeneous,4,present,0.754402160644531,1,vertical,vertical,1,3,red,3,4,615.445130110311,415.445130110311,615.445130110311,784.554869889689,984.554869889689,784.554869889689,984.554869889689,415.445130110311,615.445130110311,415.445130110311,615.445130110311,784.554869889689,0,0,4,0,horizontal,vertical,vertical,vertical
3b,22,100353,6,29,269,19,F,blocked,constant,homogeneous,4,absent,0.862863063812256,1,vertical,vertical,1,2,red,2,NaN,984.554869889689,415.445130110311,NaN,NaN,984.554869889689,784.554869889689,984.554869889689,415.445130110311,615.445130110311,415.445130110311,615.445130110311,784.554869889689,0,4,0,0,horizontal,vertical,vertical,vertical
3b,22,100353,6,30,270,19,F,blocked,constant,homogeneous,4,absent,1.05894899368286,1,horizontal,horizontal,1,2,red,1,NaN,984.554869889689,784.554869889689,NaN,NaN,984.554869889689,784.554869889689,984.554869889689,415.445130110311,615.445130110311,415.445130110311,615.445130110311,784.554869889689,4,0,0,0,horizontal,horizontal,horizontal,vertical
3b,22,100353,6,31,271,19,F,blocked,constant,homogeneous,4,present,1.1273250579834,1,horizontal,horizontal,1,2,red,3,2,615.445130110311,415.445130110311,984.554869889689,415.445130110311,984.554869889689,784.554869889689,984.554869889689,415.445130110311,615.445130110311,415.445130110311,615.445130110311,784.554869889689,0,0,4,0,vertical,horizontal,horizontal,vertical
3b,22,100353,6,32,272,19,F,blocked,constant,homogeneous,4,present,0.651648044586182,1,horizontal,horizontal,1,2,red,3,1,615.445130110311,415.445130110311,984.554869889689,784.554869889689,984.554869889689,784.554869889689,984.554869889689,415.445130110311,615.445130110311,415.445130110311,615.445130110311,784.554869889689,0,0,4,0,vertical,horizontal,horizontal,vertical
3b,22,100353,6,33,273,19,F,blocked,constant,homogeneous,4,present,1.03210997581482,1,vertical,vertical,1,2,red,4,3,615.445130110311,784.554869889689,615.445130110311,415.445130110311,984.554869889689,784.554869889689,984.554869889689,415.445130110311,615.445130110311,415.445130110311,615.445130110311,784.554869889689,0,0,0,4,vertical,horizontal,horizontal,vertical
3b,22,100353,6,34,274,19,F,blocked,constant,homogeneous,4,present,0.924404144287109,1,vertical,vertical,1,2,red,4,1,615.445130110311,784.554869889689,984.554869889689,784.554869889689,984.554869889689,784.554869889689,984.554869889689,415.445130110311,615.445130110311,415.445130110311,615.445130110311,784.554869889689,0,0,0,4,vertical,horizontal,horizontal,vertical
3b,22,100353,6,35,275,19,F,blocked,constant,homogeneous,4,absent,0.712624073028564,1,vertical,vertical,1,2,red,2,NaN,984.554869889689,415.445130110311,NaN,NaN,984.554869889689,784.554869889689,984.554869889689,415.445130110311,615.445130110311,415.445130110311,615.445130110311,784.554869889689,0,4,0,0,vertical,vertical,horizontal,horizontal
3b,22,100353,6,36,276,19,F,blocked,constant,homogeneous,4,present,0.764962196350098,1,vertical,vertical,1,5,red,1,3,984.554869889689,784.554869889689,615.445130110311,415.445130110311,984.554869889689,784.554869889689,984.554869889689,415.445130110311,615.445130110311,415.445130110311,615.445130110311,784.554869889689,4,0,0,0,vertical,vertical,vertical,horizontal
