experiment,subject,uniqueID,block,trial,trial_cumulative,age,gender,color_cond_blocking,color_history,shape_type,set_size,distractor,rt,acc,target_orient,response_key,response_made,iti,target_color,target_item,distractor_item,target_X,target_Y,distractor_X,distractor_Y,item1_X,item1_Y,item2_X,item2_Y,item3_X,item3_Y,item4_X,item4_Y,item1_shape,item2_shape,item3_shape,item4_shape,item1_line,item2_line,item3_line,item4_line
3b,6,100327,1,1,1,18,F,blocked,constant,homogeneous,4,absent,0.810518980026245,1,vertical,vertical,1,5,green,2,NaN,984.554869889689,415.445130110311,NaN,NaN,984.554869889689,784.554869889689,984.554869889689,415.445130110311,615.445130110311,415.445130110311,615.445130110311,784.554869889689,0,4,0,0,horizontal,vertical,horizontal,horizontal
3b,6,100327,1,2,2,18,F,blocked,constant,homogeneous,4,present,1.07074403762817,1,horizontal,horizontal,1,2,green,4,2,615.445130110311,784.554869889689,984.554869889689,415.445130110311,984.554869889689,784.554869889689,984.554869889689,415.445130110311,615.445130110311,415.445130110311,615.445130110311,784.554869889689,0,0,0,4,horizontal,horizontal,horizontal,horizontal
3b,6,100327,1,3,3,18,F,blocked,constant,homogeneous,4,present,0.803002119064331,1,vertical,vertical,1,8,green,2,3,984.554869889689,415.445130110311,615.445130110311,415.445130110311,984.554869889689,784.554869889689,984.554869889689,415.445130110311,615.445130110311,415.445130110311,615.445130110311,784.554869889689,0,4,0,0,horizontal,vertical,horizontal,vertical
3b,6,100327,1,4,4,18,F,blocked,constant,homogeneous,4,present,0.719436883926392,1,vertical,vertical,1,5,green,2,3,984.554869889689,415.445130110311,615.445130110311,415.445130110311,984.554869889689,784.554869889689,984.554869889689,415.445130110311,615.445130110311,415.445130110311,615.445130110311,784.554869889689,0,4,0,0,vertical,vertical,horizontal,vertical
3b,6,100327,1,5,5,18,F,blocked,constant,homogeneous,4,present,1.22739887237549,0,horizontal,vertical,1,5,green,2,1,984.554869889689,415.445130110311,984.554869889689,784.554869889689,984.554869889689,784.554869889689,984.554869889689,415.445130110311,615.445130110311,415.445130110311,615.445130110311,784.554869889689,0,4,0,0,vertical,horizontal,horizontal,vertical
3b,6,100327,1,6,6,18,F,blocked,constant,homogeneous,4,present,1.02393007278442,0,horizontal,vertical,1,2,green,4,3,615.445130110311,784.554869889689,615.445130110311,415.445130110311,984.554869889689,784.554869889689,984.554869889689,415.445130110311,615.445130110311,415.445130110311,615.445130110311,784.554869889689,0,0,0,4,vertical,vertical,horizontal,horizontal
3b,6,100327,1,7,7,18,F,blocked,constant,homogeneous,4,absent,0.955908060073853,1,horizontal,horizontal,1,5,green,4,NaN,615.445130110311,784.554869889689,NaN,NaN,984.554869889689,784.554869889689,984.554869889689,415.445130110311,615.445130110311,415.445130110311,615.445130110311,784.554869889689,0,0,0,4,vertical,horizontal,horizontal,horizontal
3b,6,100327,1,8,8,18,F,blocked,constant,homogeneous,4,present,0.872671842575073,1,vertical,vertical,1,5,green,3,1,615.445130110311,415.445130110311,984.554869889689,784.554869889689,984.554869889689,784.554869889689,984.554869889689,415.445130110311,615.445130110311,415.445130110311,615.445130110311,784.554869889689,0,0,4,0,horizontal,vertical,vertical,horizontal
3b,6,100327,1,9,9,18,F,blocked,constant,homogeneous,4,present,0.692876100540161,0,horizontal,vertical,1,5,green,3,4,615.445130110311,415.445130110311,615.445130110311,784.554869889689,984.554869889689,784.554869889689,984.554869889689,415.445130110311,615.445130110311,415.445130110311,615.445130110311,784.554869889689,0,0,4,0,vertical,vertical,horizontal,horizontal
3b,6,100327,1,10,10,18,F,blocked,constant,homogeneous,4,present,NaN,0,horizontal,none,0,3,green,4,2,615.445130110311,784.554869889689,984.554869889689,415.445130110311,984.554869889689,784.554869889689,984.554869889689,415.445130110311,615.445130110311,415.445130110311,615.445130110311,784.554869889689,0,0,0,4,horizontal,horizontal,vertical,horizontal
3b,6,100327,1,11,11,18,F,blocked,constant,homogeneous,4,absent,0.813423871994019,1,vertical,vertical,1,3,green,1,NaN,984.554869889689,784.554869889689,NaN,NaN,984.554869889689,784.554869889689,984.554869889689,415.445130110311,615.445130110311,415.445130110311,615.445130110311,784.554869889689,4,0,0,0,vertical,horizontal,horizontal,horizontal
3b,6,100327,1,12,12,18,F,blocked,constant,homogeneous,4,present,0.697921991348267,1,vertical,vertical,1,3,green,1,3,984.554869889689,784.554869889689,615.445130110311,415.445130110311,984.554869889689,784.554869889689,984.554869889689,415.445130110311,615.445130110311,415.445130110311,615.445130110311,784.554869889689,4,0,0,0,vertical,horizontal,horizontal,horizontal
3b,6,100327,1,13,13,18,F,blocked,constant,homogeneous,4,absent,1.09422612190247,1,horizontal,horizontal,1,3,green,1,NaN,984.554869889689,784.554869889689,NaN,NaN,984.554869889689,784.554869889689,984.554869889689,415.445130110311,615.445130110311,415.445130110311,615.445130110311,784.554869889689,4,0,0,0,horizontal,horizontal,horizontal,vertical
3b,6,100327,1,14,14,18,F,blocked,constant,homogeneous,4,present,0.890606880187988,1,vertical,vertical,1,2,green,2,4,984.554869889689,415.445130110311,615.445130110311,784.554869889689,984.554869889689,784.554869889689,984.554869889689,415.445130110311,615.445130110311,415.445130110311,615.445130110311,784.554869889689,0,4,0,0,horizontal,vertical,horizontal,horizontal
3b,6,100327,1,15,15,18,F,blocked,constant,homogeneous,4,absent,0.543033838272095,1,horizontal,horizontal,1,2,green,4,NaN,615.445130110311,784.554869889689,NaN,NaN,984.554869889689,784.554869889689,984.554869889689,415.445130110311,615.445130110311,415.445130110311,615.445130110311,784.554869889689,0,0,0,4,vertical,horizontal,horizontal,horizontal
3b,6,100327,1,16,16,18,F,blocked,constant,homogeneous,4,present,1.82690787315369,1,vertical,vertical,1,2,green,3,2,615.445130110311,415.445130110311,984.554869889689,415.445130110311,984.554869889689,784.554869889689,984.554869889689,415.445130110311,615.445130110311,415.445130110311,615.445130110311,784.554869889689,0,0,4,0,horizontal,vertical,vertical,vertical
3b,6,100327,1,17,17,18,F,blocked,constant,homogeneous,4,present,NaN,0,vertical,none,0,3,green,1,2,984.554869889689,784.554869889689,984.554869889689,415.445130110311,984.554869889689,784.554869889689,984.554869889689,415.445130110311,615.445130110311,415.445130110311,615.445130110311,784.554869889689,4,0,0,0,vertical,horizontal,vertical,vertical
3b,6,100327,1,18,18,18,F,blocked,constant,homogeneous,4,absent,1.13188910484314,1,horizontal,horizontal,1,5,green,1,NaN,984.554869889689,784.554869889689,NaN,NaN,984.554869889689,784.554869889689,984.554869889689,415.445130110311,615.445130110311,415.445130110311,615.445130110311,784.554869889689,4,0,0,0,horizontal,vertical,horizontal,vertical
3b,6,100327,1,19,19,18,F,blocked,constant,homogeneous,4,present,0.824253797531128,1,horizontal,horizontal,1,3,green,4,3,615.445130110311,784.554869889689,615.445130110311,415.445130110311,984.554869889689,784.554869889689,984.554869889689,415.445130110311,615.445130110311,415.445130110311,615.445130110311,784.554869889689,0,0,0,4,horizontal,horizontal,vertical,horizontal
3b,6,100327,1,20,20,18,F,blocked,constant,homogeneous,4,present,0.764605045318604,1,horizontal,horizontal,1,8,green,4,2,615.445130110311,784.554869889689,984.554869889689,415.445130110311,984.554869889689,784.554869889689,984.554869889689,415.445130110311,615.445130110311,415.445130110311,615.445130110311,784.554869889689,0,0,0,4,vertical,vertical,vertical,horizontal
3b,6,100327,1,21,21,18,F,blocked,constant,homogeneous,4,present,1.34480309486389,1,vertical,vertical,1,2,green,3,2,615.445130110311,415.445130110311,984.554869889689,415.445130110311,984.554869889689,784.554869889689,984.554869889689,415.445130110311,615.445130110311,415.445130110311,615.445130110311,784.554869889689,0,0,4,0,vertical,horizontal,vertical,vertical
3b,6,100327,1,22,22,18,F,blocked,constant,homogeneous,4,present,0.989364862442017,1,horizontal,horizontal,1,3,green,3,1,615.445130110311,415.445130110311,984.554869889689,784.554869889689,984.554869889689,784.554869889689,984.554869889689,415.445130110311,615.445130110311,415.445130110311,615.445130110311,784.554869889689,0,0,4,0,horizontal,horizontal,horizontal,horizontal
3b,6,100327,1,23,23,18,F,blocked,constant,homogeneous,4,absent,0.977524042129517,1,vertical,vertical,1,2,green,2,NaN,984.554869889689,415.445130110311,NaN,NaN,984.554869889689,784.554869889689,984.554869889689,415.445130110311,615.445130110311,415.445130110311,615.445130110311,784.554869889689,0,4,0,0,horizontal,vertical,horizontal,vertical
3b,6,100327,1,24,24,18,F,blocked,constant,homogeneous,4,absent,0.869417905807495,1,horizontal,horizontal,1,2,green,3,NaN,615.445130110311,415.445130110311,NaN,NaN,984.554869889689,784.554869889689,984.554869889689,415.445130110311,615.445130110311,415.445130110311,615.445130110311,784.554869889689,0,0,4,0,vertical,vertical,horizontal,vertical
3b,6,100327,1,25,25,18,F,blocked,constant,homogeneous,4,absent,1.40208983421326,1,horizontal,horizontal,1,2,green,4,NaN,615.445130110311,784.554869889689,NaN,NaN,984.554869889689,784.554869889689,984.554869889689,415.445130110311,615.445130110311,415.445130110311,615.445130110311,784.554869889689,0,0,0,4,vertical,vertical,vertical,horizontal
3b,6,100327,1,26,26,18,F,blocked,constant,homogeneous,4,present,0.910274028778076,1,vertical,vertical,1,2,green,2,4,984.554869889689,415.445130110311,615.445130110311,784.554869889689,984.554869889689,784.554869889689,984.554869889689,415.445130110311,615.445130110311,415.445130110311,615.445130110311,784.554869889689,0,4,0,0,horizontal,vertical,vertical,horizontal
3b,6,100327,1,27,27,18,F,blocked,constant,homogeneous,4,present,0.81050705909729,1,vertical,vertical,1,3,green,4,3,615.445130110311,784.554869889689,615.445130110311,415.445130110311,984.554869889689,784.554869889689,984.554869889689,415.445130110311,615.445130110311,415.445130110311,615.445130110311,784.554869889689,0,0,0,4,vertical,vertical,horizontal,vertical
3b,6,100327,1,28,28,18,F,blocked,constant,homogeneous,4,present,0.902724981307983,1,horizontal,horizontal,1,3,green,3,4,615.445130110311,415.445130110311,615.445130110311,784.554869889689,984.554869889689,784.554869889689,984.554869889689,415.445130110311,615.445130110311,415.445130110311,615.445130110311,784.554869889689,0,0,4,0,vertical,horizontal,horizontal,horizontal
3b,6,100327,1,29,29,18,F,blocked,constant,homogeneous,4,present,0.731269121170044,1,horizontal,horizontal,1,2,green,3,1,615.445130110311,415.445130110311,984.554869889689,784.554869889689,984.554869889689,784.554869889689,984.554869889689,415.445130110311,615.445130110311,415.445130110311,615.445130110311,784.554869889689,0,0,4,0,horizontal,horizontal,horizontal,vertical
3b,6,100327,1,30,30,18,F,blocked,constant,homogeneous,4,present,0.703822135925293,1,vertical,vertical,1,8,green,4,1,615.445130110311,784.554869889689,984.554869889689,784.554869889689,984.554869889689,784.554869889689,984.554869889689,415.445130110311,615.445130110311,415.445130110311,615.445130110311,784.554869889689,0,0,0,4,horizontal,horizontal,horizontal,vertical
3b,6,100327,1,31,31,18,F,blocked,constant,homogeneous,4,absent,1.74006509780884,1,vertical,vertical,1,5,green,3,NaN,615.445130110311,415.445130110311,NaN,NaN,984.554869889689,784.554869889689,984.554869889689,415.445130110311,615.445130110311,415.445130110311,615.445130110311,784.554869889689,0,0,4,0,horizontal,vertical,vertical,horizontal
3b,6,100327,1,32,32,18,F,blocked,constant,homogeneous,4,present,0.864475965499878,1,vertical,vertical,1,2,green,2,1,984.554869889689,415.445130110311,984.554869889689,784.554869889689,984.554869889689,784.554869889689,984.554869889689,415.445130110311,615.445130110311,415.445130110311,615.445130110311,784.554869889689,0,4,0,0,horizontal,vertical,horizontal,vertical
3b,6,100327,1,33,33,18,F,blocked,constant,homogeneous,4,present,NaN,0,vertical,none,0,5,green,1,4,984.554869889689,784.554869889689,615.445130110311,784.554869889689,984.554869889689,784.554869889689,984.554869889689,415.445130110311,615.445130110311,415.445130110311,615.445130110311,784.554869889689,4,0,0,0,vertical,horizontal,vertical,horizontal
3b,6,100327,1,34,34,18,F,blocked,constant,homogeneous,4,present,0.777084112167358,1,vertical,vertical,1,5,green,4,1,615.445130110311,784.554869889689,984.554869889689,784.554869889689,984.554869889689,784.554869889689,984.554869889689,415.445130110311,615.445130110311,415.445130110311,615.445130110311,784.554869889689,0,0,0,4,horizontal,vertical,vertical,vertical
3b,6,100327,1,35,35,18,F,blocked,constant,homogeneous,4,present,0.709242105484009,1,horizontal,horizontal,1,5,green,3,4,615.445130110311,415.445130110311,615.445130110311,784.554869889689,984.554869889689,784.554869889689,984.554869889689,415.445130110311,615.445130110311,415.445130110311,615.445130110311,784.554869889689,0,0,4,0,vertical,vertical,horizontal,vertical
3b,6,100327,1,36,36,18,F,blocked,constant,homogeneous,4,present,0.809808969497681,1,horizontal,horizontal,1,8,green,2,3,984.554869889689,415.445130110311,615.445130110311,415.445130110311,984.554869889689,784.554869889689,984.554869889689,415.445130110311,615.445130110311,415.445130110311,615.445130110311,784.554869889689,0,4,0,0,vertical,horizontal,vertical,horizontal
3b,6,100327,1,37,37,18,F,blocked,constant,homogeneous,4,present,1.85389304161072,1,horizontal,horizontal,1,2,green,1,3,984.554869889689,784.554869889689,615.445130110311,415.445130110311,984.554869889689,784.554869889689,984.554869889689,415.445130110311,615.445130110311,415.445130110311,615.445130110311,784.554869889689,4,0,0,0,horizontal,vertical,horizontal,vertical
3b,6,100327,1,38,38,18,F,blocked,constant,homogeneous,4,present,0.722220897674561,1,horizontal,horizontal,1,2,green,2,1,984.554869889689,415.445130110311,984.554869889689,784.554869889689,984.554869889689,784.554869889689,984.554869889689,415.445130110311,615.445130110311,415.445130110311,615.445130110311,784.554869889689,0,4,0,0,vertical,horizontal,vertical,vertical
3b,6,100327,1,39,39,18,F,blocked,constant,homogeneous,4,present,NaN,0,vertical,none,0,3,green,1,2,984.554869889689,784.554869889689,984.554869889689,415.445130110311,984.554869889689,784.554869889689,984.554869889689,415.445130110311,615.445130110311,415.445130110311,615.445130110311,784.554869889689,4,0,0,0,vertical,vertical,horizontal,horizontal
3b,6,100327,1,40,40,18,F,blocked,constant,homogeneous,4,absent,1.34709596633911,1,vertical,vertical,1,2,green,4,NaN,615.445130110311,784.554869889689,NaN,NaN,984.554869889689,784.554869889689,984.554869889689,415.445130110311,615.445130110311,415.445130110311,615.445130110311,784.554869889689,0,0,0,4,vertical,horizontal,horizontal,vertical
3b,6,100327,1,41,41,18,F,blocked,constant,homogeneous,4,absent,NaN,0,vertical,none,0,3,green,4,NaN,615.445130110311,784.554869889689,NaN,NaN,984.554869889689,784.554869889689,984.554869889689,415.445130110311,615.445130110311,415.445130110311,615.445130110311,784.554869889689,0,0,0,4,horizontal,horizontal,horizontal,vertical
3b,6,100327,1,42,42,18,F,blocked,constant,homogeneous,4,present,0.739523887634277,1,horizontal,horizontal,1,2,green,3,4,615.445130110311,415.445130110311,615.445130110311,784.554869889689,984.554869889689,784.554869889689,984.554869889689,415.445130110311,615.445130110311,415.445130110311,615.445130110311,784.554869889689,0,0,4,0,horizontal,vertical,horizontal,vertical
3b,6,100327,1,43,43,18,F,blocked,constant,homogeneous,4,absent,1.45565891265869,1,horizontal,horizontal,1,3,green,2,NaN,984.554869889689,415.445130110311,NaN,NaN,984.554869889689,784.554869889689,984.554869889689,415.445130110311,615.445130110311,415.445130110311,615.445130110311,784.554869889689,0,4,0,0,vertical,horizontal,vertical,horizontal
3b,6,100327,1,44,44,18,F,blocked,constant,homogeneous,4,present,1.23617696762085,1,vertical,vertical,1,2,green,4,3,615.445130110311,784.554869889689,615.445130110311,415.445130110311,984.554869889689,784.554869889689,984.554869889689,415.445130110311,615.445130110311,415.445130110311,615.445130110311,784.554869889689,0,0,0,4,horizontal,horizontal,vertical,vertical
3b,6,100327,1,45,45,18,F,blocked,constant,homogeneous,4,absent,0.824651002883911,1,vertical,vertical,1,2,green,1,NaN,984.554869889689,784.554869889689,NaN,NaN,984.554869889689,784.554869889689,984.554869889689,415.445130110311,615.445130110311,415.445130110311,615.445130110311,784.554869889689,4,0,0,0,vertical,horizontal,horizontal,horizontal
3b,6,100327,1,46,46,18,F,blocked,constant,homogeneous,4,absent,1.9169909954071,1,vertical,vertical,1,8,green,3,NaN,615.445130110311,415.445130110311,NaN,NaN,984.554869889689,784.554869889689,984.554869889689,415.445130110311,615.445130110311,415.445130110311,615.445130110311,784.554869889689,0,0,4,0,horizontal,vertical,vertical,horizontal
3b,6,100327,1,47,47,18,F,blocked,constant,homogeneous,4,present,0.969156980514526,1,horizontal,horizontal,1,5,green,4,2,615.445130110311,784.554869889689,984.554869889689,415.445130110311,984.554869889689,784.554869889689,984.554869889689,415.445130110311,615.445130110311,415.445130110311,615.445130110311,784.554869889689,0,0,0,4,horizontal,vertical,horizontal,horizontal
3b,6,100327,1,48,48,18,F,blocked,constant,homogeneous,4,absent,0.989561080932617,1,horizontal,horizontal,1,8,green,1,NaN,984.554869889689,784.554869889689,NaN,NaN,984.554869889689,784.554869889689,984.554869889689,415.445130110311,615.445130110311,415.445130110311,615.445130110311,784.554869889689,4,0,0,0,horizontal,vertical,horizontal,horizontal
3b,6,100324,2,1,49,18,F,blocked,constant,homogeneous,4,present,1.07153415679932,1,vertical,vertical,1,8,green,2,1,984.554869889689,415.445130110311,984.554869889689,784.554869889689,984.554869889689,784.554869889689,984.554869889689,415.445130110311,615.445130110311,415.445130110311,615.445130110311,784.554869889689,0,4,0,0,vertical,vertical,vertical,vertical
3b,6,100324,2,2,50,18,F,blocked,constant,homogeneous,4,absent,0.70746898651123,1,horizontal,horizontal,1,2,green,1,NaN,984.554869889689,784.554869889689,NaN,NaN,984.554869889689,784.554869889689,984.554869889689,415.445130110311,615.445130110311,415.445130110311,615.445130110311,784.554869889689,4,0,0,0,horizontal,vertical,horizontal,vertical
3b,6,100324,2,3,51,18,F,blocked,constant,homogeneous,4,present,0.639764070510864,1,vertical,vertical,1,3,green,1,3,984.554869889689,784.554869889689,615.445130110311,415.445130110311,984.554869889689,784.554869889689,984.554869889689,415.445130110311,615.445130110311,415.445130110311,615.445130110311,784.554869889689,4,0,0,0,vertical,vertical,vertical,vertical
3b,6,100324,2,4,52,18,F,blocked,constant,homogeneous,4,absent,0.7001051902771,1,vertical,vertical,1,5,green,4,NaN,615.445130110311,784.554869889689,NaN,NaN,984.554869889689,784.554869889689,984.554869889689,415.445130110311,615.445130110311,415.445130110311,615.445130110311,784.554869889689,0,0,0,4,horizontal,vertical,vertical,vertical
3b,6,100324,2,5,53,18,F,blocked,constant,homogeneous,4,present,0.992543935775757,1,horizontal,horizontal,1,2,green,1,4,984.554869889689,784.554869889689,615.445130110311,784.554869889689,984.554869889689,784.554869889689,984.554869889689,415.445130110311,615.445130110311,415.445130110311,615.445130110311,784.554869889689,4,0,0,0,horizontal,horizontal,horizontal,vertical
3b,6,100324,2,6,54,18,F,blocked,constant,homogeneous,4,present,0.78891396522522,1,vertical,vertical,1,2,green,1,3,984.554869889689,784.554869889689,615.445130110311,415.445130110311,984.554869889689,784.554869889689,984.554869889689,415.445130110311,615.445130110311,415.445130110311,615.445130110311,784.554869889689,4,0,0,0,vertical,vertical,horizontal,vertical
3b,6,100324,2,7,55,18,F,blocked,constant,homogeneous,4,present,0.849050998687744,1,vertical,vertical,1,3,green,2,1,984.554869889689,415.445130110311,984.554869889689,784.554869889689,984.554869889689,784.554869889689,984.554869889689,415.445130110311,615.445130110311,415.445130110311,615.445130110311,784.554869889689,0,4,0,0,vertical,vertical,vertical,horizontal
3b,6,100324,2,8,56,18,F,blocked,constant,homogeneous,4,present,0.653564929962158,1,vertical,vertical,1,3,green,1,3,984.554869889689,784.554869889689,615.445130110311,415.445130110311,984.554869889689,784.554869889689,984.554869889689,415.445130110311,615.445130110311,415.445130110311,615.445130110311,784.554869889689,4,0,0,0,vertical,vertical,horizontal,horizontal
3b,6,100324,2,9,57,18,F,blocked,constant,homogeneous,4,absent,0.777914047241211,1,horizontal,horizontal,1,3,green,1,NaN,984.554869889689,784.554869889689,NaN,NaN,984.554869889689,784.554869889689,984.554869889689,415.445130110311,615.445130110311,415.445130110311,615.445130110311,784.554869889689,4,0,0,0,horizontal,vertical,vertical,horizontal
3b,6,100324,2,10,58,18,F,blocked,constant,homogeneous,4,present,1.13422513008118,0,horizontal,vertical,1,2,green,2,4,984.554869889689,415.445130110311,615.445130110311,784.554869889689,984.554869889689,784.554869889689,984.554869889689,415.445130110311,615.445130110311,415.445130110311,615.445130110311,784.554869889689,0,4,0,0,horizontal,horizontal,horizontal,horizontal
3b,6,100324,2,11,59,18,F,blocked,constant,homogeneous,4,present,1.35454797744751,1,vertical,vertical,1,5,green,3,4,615.445130110311,415.445130110311,615.445130110311,784.554869889689,984.554869889689,784.554869889689,984.554869889689,415.445130110311,615.445130110311,415.445130110311,615.445130110311,784.554869889689,0,0,4,0,vertical,horizontal,vertical,vertical
3b,6,100324,2,12,60,18,F,blocked,constant,homogeneous,4,present,0.822672128677368,1,horizontal,horizontal,1,5,green,4,3,615.445130110311,784.554869889689,615.445130110311,415.445130110311,984.554869889689,784.554869889689,984.554869889689,415.445130110311,615.445130110311,415.445130110311,615.445130110311,784.554869889689,0,0,0,4,horizontal,horizontal,horizontal,horizontal
3b,6,100324,2,13,61,18,F,blocked,constant,homogeneous,4,present,0.803215980529785,1,vertical,vertical,1,3,green,4,3,615.445130110311,784.554869889689,615.445130110311,415.445130110311,984.554869889689,784.554869889689,984.554869889689,415.445130110311,615.445130110311,415.445130110311,615.445130110311,784.554869889689,0,0,0,4,vertical,horizontal,horizontal,vertical
3b,6,100324,2,14,62,18,F,blocked,constant,homogeneous,4,present,1.11948919296265,1,horizontal,horizontal,1,3,green,1,4,984.554869889689,784.554869889689,615.445130110311,784.554869889689,984.554869889689,784.554869889689,984.554869889689,415.445130110311,615.445130110311,415.445130110311,615.445130110311,784.554869889689,4,0,0,0,horizontal,vertical,horizontal,horizontal
3b,6,100324,2,15,63,18,F,blocked,constant,homogeneous,4,present,0.771852016448975,1,horizontal,horizontal,1,2,green,4,1,615.445130110311,784.554869889689,984.554869889689,784.554869889689,984.554869889689,784.554869889689,984.554869889689,415.445130110311,615.445130110311,415.445130110311,615.445130110311,784.554869889689,0,0,0,4,horizontal,horizontal,vertical,horizontal
3b,6,100324,2,16,64,18,F,blocked,constant,homogeneous,4,present,0.776179075241089,1,horizontal,horizontal,1,2,green,3,1,615.445130110311,415.445130110311,984.554869889689,784.554869889689,984.554869889689,784.554869889689,984.554869889689,415.445130110311,615.445130110311,415.445130110311,615.445130110311,784.554869889689,0,0,4,0,horizontal,horizontal,horizontal,horizontal
3b,6,100324,2,17,65,18,F,blocked,constant,homogeneous,4,absent,1.6204400062561,1,vertical,vertical,1,3,green,3,NaN,615.445130110311,415.445130110311,NaN,NaN,984.554869889689,784.554869889689,984.554869889689,415.445130110311,615.445130110311,415.445130110311,615.445130110311,784.554869889689,0,0,4,0,horizontal,vertical,vertical,horizontal
3b,6,100324,2,18,66,18,F,blocked,constant,homogeneous,4,present,1.12092399597168,1,horizontal,horizontal,1,3,green,1,3,984.554869889689,784.554869889689,615.445130110311,415.445130110311,984.554869889689,784.554869889689,984.554869889689,415.445130110311,615.445130110311,415.445130110311,615.445130110311,784.554869889689,4,0,0,0,horizontal,vertical,vertical,vertical
3b,6,100324,2,19,67,18,F,blocked,constant,homogeneous,4,present,NaN,0,vertical,none,0,2,green,2,1,984.554869889689,415.445130110311,984.554869889689,784.554869889689,984.554869889689,784.554869889689,984.554869889689,415.445130110311,615.445130110311,415.445130110311,615.445130110311,784.554869889689,0,4,0,0,vertical,vertical,vertical,horizontal
3b,6,100324,2,20,68,18,F,blocked,constant,homogeneous,4,absent,0.697289943695068,1,vertical,vertical,1,2,green,3,NaN,615.445130110311,415.445130110311,NaN,NaN,984.554869889689,784.554869889689,984.554869889689,415.445130110311,615.445130110311,415.445130110311,615.445130110311,784.554869889689,0,0,4,0,horizontal,horizontal,vertical,vertical
3b,6,100324,2,21,69,18,F,blocked,constant,homogeneous,4,present,0.757538795471191,1,horizontal,horizontal,1,3,green,1,2,984.554869889689,784.554869889689,984.554869889689,415.445130110311,984.554869889689,784.554869889689,984.554869889689,415.445130110311,615.445130110311,415.445130110311,615.445130110311,784.554869889689,4,0,0,0,horizontal,horizontal,horizontal,horizontal
3b,6,100324,2,22,70,18,F,blocked,constant,homogeneous,4,present,1.19414091110229,1,horizontal,horizontal,1,8,green,2,4,984.554869889689,415.445130110311,615.445130110311,784.554869889689,984.554869889689,784.554869889689,984.554869889689,415.445130110311,615.445130110311,415.445130110311,615.445130110311,784.554869889689,0,4,0,0,horizontal,horizontal,horizontal,horizontal
3b,6,100324,2,23,71,18,F,blocked,constant,homogeneous,4,absent,0.542279005050659,1,horizontal,horizontal,1,8,green,2,NaN,984.554869889689,415.445130110311,NaN,NaN,984.554869889689,784.554869889689,984.554869889689,415.445130110311,615.445130110311,415.445130110311,615.445130110311,784.554869889689,0,4,0,0,horizontal,horizontal,vertical,horizontal
3b,6,100324,2,24,72,18,F,blocked,constant,homogeneous,4,present,0.706807851791382,1,vertical,vertical,1,2,green,1,3,984.554869889689,784.554869889689,615.445130110311,415.445130110311,984.554869889689,784.554869889689,984.554869889689,415.445130110311,615.445130110311,415.445130110311,615.445130110311,784.554869889689,4,0,0,0,vertical,horizontal,horizontal,vertical
3b,6,100324,2,25,73,18,F,blocked,constant,homogeneous,4,present,0.775058031082153,1,vertical,vertical,1,2,green,3,1,615.445130110311,415.445130110311,984.554869889689,784.554869889689,984.554869889689,784.554869889689,984.554869889689,415.445130110311,615.445130110311,415.445130110311,615.445130110311,784.554869889689,0,0,4,0,vertical,horizontal,vertical,vertical
3b,6,100324,2,26,74,18,F,blocked,constant,homogeneous,4,present,NaN,0,vertical,none,0,5,green,3,1,615.445130110311,415.445130110311,984.554869889689,784.554869889689,984.554869889689,784.554869889689,984.554869889689,415.445130110311,615.445130110311,415.445130110311,615.445130110311,784.554869889689,0,0,4,0,horizontal,vertical,vertical,vertical
3b,6,100324,2,27,75,18,F,blocked,constant,homogeneous,4,present,0.791652917861938,1,horizontal,horizontal,1,2,green,2,1,984.554869889689,415.445130110311,984.554869889689,784.554869889689,984.554869889689,784.554869889689,984.554869889689,415.445130110311,615.445130110311,415.445130110311,615.445130110311,784.554869889689,0,4,0,0,horizontal,horizontal,vertical,horizontal
3b,6,100324,2,28,76,18,F,blocked,constant,homogeneous,4,present,0.788105010986328,1,horizontal,horizontal,1,3,green,4,2,615.445130110311,784.554869889689,984.554869889689,415.445130110311,984.554869889689,784.554869889689,984.554869889689,415.445130110311,615.445130110311,415.445130110311,615.445130110311,784.554869889689,0,0,0,4,horizontal,vertical,horizontal,horizontal
3b,6,100324,2,29,77,18,F,blocked,constant,homogeneous,4,present,0.632467985153198,1,horizontal,horizontal,1,2,green,3,2,615.445130110311,415.445130110311,984.554869889689,415.445130110311,984.554869889689,784.554869889689,984.554869889689,415.445130110311,615.445130110311,415.445130110311,615.445130110311,784.554869889689,0,0,4,0,horizontal,vertical,horizontal,horizontal
3b,6,100324,2,30,78,18,F,blocked,constant,homogeneous,4,absent,0.676534175872803,1,horizontal,horizontal,1,5,green,2,NaN,984.554869889689,415.445130110311,NaN,NaN,984.554869889689,784.554869889689,984.554869889689,415.445130110311,615.445130110311,415.445130110311,615.445130110311,784.554869889689,0,4,0,0,vertical,horizontal,vertical,vertical
3b,6,100324,2,31,79,18,F,blocked,constant,homogeneous,4,present,1.88918209075928,1,horizontal,horizontal,1,5,green,3,4,615.445130110311,415.445130110311,615.445130110311,784.554869889689,984.554869889689,784.554869889689,984.554869889689,415.445130110311,615.445130110311,415.445130110311,615.445130110311,784.554869889689,0,0,4,0,horizontal,vertical,horizontal,vertical
3b,6,100324,2,32,80,18,F,blocked,constant,homogeneous,4,present,0.941341876983643,1,vertical,vertical,1,5,green,4,1,615.445130110311,784.554869889689,984.554869889689,784.554869889689,984.554869889689,784.554869889689,984.554869889689,415.445130110311,615.445130110311,415.445130110311,615.445130110311,784.554869889689,0,0,0,4,horizontal,vertical,vertical,vertical
3b,6,100324,2,33,81,18,F,blocked,constant,homogeneous,4,absent,NaN,0,vertical,none,0,2,green,1,NaN,984.554869889689,784.554869889689,NaN,NaN,984.554869889689,784.554869889689,984.554869889689,415.445130110311,615.445130110311,415.445130110311,615.445130110311,784.554869889689,4,0,0,0,vertical,vertical,vertical,horizontal
3b,6,100324,2,34,82,18,F,blocked,constant,homogeneous,4,absent,1.95792484283447,1,horizontal,horizontal,1,2,green,2,NaN,984.554869889689,415.445130110311,NaN,NaN,984.554869889689,784.554869889689,984.554869889689,415.445130110311,615.445130110311,415.445130110311,615.445130110311,784.554869889689,0,4,0,0,vertical,horizontal,horizontal,horizontal
3b,6,100324,2,35,83,18,F,blocked,constant,homogeneous,4,present,1.86600399017334,1,horizontal,horizontal,1,8,green,2,4,984.554869889689,415.445130110311,615.445130110311,784.554869889689,984.554869889689,784.554869889689,984.554869889689,415.445130110311,615.445130110311,415.445130110311,615.445130110311,784.554869889689,0,4,0,0,vertical,horizontal,horizontal,horizontal
3b,6,100324,2,36,84,18,F,blocked,constant,homogeneous,4,present,1.06277394294739,1,horizontal,horizontal,1,5,green,3,4,615.445130110311,415.445130110311,615.445130110311,784.554869889689,984.554869889689,784.554869889689,984.554869889689,415.445130110311,615.445130110311,415.445130110311,615.445130110311,784.554869889689,0,0,4,0,vertical,vertical,horizontal,horizontal
3b,6,100324,2,37,85,18,F,blocked,constant,homogeneous,4,absent,0.779063940048218,1,vertical,vertical,1,8,green,1,NaN,984.554869889689,784.554869889689,NaN,NaN,984.554869889689,784.554869889689,984.554869889689,415.445130110311,615.445130110311,415.445130110311,615.445130110311,784.554869889689,4,0,0,0,vertical,vertical,vertical,vertical
3b,6,100324,2,38,86,18,F,blocked,constant,homogeneous,4,present,1.51938796043396,1,vertical,vertical,1,2,green,4,1,615.445130110311,784.554869889689,984.554869889689,784.554869889689,984.554869889689,784.554869889689,984.554869889689,415.445130110311,615.445130110311,415.445130110311,615.445130110311,784.554869889689,0,0,0,4,horizontal,vertical,vertical,vertical
3b,6,100324,2,39,87,18,F,blocked,constant,homogeneous,4,present,1.36353302001953,1,vertical,vertical,1,8,green,2,4,984.554869889689,415.445130110311,615.445130110311,784.554869889689,984.554869889689,784.554869889689,984.554869889689,415.445130110311,615.445130110311,415.445130110311,615.445130110311,784.554869889689,0,4,0,0,horizontal,vertical,vertical,horizontal
3b,6,100324,2,40,88,18,F,blocked,constant,homogeneous,4,present,NaN,0,vertical,none,0,5,green,2,3,984.554869889689,415.445130110311,615.445130110311,415.445130110311,984.554869889689,784.554869889689,984.554869889689,415.445130110311,615.445130110311,415.445130110311,615.445130110311,784.554869889689,0,4,0,0,horizontal,vertical,vertical,horizontal
3b,6,100324,2,41,89,18,F,blocked,constant,homogeneous,4,absent,1.02051115036011,1,vertical,vertical,1,5,green,3,NaN,615.445130110311,415.445130110311,NaN,NaN,984.554869889689,784.554869889689,984.554869889689,415.445130110311,615.445130110311,415.445130110311,615.445130110311,784.554869889689,0,0,4,0,vertical,vertical,vertical,horizontal
3b,6,100324,2,42,90,18,F,blocked,constant,homogeneous,4,present,1.12897205352783,1,horizontal,horizontal,1,5,green,3,4,615.445130110311,415.445130110311,615.445130110311,784.554869889689,984.554869889689,784.554869889689,984.554869889689,415.445130110311,615.445130110311,415.445130110311,615.445130110311,784.554869889689,0,0,4,0,horizontal,vertical,horizontal,vertical
3b,6,100324,2,43,91,18,F,blocked,constant,homogeneous,4,present,1.02135992050171,1,vertical,vertical,1,2,green,4,3,615.445130110311,784.554869889689,615.445130110311,415.445130110311,984.554869889689,784.554869889689,984.554869889689,415.445130110311,615.445130110311,415.445130110311,615.445130110311,784.554869889689,0,0,0,4,horizontal,horizontal,vertical,vertical
3b,6,100324,2,44,92,18,F,blocked,constant,homogeneous,4,absent,0.633520841598511,1,horizontal,horizontal,1,3,green,3,NaN,615.445130110311,415.445130110311,NaN,NaN,984.554869889689,784.554869889689,984.554869889689,415.445130110311,615.445130110311,415.445130110311,615.445130110311,784.554869889689,0,0,4,0,vertical,horizontal,horizontal,horizontal
3b,6,100324,2,45,93,18,F,blocked,constant,homogeneous,4,absent,0.82164192199707,1,horizontal,horizontal,1,5,green,2,NaN,984.554869889689,415.445130110311,NaN,NaN,984.554869889689,784.554869889689,984.554869889689,415.445130110311,615.445130110311,415.445130110311,615.445130110311,784.554869889689,0,4,0,0,vertical,horizontal,horizontal,vertical
3b,6,100324,2,46,94,18,F,blocked,constant,homogeneous,4,absent,1.3222758769989,1,vertical,vertical,1,2,green,3,NaN,615.445130110311,415.445130110311,NaN,NaN,984.554869889689,784.554869889689,984.554869889689,415.445130110311,615.445130110311,415.445130110311,615.445130110311,784.554869889689,0,0,4,0,horizontal,horizontal,vertical,horizontal
3b,6,100324,2,47,95,18,F,blocked,constant,homogeneous,4,absent,0.782547950744629,1,horizontal,horizontal,1,2,green,3,NaN,615.445130110311,415.445130110311,NaN,NaN,984.554869889689,784.554869889689,984.554869889689,415.445130110311,615.445130110311,415.445130110311,615.445130110311,784.554869889689,0,0,4,0,horizontal,vertical,horizontal,vertical
3b,6,100324,2,48,96,18,F,blocked,constant,homogeneous,4,absent,1.33872509002686,1,vertical,vertical,1,3,green,2,NaN,984.554869889689,415.445130110311,NaN,NaN,984.554869889689,784.554869889689,984.554869889689,415.445130110311,615.445130110311,415.445130110311,615.445130110311,784.554869889689,0,4,0,0,vertical,vertical,vertical,horizontal
3b,6,100324,3,1,97,18,F,blocked,constant,homogeneous,4,present,1.48870301246643,0,vertical,horizontal,1,2,green,1,4,984.554869889689,784.554869889689,615.445130110311,784.554869889689,984.554869889689,784.554869889689,984.554869889689,415.445130110311,615.445130110311,415.445130110311,615.445130110311,784.554869889689,4,0,0,0,vertical,horizontal,horizontal,horizontal
3b,6,100324,3,2,98,18,F,blocked,constant,homogeneous,4,absent,0.844975233078003,1,horizontal,horizontal,1,5,green,4,NaN,615.445130110311,784.554869889689,NaN,NaN,984.554869889689,784.554869889689,984.554869889689,415.445130110311,615.445130110311,415.445130110311,615.445130110311,784.554869889689,0,0,0,4,vertical,vertical,vertical,horizontal
3b,6,100324,3,3,99,18,F,blocked,constant,homogeneous,4,absent,0.737255811691284,0,horizontal,vertical,1,2,green,2,NaN,984.554869889689,415.445130110311,NaN,NaN,984.554869889689,784.554869889689,984.554869889689,415.445130110311,615.445130110311,415.445130110311,615.445130110311,784.554869889689,0,4,0,0,vertical,horizontal,vertical,vertical
3b,6,100324,3,4,100,18,F,blocked,constant,homogeneous,4,present,0.829565048217773,1,horizontal,horizontal,1,5,green,3,2,615.445130110311,415.445130110311,984.554869889689,415.445130110311,984.554869889689,784.554869889689,984.554869889689,415.445130110311,615.445130110311,415.445130110311,615.445130110311,784.554869889689,0,0,4,0,horizontal,horizontal,horizontal,horizontal
3b,6,100324,3,5,101,18,F,blocked,constant,homogeneous,4,absent,0.59401798248291,1,vertical,vertical,1,2,green,1,NaN,984.554869889689,784.554869889689,NaN,NaN,984.554869889689,784.554869889689,984.554869889689,415.445130110311,615.445130110311,415.445130110311,615.445130110311,784.554869889689,4,0,0,0,vertical,vertical,vertical,horizontal
3b,6,100324,3,6,102,18,F,blocked,constant,homogeneous,4,present,0.51821494102478,1,horizontal,horizontal,1,8,green,4,1,615.445130110311,784.554869889689,984.554869889689,784.554869889689,984.554869889689,784.554869889689,984.554869889689,415.445130110311,615.445130110311,415.445130110311,615.445130110311,784.554869889689,0,0,0,4,vertical,vertical,vertical,horizontal
3b,6,100324,3,7,103,18,F,blocked,constant,homogeneous,4,present,0.466663837432861,0,horizontal,vertical,1,3,green,2,4,984.554869889689,415.445130110311,615.445130110311,784.554869889689,984.554869889689,784.554869889689,984.554869889689,415.445130110311,615.445130110311,415.445130110311,615.445130110311,784.554869889689,0,4,0,0,horizontal,horizontal,vertical,vertical
3b,6,100324,3,8,104,18,F,blocked,constant,homogeneous,4,absent,0.342911958694458,0,horizontal,vertical,1,8,green,1,NaN,984.554869889689,784.554869889689,NaN,NaN,984.554869889689,784.554869889689,984.554869889689,415.445130110311,615.445130110311,415.445130110311,615.445130110311,784.554869889689,4,0,0,0,horizontal,horizontal,vertical,horizontal
3b,6,100324,3,9,105,18,F,blocked,constant,homogeneous,4,present,0.651257038116455,1,horizontal,horizontal,1,2,green,2,1,984.554869889689,415.445130110311,984.554869889689,784.554869889689,984.554869889689,784.554869889689,984.554869889689,415.445130110311,615.445130110311,415.445130110311,615.445130110311,784.554869889689,0,4,0,0,horizontal,horizontal,horizontal,horizontal
3b,6,100324,3,10,106,18,F,blocked,constant,homogeneous,4,present,0.591657876968384,1,vertical,vertical,1,2,green,4,3,615.445130110311,784.554869889689,615.445130110311,415.445130110311,984.554869889689,784.554869889689,984.554869889689,415.445130110311,615.445130110311,415.445130110311,615.445130110311,784.554869889689,0,0,0,4,vertical,horizontal,vertical,vertical
3b,6,100324,3,11,107,18,F,blocked,constant,homogeneous,4,present,0.771769046783447,1,horizontal,horizontal,1,2,green,3,1,615.445130110311,415.445130110311,984.554869889689,784.554869889689,984.554869889689,784.554869889689,984.554869889689,415.445130110311,615.445130110311,415.445130110311,615.445130110311,784.554869889689,0,0,4,0,horizontal,horizontal,horizontal,horizontal
3b,6,100324,3,12,108,18,F,blocked,constant,homogeneous,4,absent,0.93626880645752,0,vertical,horizontal,1,2,green,3,NaN,615.445130110311,415.445130110311,NaN,NaN,984.554869889689,784.554869889689,984.554869889689,415.445130110311,615.445130110311,415.445130110311,615.445130110311,784.554869889689,0,0,4,0,horizontal,horizontal,vertical,vertical
3b,6,100324,3,13,109,18,F,blocked,constant,homogeneous,4,present,0.996554851531982,1,horizontal,horizontal,1,5,green,1,4,984.554869889689,784.554869889689,615.445130110311,784.554869889689,984.554869889689,784.554869889689,984.554869889689,415.445130110311,615.445130110311,415.445130110311,615.445130110311,784.554869889689,4,0,0,0,horizontal,vertical,vertical,vertical
3b,6,100324,3,14,110,18,F,blocked,constant,homogeneous,4,present,0.65671706199646,1,horizontal,horizontal,1,3,green,1,4,984.554869889689,784.554869889689,615.445130110311,784.554869889689,984.554869889689,784.554869889689,984.554869889689,415.445130110311,615.445130110311,415.445130110311,615.445130110311,784.554869889689,4,0,0,0,horizontal,vertical,vertical,horizontal
3b,6,100324,3,15,111,18,F,blocked,constant,homogeneous,4,present,0.797204971313477,1,vertical,vertical,1,3,green,2,1,984.554869889689,415.445130110311,984.554869889689,784.554869889689,984.554869889689,784.554869889689,984.554869889689,415.445130110311,615.445130110311,415.445130110311,615.445130110311,784.554869889689,0,4,0,0,horizontal,vertical,vertical,horizontal
3b,6,100324,3,16,112,18,F,blocked,constant,homogeneous,4,present,0.833305835723877,1,vertical,vertical,1,2,green,1,2,984.554869889689,784.554869889689,984.554869889689,415.445130110311,984.554869889689,784.554869889689,984.554869889689,415.445130110311,615.445130110311,415.445130110311,615.445130110311,784.554869889689,4,0,0,0,vertical,vertical,vertical,horizontal
3b,6,100324,3,17,113,18,F,blocked,constant,homogeneous,4,present,0.670030832290649,1,vertical,vertical,1,3,green,2,3,984.554869889689,415.445130110311,615.445130110311,415.445130110311,984.554869889689,784.554869889689,984.554869889689,415.445130110311,615.445130110311,415.445130110311,615.445130110311,784.554869889689,0,4,0,0,vertical,vertical,horizontal,horizontal
3b,6,100324,3,18,114,18,F,blocked,constant,homogeneous,4,present,0.594487905502319,1,horizontal,horizontal,1,2,green,3,2,615.445130110311,415.445130110311,984.554869889689,415.445130110311,984.554869889689,784.554869889689,984.554869889689,415.445130110311,615.445130110311,415.445130110311,615.445130110311,784.554869889689,0,0,4,0,vertical,horizontal,horizontal,horizontal
3b,6,100324,3,19,115,18,F,blocked,constant,homogeneous,4,present,0.718525171279907,0,horizontal,vertical,1,3,green,1,2,984.554869889689,784.554869889689,984.554869889689,415.445130110311,984.554869889689,784.554869889689,984.554869889689,415.445130110311,615.445130110311,415.445130110311,615.445130110311,784.554869889689,4,0,0,0,horizontal,horizontal,vertical,vertical
3b,6,100324,3,20,116,18,F,blocked,constant,homogeneous,4,present,0.850852012634277,1,horizontal,horizontal,1,2,green,4,2,615.445130110311,784.554869889689,984.554869889689,415.445130110311,984.554869889689,784.554869889689,984.554869889689,415.445130110311,615.445130110311,415.445130110311,615.445130110311,784.554869889689,0,0,0,4,vertical,vertical,vertical,horizontal
3b,6,100324,3,21,117,18,F,blocked,constant,homogeneous,4,present,0.679234027862549,1,vertical,vertical,1,2,green,4,1,615.445130110311,784.554869889689,984.554869889689,784.554869889689,984.554869889689,784.554869889689,984.554869889689,415.445130110311,615.445130110311,415.445130110311,615.445130110311,784.554869889689,0,0,0,4,vertical,vertical,horizontal,vertical
3b,6,100324,3,22,118,18,F,blocked,constant,homogeneous,4,absent,0.923429012298584,1,vertical,vertical,1,8,green,3,NaN,615.445130110311,415.445130110311,NaN,NaN,984.554869889689,784.554869889689,984.554869889689,415.445130110311,615.445130110311,415.445130110311,615.445130110311,784.554869889689,0,0,4,0,horizontal,horizontal,vertical,horizontal
3b,6,100324,3,23,119,18,F,blocked,constant,homogeneous,4,present,0.615895986557007,1,vertical,vertical,1,5,green,4,2,615.445130110311,784.554869889689,984.554869889689,415.445130110311,984.554869889689,784.554869889689,984.554869889689,415.445130110311,615.445130110311,415.445130110311,615.445130110311,784.554869889689,0,0,0,4,horizontal,horizontal,vertical,vertical
3b,6,100324,3,24,120,18,F,blocked,constant,homogeneous,4,absent,0.579919099807739,1,horizontal,horizontal,1,3,green,2,NaN,984.554869889689,415.445130110311,NaN,NaN,984.554869889689,784.554869889689,984.554869889689,415.445130110311,615.445130110311,415.445130110311,615.445130110311,784.554869889689,0,4,0,0,vertical,horizontal,horizontal,vertical
3b,6,100324,3,25,121,18,F,blocked,constant,homogeneous,4,absent,0.736553907394409,1,vertical,vertical,1,5,green,3,NaN,615.445130110311,415.445130110311,NaN,NaN,984.554869889689,784.554869889689,984.554869889689,415.445130110311,615.445130110311,415.445130110311,615.445130110311,784.554869889689,0,0,4,0,horizontal,vertical,vertical,vertical
3b,6,100324,3,26,122,18,F,blocked,constant,homogeneous,4,absent,0.68480396270752,1,vertical,vertical,1,5,green,4,NaN,615.445130110311,784.554869889689,NaN,NaN,984.554869889689,784.554869889689,984.554869889689,415.445130110311,615.445130110311,415.445130110311,615.445130110311,784.554869889689,0,0,0,4,vertical,vertical,horizontal,vertical
3b,6,100324,3,27,123,18,F,blocked,constant,homogeneous,4,present,0.433197021484375,0,horizontal,vertical,1,2,green,4,2,615.445130110311,784.554869889689,984.554869889689,415.445130110311,984.554869889689,784.554869889689,984.554869889689,415.445130110311,615.445130110311,415.445130110311,615.445130110311,784.554869889689,0,0,0,4,horizontal,vertical,horizontal,horizontal
3b,6,100324,3,28,124,18,F,blocked,constant,homogeneous,4,present,0.637591123580933,1,vertical,vertical,1,5,green,4,2,615.445130110311,784.554869889689,984.554869889689,415.445130110311,984.554869889689,784.554869889689,984.554869889689,415.445130110311,615.445130110311,415.445130110311,615.445130110311,784.554869889689,0,0,0,4,horizontal,vertical,vertical,vertical
3b,6,100324,3,29,125,18,F,blocked,constant,homogeneous,4,absent,1.57005596160889,1,vertical,vertical,1,2,green,4,NaN,615.445130110311,784.554869889689,NaN,NaN,984.554869889689,784.554869889689,984.554869889689,415.445130110311,615.445130110311,415.445130110311,615.445130110311,784.554869889689,0,0,0,4,vertical,horizontal,vertical,vertical
3b,6,100324,3,30,126,18,F,blocked,constant,homogeneous,4,absent,0.39825701713562,1,horizontal,horizontal,1,5,green,1,NaN,984.554869889689,784.554869889689,NaN,NaN,984.554869889689,784.554869889689,984.554869889689,415.445130110311,615.445130110311,415.445130110311,615.445130110311,784.554869889689,4,0,0,0,horizontal,vertical,horizontal,horizontal
3b,6,100324,3,31,127,18,F,blocked,constant,homogeneous,4,present,0.578619956970215,0,horizontal,vertical,1,2,green,4,3,615.445130110311,784.554869889689,615.445130110311,415.445130110311,984.554869889689,784.554869889689,984.554869889689,415.445130110311,615.445130110311,415.445130110311,615.445130110311,784.554869889689,0,0,0,4,horizontal,horizontal,vertical,horizontal
3b,6,100324,3,32,128,18,F,blocked,constant,homogeneous,4,absent,1.21492004394531,1,horizontal,horizontal,1,3,green,2,NaN,984.554869889689,415.445130110311,NaN,NaN,984.554869889689,784.554869889689,984.554869889689,415.445130110311,615.445130110311,415.445130110311,615.445130110311,784.554869889689,0,4,0,0,horizontal,horizontal,vertical,vertical
3b,6,100324,3,33,129,18,F,blocked,constant,homogeneous,4,present,0.331192016601562,1,vertical,vertical,1,5,green,2,3,984.554869889689,415.445130110311,615.445130110311,415.445130110311,984.554869889689,784.554869889689,984.554869889689,415.445130110311,615.445130110311,415.445130110311,615.445130110311,784.554869889689,0,4,0,0,horizontal,vertical,vertical,horizontal
3b,6,100324,3,34,130,18,F,blocked,constant,homogeneous,4,present,0.951395988464355,1,horizontal,horizontal,1,3,green,1,4,984.554869889689,784.554869889689,615.445130110311,784.554869889689,984.554869889689,784.554869889689,984.554869889689,415.445130110311,615.445130110311,415.445130110311,615.445130110311,784.554869889689,4,0,0,0,horizontal,horizontal,vertical,horizontal
3b,6,100324,3,35,131,18,F,blocked,constant,homogeneous,4,absent,0.715572834014893,1,horizontal,horizontal,1,2,green,1,NaN,984.554869889689,784.554869889689,NaN,NaN,984.554869889689,784.554869889689,984.554869889689,415.445130110311,615.445130110311,415.445130110311,615.445130110311,784.554869889689,4,0,0,0,horizontal,horizontal,horizontal,horizontal
3b,6,100324,3,36,132,18,F,blocked,constant,homogeneous,4,present,0.984269857406616,0,vertical,horizontal,1,3,green,3,1,615.445130110311,415.445130110311,984.554869889689,784.554869889689,984.554869889689,784.554869889689,984.554869889689,415.445130110311,615.445130110311,415.445130110311,615.445130110311,784.554869889689,0,0,4,0,horizontal,vertical,vertical,horizontal
3b,6,100324,3,37,133,18,F,blocked,constant,homogeneous,4,absent,0.676373958587646,1,vertical,vertical,1,3,green,3,NaN,615.445130110311,415.445130110311,NaN,NaN,984.554869889689,784.554869889689,984.554869889689,415.445130110311,615.445130110311,415.445130110311,615.445130110311,784.554869889689,0,0,4,0,horizontal,vertical,vertical,horizontal
3b,6,100324,3,38,134,18,F,blocked,constant,homogeneous,4,present,0.336888074874878,0,horizontal,vertical,1,5,green,1,4,984.554869889689,784.554869889689,615.445130110311,784.554869889689,984.554869889689,784.554869889689,984.554869889689,415.445130110311,615.445130110311,415.445130110311,615.445130110311,784.554869889689,4,0,0,0,horizontal,vertical,horizontal,vertical
3b,6,100324,3,39,135,18,F,blocked,constant,homogeneous,4,absent,1.52500200271606,1,horizontal,horizontal,1,2,green,2,NaN,984.554869889689,415.445130110311,NaN,NaN,984.554869889689,784.554869889689,984.554869889689,415.445130110311,615.445130110311,415.445130110311,615.445130110311,784.554869889689,0,4,0,0,vertical,horizontal,horizontal,horizontal
3b,6,100324,3,40,136,18,F,blocked,constant,homogeneous,4,absent,1.15329909324646,1,vertical,vertical,1,3,green,3,NaN,615.445130110311,415.445130110311,NaN,NaN,984.554869889689,784.554869889689,984.554869889689,415.445130110311,615.445130110311,415.445130110311,615.445130110311,784.554869889689,0,0,4,0,vertical,horizontal,vertical,horizontal
3b,6,100324,3,41,137,18,F,blocked,constant,homogeneous,4,present,0.765813112258911,1,vertical,vertical,1,5,green,2,3,984.554869889689,415.445130110311,615.445130110311,415.445130110311,984.554869889689,784.554869889689,984.554869889689,415.445130110311,615.445130110311,415.445130110311,615.445130110311,784.554869889689,0,4,0,0,horizontal,vertical,horizontal,horizontal
3b,6,100324,3,42,138,18,F,blocked,constant,homogeneous,4,present,0.769914865493774,0,vertical,horizontal,1,2,green,1,3,984.554869889689,784.554869889689,615.445130110311,415.445130110311,984.554869889689,784.554869889689,984.554869889689,415.445130110311,615.445130110311,415.445130110311,615.445130110311,784.554869889689,4,0,0,0,vertical,horizontal,horizontal,vertical
3b,6,100324,3,43,139,18,F,blocked,constant,homogeneous,4,present,0.398320198059082,0,horizontal,vertical,1,5,green,2,1,984.554869889689,415.445130110311,984.554869889689,784.554869889689,984.554869889689,784.554869889689,984.554869889689,415.445130110311,615.445130110311,415.445130110311,615.445130110311,784.554869889689,0,4,0,0,vertical,horizontal,vertical,horizontal
3b,6,100324,3,44,140,18,F,blocked,constant,homogeneous,4,present,0.738840103149414,1,horizontal,horizontal,1,8,green,3,4,615.445130110311,415.445130110311,615.445130110311,784.554869889689,984.554869889689,784.554869889689,984.554869889689,415.445130110311,615.445130110311,415.445130110311,615.445130110311,784.554869889689,0,0,4,0,horizontal,vertical,horizontal,vertical
3b,6,100324,3,45,141,18,F,blocked,constant,homogeneous,4,present,1.13499808311462,1,vertical,vertical,1,3,green,1,4,984.554869889689,784.554869889689,615.445130110311,784.554869889689,984.554869889689,784.554869889689,984.554869889689,415.445130110311,615.445130110311,415.445130110311,615.445130110311,784.554869889689,4,0,0,0,vertical,horizontal,vertical,vertical
3b,6,100324,3,46,142,18,F,blocked,constant,homogeneous,4,present,0.931583166122437,1,vertical,vertical,1,8,green,3,1,615.445130110311,415.445130110311,984.554869889689,784.554869889689,984.554869889689,784.554869889689,984.554869889689,415.445130110311,615.445130110311,415.445130110311,615.445130110311,784.554869889689,0,0,4,0,vertical,horizontal,vertical,horizontal
3b,6,100324,3,47,143,18,F,blocked,constant,homogeneous,4,present,0.999814033508301,1,vertical,vertical,1,8,green,4,2,615.445130110311,784.554869889689,984.554869889689,415.445130110311,984.554869889689,784.554869889689,984.554869889689,415.445130110311,615.445130110311,415.445130110311,615.445130110311,784.554869889689,0,0,0,4,vertical,horizontal,horizontal,vertical
3b,6,100324,3,48,144,18,F,blocked,constant,homogeneous,4,present,1.42013120651245,1,vertical,vertical,1,2,green,1,4,984.554869889689,784.554869889689,615.445130110311,784.554869889689,984.554869889689,784.554869889689,984.554869889689,415.445130110311,615.445130110311,415.445130110311,615.445130110311,784.554869889689,4,0,0,0,vertical,horizontal,horizontal,vertical
3b,6,100324,4,1,145,18,F,blocked,constant,homogeneous,4,absent,0.756738185882568,0,vertical,horizontal,1,2,red,1,NaN,984.554869889689,784.554869889689,NaN,NaN,984.554869889689,784.554869889689,984.554869889689,415.445130110311,615.445130110311,415.445130110311,615.445130110311,784.554869889689,4,0,0,0,vertical,horizontal,vertical,horizontal
3b,6,100324,4,2,146,18,F,blocked,constant,homogeneous,4,present,0.937024831771851,1,vertical,vertical,1,2,red,1,2,984.554869889689,784.554869889689,984.554869889689,415.445130110311,984.554869889689,784.554869889689,984.554869889689,415.445130110311,615.445130110311,415.445130110311,615.445130110311,784.554869889689,4,0,0,0,vertical,horizontal,horizontal,vertical
3b,6,100324,4,3,147,18,F,blocked,constant,homogeneous,4,present,0.973253011703491,1,horizontal,horizontal,1,2,red,3,4,615.445130110311,415.445130110311,615.445130110311,784.554869889689,984.554869889689,784.554869889689,984.554869889689,415.445130110311,615.445130110311,415.445130110311,615.445130110311,784.554869889689,0,0,4,0,vertical,vertical,horizontal,horizontal
3b,6,100324,4,4,148,18,F,blocked,constant,homogeneous,4,present,NaN,0,horizontal,none,0,2,red,2,3,984.554869889689,415.445130110311,615.445130110311,415.445130110311,984.554869889689,784.554869889689,984.554869889689,415.445130110311,615.445130110311,415.445130110311,615.445130110311,784.554869889689,0,4,0,0,vertical,horizontal,horizontal,horizontal
3b,6,100324,4,5,149,18,F,blocked,constant,homogeneous,4,present,0.789650917053223,1,vertical,vertical,1,8,red,2,4,984.554869889689,415.445130110311,615.445130110311,784.554869889689,984.554869889689,784.554869889689,984.554869889689,415.445130110311,615.445130110311,415.445130110311,615.445130110311,784.554869889689,0,4,0,0,horizontal,vertical,horizontal,vertical
3b,6,100324,4,6,150,18,F,blocked,constant,homogeneous,4,present,0.75415301322937,1,horizontal,horizontal,1,5,red,3,1,615.445130110311,415.445130110311,984.554869889689,784.554869889689,984.554869889689,784.554869889689,984.554869889689,415.445130110311,615.445130110311,415.445130110311,615.445130110311,784.554869889689,0,0,4,0,horizontal,vertical,horizontal,vertical
3b,6,100324,4,7,151,18,F,blocked,constant,homogeneous,4,absent,0.630743026733398,1,horizontal,horizontal,1,2,red,3,NaN,615.445130110311,415.445130110311,NaN,NaN,984.554869889689,784.554869889689,984.554869889689,415.445130110311,615.445130110311,415.445130110311,615.445130110311,784.554869889689,0,0,4,0,vertical,horizontal,horizontal,horizontal
3b,6,100324,4,8,152,18,F,blocked,constant,homogeneous,4,absent,0.699014902114868,1,horizontal,horizontal,1,8,red,3,NaN,615.445130110311,415.445130110311,NaN,NaN,984.554869889689,784.554869889689,984.554869889689,415.445130110311,615.445130110311,415.445130110311,615.445130110311,784.554869889689,0,0,4,0,horizontal,vertical,horizontal,horizontal
3b,6,100324,4,9,153,18,F,blocked,constant,homogeneous,4,absent,0.935406923294067,1,horizontal,horizontal,1,5,red,2,NaN,984.554869889689,415.445130110311,NaN,NaN,984.554869889689,784.554869889689,984.554869889689,415.445130110311,615.445130110311,415.445130110311,615.445130110311,784.554869889689,0,4,0,0,vertical,horizontal,vertical,vertical
3b,6,100324,4,10,154,18,F,blocked,constant,homogeneous,4,present,1.57170987129211,1,horizontal,horizontal,1,5,red,1,3,984.554869889689,784.554869889689,615.445130110311,415.445130110311,984.554869889689,784.554869889689,984.554869889689,415.445130110311,615.445130110311,415.445130110311,615.445130110311,784.554869889689,4,0,0,0,horizontal,horizontal,horizontal,vertical
3b,6,100324,4,11,155,18,F,blocked,constant,homogeneous,4,present,1.04016900062561,1,vertical,vertical,1,3,red,4,2,615.445130110311,784.554869889689,984.554869889689,415.445130110311,984.554869889689,784.554869889689,984.554869889689,415.445130110311,615.445130110311,415.445130110311,615.445130110311,784.554869889689,0,0,0,4,horizontal,vertical,horizontal,vertical
3b,6,100324,4,12,156,18,F,blocked,constant,homogeneous,4,present,0.724259853363037,1,horizontal,horizontal,1,2,red,1,3,984.554869889689,784.554869889689,615.445130110311,415.445130110311,984.554869889689,784.554869889689,984.554869889689,415.445130110311,615.445130110311,415.445130110311,615.445130110311,784.554869889689,4,0,0,0,horizontal,vertical,horizontal,vertical
3b,6,100324,4,13,157,18,F,blocked,constant,homogeneous,4,present,0.960607051849365,0,vertical,horizontal,1,3,red,2,1,984.554869889689,415.445130110311,984.554869889689,784.554869889689,984.554869889689,784.554869889689,984.554869889689,415.445130110311,615.445130110311,415.445130110311,615.445130110311,784.554869889689,0,4,0,0,vertical,vertical,vertical,horizontal
3b,6,100324,4,14,158,18,F,blocked,constant,homogeneous,4,present,0.748892068862915,1,vertical,vertical,1,3,red,3,1,615.445130110311,415.445130110311,984.554869889689,784.554869889689,984.554869889689,784.554869889689,984.554869889689,415.445130110311,615.445130110311,415.445130110311,615.445130110311,784.554869889689,0,0,4,0,vertical,horizontal,vertical,horizontal
3b,6,100324,4,15,159,18,F,blocked,constant,homogeneous,4,present,1.96939015388489,1,horizontal,horizontal,1,2,red,3,2,615.445130110311,415.445130110311,984.554869889689,415.445130110311,984.554869889689,784.554869889689,984.554869889689,415.445130110311,615.445130110311,415.445130110311,615.445130110311,784.554869889689,0,0,4,0,horizontal,vertical,horizontal,vertical
3b,6,100324,4,16,160,18,F,blocked,constant,homogeneous,4,present,0.421539068222046,0,horizontal,vertical,1,8,red,2,3,984.554869889689,415.445130110311,615.445130110311,415.445130110311,984.554869889689,784.554869889689,984.554869889689,415.445130110311,615.445130110311,415.445130110311,615.445130110311,784.554869889689,0,4,0,0,horizontal,horizontal,vertical,horizontal
3b,6,100324,4,17,161,18,F,blocked,constant,homogeneous,4,present,0.857920169830322,0,vertical,horizontal,1,8,red,3,1,615.445130110311,415.445130110311,984.554869889689,784.554869889689,984.554869889689,784.554869889689,984.554869889689,415.445130110311,615.445130110311,415.445130110311,615.445130110311,784.554869889689,0,0,4,0,horizontal,vertical,vertical,horizontal
3b,6,100324,4,18,162,18,F,blocked,constant,homogeneous,4,absent,0.526669979095459,1,vertical,vertical,1,2,red,3,NaN,615.445130110311,415.445130110311,NaN,NaN,984.554869889689,784.554869889689,984.554869889689,415.445130110311,615.445130110311,415.445130110311,615.445130110311,784.554869889689,0,0,4,0,vertical,vertical,vertical,vertical
3b,6,100324,4,19,163,18,F,blocked,constant,homogeneous,4,present,0.698762178421021,1,horizontal,horizontal,1,3,red,3,4,615.445130110311,415.445130110311,615.445130110311,784.554869889689,984.554869889689,784.554869889689,984.554869889689,415.445130110311,615.445130110311,415.445130110311,615.445130110311,784.554869889689,0,0,4,0,vertical,horizontal,horizontal,horizontal
3b,6,100324,4,20,164,18,F,blocked,constant,homogeneous,4,absent,0.926981210708618,1,horizontal,horizontal,1,2,red,2,NaN,984.554869889689,415.445130110311,NaN,NaN,984.554869889689,784.554869889689,984.554869889689,415.445130110311,615.445130110311,415.445130110311,615.445130110311,784.554869889689,0,4,0,0,horizontal,horizontal,vertical,horizontal
3b,6,100324,4,21,165,18,F,blocked,constant,homogeneous,4,absent,0.731642007827759,1,vertical,vertical,1,5,red,1,NaN,984.554869889689,784.554869889689,NaN,NaN,984.554869889689,784.554869889689,984.554869889689,415.445130110311,615.445130110311,415.445130110311,615.445130110311,784.554869889689,4,0,0,0,vertical,horizontal,horizontal,horizontal
3b,6,100324,4,22,166,18,F,blocked,constant,homogeneous,4,absent,0.743820190429688,1,horizontal,horizontal,1,5,red,4,NaN,615.445130110311,784.554869889689,NaN,NaN,984.554869889689,784.554869889689,984.554869889689,415.445130110311,615.445130110311,415.445130110311,615.445130110311,784.554869889689,0,0,0,4,vertical,horizontal,vertical,horizontal
3b,6,100324,4,23,167,18,F,blocked,constant,homogeneous,4,present,0.828242063522339,1,horizontal,horizontal,1,8,red,3,1,615.445130110311,415.445130110311,984.554869889689,784.554869889689,984.554869889689,784.554869889689,984.554869889689,415.445130110311,615.445130110311,415.445130110311,615.445130110311,784.554869889689,0,0,4,0,vertical,vertical,horizontal,vertical
3b,6,100324,4,24,168,18,F,blocked,constant,homogeneous,4,present,1.32835912704468,1,vertical,vertical,1,2,red,3,2,615.445130110311,415.445130110311,984.554869889689,415.445130110311,984.554869889689,784.554869889689,984.554869889689,415.445130110311,615.445130110311,415.445130110311,615.445130110311,784.554869889689,0,0,4,0,horizontal,vertical,vertical,horizontal
3b,6,100324,4,25,169,18,F,blocked,constant,homogeneous,4,present,0.868708848953247,0,vertical,horizontal,1,2,red,1,3,984.554869889689,784.554869889689,615.445130110311,415.445130110311,984.554869889689,784.554869889689,984.554869889689,415.445130110311,615.445130110311,415.445130110311,615.445130110311,784.554869889689,4,0,0,0,vertical,horizontal,horizontal,vertical
3b,6,100324,4,26,170,18,F,blocked,constant,homogeneous,4,present,0.904997110366821,1,vertical,vertical,1,2,red,2,4,984.554869889689,415.445130110311,615.445130110311,784.554869889689,984.554869889689,784.554869889689,984.554869889689,415.445130110311,615.445130110311,415.445130110311,615.445130110311,784.554869889689,0,4,0,0,vertical,vertical,vertical,horizontal
3b,6,100324,4,27,171,18,F,blocked,constant,homogeneous,4,present,0.981468915939331,1,vertical,vertical,1,5,red,1,4,984.554869889689,784.554869889689,615.445130110311,784.554869889689,984.554869889689,784.554869889689,984.554869889689,415.445130110311,615.445130110311,415.445130110311,615.445130110311,784.554869889689,4,0,0,0,vertical,vertical,horizontal,horizontal
3b,6,100324,4,28,172,18,F,blocked,constant,homogeneous,4,present,0.561644792556763,0,vertical,horizontal,1,5,red,1,3,984.554869889689,784.554869889689,615.445130110311,415.445130110311,984.554869889689,784.554869889689,984.554869889689,415.445130110311,615.445130110311,415.445130110311,615.445130110311,784.554869889689,4,0,0,0,vertical,vertical,vertical,vertical
3b,6,100324,4,29,173,18,F,blocked,constant,homogeneous,4,absent,1.57418417930603,0,vertical,horizontal,1,2,red,3,NaN,615.445130110311,415.445130110311,NaN,NaN,984.554869889689,784.554869889689,984.554869889689,415.445130110311,615.445130110311,415.445130110311,615.445130110311,784.554869889689,0,0,4,0,vertical,vertical,vertical,horizontal
3b,6,100324,4,30,174,18,F,blocked,constant,homogeneous,4,absent,0.818396091461182,1,vertical,vertical,1,3,red,1,NaN,984.554869889689,784.554869889689,NaN,NaN,984.554869889689,784.554869889689,984.554869889689,415.445130110311,615.445130110311,415.445130110311,615.445130110311,784.554869889689,4,0,0,0,vertical,horizontal,vertical,horizontal
3b,6,100324,4,31,175,18,F,blocked,constant,homogeneous,4,present,1.17496109008789,1,horizontal,horizontal,1,2,red,4,2,615.445130110311,784.554869889689,984.554869889689,415.445130110311,984.554869889689,784.554869889689,984.554869889689,415.445130110311,615.445130110311,415.445130110311,615.445130110311,784.554869889689,0,0,0,4,vertical,vertical,horizontal,horizontal
3b,6,100324,4,32,176,18,F,blocked,constant,homogeneous,4,present,0.642919063568115,1,horizontal,horizontal,1,5,red,2,1,984.554869889689,415.445130110311,984.554869889689,784.554869889689,984.554869889689,784.554869889689,984.554869889689,415.445130110311,615.445130110311,415.445130110311,615.445130110311,784.554869889689,0,4,0,0,vertical,horizontal,horizontal,vertical
3b,6,100324,4,33,177,18,F,blocked,constant,homogeneous,4,present,1.04745888710022,1,vertical,vertical,1,2,red,1,2,984.554869889689,784.554869889689,984.554869889689,415.445130110311,984.554869889689,784.554869889689,984.554869889689,415.445130110311,615.445130110311,415.445130110311,615.445130110311,784.554869889689,4,0,0,0,vertical,vertical,vertical,horizontal
3b,6,100324,4,34,178,18,F,blocked,constant,homogeneous,4,present,0.923658847808838,1,horizontal,horizontal,1,2,red,1,3,984.554869889689,784.554869889689,615.445130110311,415.445130110311,984.554869889689,784.554869889689,984.554869889689,415.445130110311,615.445130110311,415.445130110311,615.445130110311,784.554869889689,4,0,0,0,horizontal,horizontal,horizontal,vertical
3b,6,100324,4,35,179,18,F,blocked,constant,homogeneous,4,absent,0.832092046737671,1,vertical,vertical,1,8,red,4,NaN,615.445130110311,784.554869889689,NaN,NaN,984.554869889689,784.554869889689,984.554869889689,415.445130110311,615.445130110311,415.445130110311,615.445130110311,784.554869889689,0,0,0,4,horizontal,vertical,vertical,vertical
3b,6,100324,4,36,180,18,F,blocked,constant,homogeneous,4,absent,1.49265098571777,1,horizontal,horizontal,1,2,red,4,NaN,615.445130110311,784.554869889689,NaN,NaN,984.554869889689,784.554869889689,984.554869889689,415.445130110311,615.445130110311,415.445130110311,615.445130110311,784.554869889689,0,0,0,4,vertical,horizontal,horizontal,horizontal
3b,6,100324,4,37,181,18,F,blocked,constant,homogeneous,4,absent,0.75279688835144,1,vertical,vertical,1,5,red,2,NaN,984.554869889689,415.445130110311,NaN,NaN,984.554869889689,784.554869889689,984.554869889689,415.445130110311,615.445130110311,415.445130110311,615.445130110311,784.554869889689,0,4,0,0,vertical,vertical,horizontal,vertical
3b,6,100324,4,38,182,18,F,blocked,constant,homogeneous,4,absent,0.861236095428467,1,vertical,vertical,1,3,red,3,NaN,615.445130110311,415.445130110311,NaN,NaN,984.554869889689,784.554869889689,984.554869889689,415.445130110311,615.445130110311,415.445130110311,615.445130110311,784.554869889689,0,0,4,0,horizontal,horizontal,vertical,vertical
3b,6,100324,4,39,183,18,F,blocked,constant,homogeneous,4,present,1.40125894546509,1,vertical,vertical,1,3,red,1,3,984.554869889689,784.554869889689,615.445130110311,415.445130110311,984.554869889689,784.554869889689,984.554869889689,415.445130110311,615.445130110311,415.445130110311,615.445130110311,784.554869889689,4,0,0,0,vertical,horizontal,vertical,horizontal
3b,6,100324,4,40,184,18,F,blocked,constant,homogeneous,4,present,1.76579713821411,1,vertical,vertical,1,5,red,1,2,984.554869889689,784.554869889689,984.554869889689,415.445130110311,984.554869889689,784.554869889689,984.554869889689,415.445130110311,615.445130110311,415.445130110311,615.445130110311,784.554869889689,4,0,0,0,vertical,horizontal,vertical,vertical
3b,6,100324,4,41,185,18,F,blocked,constant,homogeneous,4,absent,0.786057949066162,1,horizontal,horizontal,1,3,red,2,NaN,984.554869889689,415.445130110311,NaN,NaN,984.554869889689,784.554869889689,984.554869889689,415.445130110311,615.445130110311,415.445130110311,615.445130110311,784.554869889689,0,4,0,0,horizontal,horizontal,vertical,horizontal
3b,6,100324,4,42,186,18,F,blocked,constant,homogeneous,4,present,1.58255386352539,0,horizontal,vertical,1,5,red,4,3,615.445130110311,784.554869889689,615.445130110311,415.445130110311,984.554869889689,784.554869889689,984.554869889689,415.445130110311,615.445130110311,415.445130110311,615.445130110311,784.554869889689,0,0,0,4,vertical,vertical,horizontal,horizontal
3b,6,100324,4,43,187,18,F,blocked,constant,homogeneous,4,absent,0.714773893356323,1,horizontal,horizontal,1,3,red,3,NaN,615.445130110311,415.445130110311,NaN,NaN,984.554869889689,784.554869889689,984.554869889689,415.445130110311,615.445130110311,415.445130110311,615.445130110311,784.554869889689,0,0,4,0,horizontal,vertical,horizontal,vertical
3b,6,100324,4,44,188,18,F,blocked,constant,homogeneous,4,present,1.17522597312927,1,horizontal,horizontal,1,3,red,3,2,615.445130110311,415.445130110311,984.554869889689,415.445130110311,984.554869889689,784.554869889689,984.554869889689,415.445130110311,615.445130110311,415.445130110311,615.445130110311,784.554869889689,0,0,4,0,vertical,vertical,horizontal,horizontal
3b,6,100324,4,45,189,18,F,blocked,constant,homogeneous,4,present,NaN,0,horizontal,none,0,3,red,1,4,984.554869889689,784.554869889689,615.445130110311,784.554869889689,984.554869889689,784.554869889689,984.554869889689,415.445130110311,615.445130110311,415.445130110311,615.445130110311,784.554869889689,4,0,0,0,horizontal,vertical,horizontal,horizontal
3b,6,100324,4,46,190,18,F,blocked,constant,homogeneous,4,present,1.23174786567688,1,horizontal,horizontal,1,3,red,1,4,984.554869889689,784.554869889689,615.445130110311,784.554869889689,984.554869889689,784.554869889689,984.554869889689,415.445130110311,615.445130110311,415.445130110311,615.445130110311,784.554869889689,4,0,0,0,horizontal,horizontal,horizontal,horizontal
3b,6,100324,4,47,191,18,F,blocked,constant,homogeneous,4,present,0.635993957519531,0,vertical,horizontal,1,5,red,2,3,984.554869889689,415.445130110311,615.445130110311,415.445130110311,984.554869889689,784.554869889689,984.554869889689,415.445130110311,615.445130110311,415.445130110311,615.445130110311,784.554869889689,0,4,0,0,horizontal,vertical,horizontal,horizontal
3b,6,100324,4,48,192,18,F,blocked,constant,homogeneous,4,present,1.36040687561035,1,vertical,vertical,1,2,red,2,4,984.554869889689,415.445130110311,615.445130110311,784.554869889689,984.554869889689,784.554869889689,984.554869889689,415.445130110311,615.445130110311,415.445130110311,615.445130110311,784.554869889689,0,4,0,0,horizontal,vertical,vertical,horizontal
3b,6,100324,5,1,193,18,F,blocked,constant,homogeneous,4,present,1.22686696052551,1,vertical,vertical,1,5,red,3,4,615.445130110311,415.445130110311,615.445130110311,784.554869889689,984.554869889689,784.554869889689,984.554869889689,415.445130110311,615.445130110311,415.445130110311,615.445130110311,784.554869889689,0,0,4,0,horizontal,horizontal,vertical,horizontal
3b,6,100324,5,2,194,18,F,blocked,constant,homogeneous,4,absent,1.40732002258301,1,vertical,vertical,1,2,red,1,NaN,984.554869889689,784.554869889689,NaN,NaN,984.554869889689,784.554869889689,984.554869889689,415.445130110311,615.445130110311,415.445130110311,615.445130110311,784.554869889689,4,0,0,0,vertical,vertical,vertical,horizontal
3b,6,100324,5,3,195,18,F,blocked,constant,homogeneous,4,present,0.779712915420532,1,horizontal,horizontal,1,5,red,2,3,984.554869889689,415.445130110311,615.445130110311,415.445130110311,984.554869889689,784.554869889689,984.554869889689,415.445130110311,615.445130110311,415.445130110311,615.445130110311,784.554869889689,0,4,0,0,horizontal,horizontal,horizontal,vertical
3b,6,100324,5,4,196,18,F,blocked,constant,homogeneous,4,absent,0.90399694442749,1,horizontal,horizontal,1,5,red,3,NaN,615.445130110311,415.445130110311,NaN,NaN,984.554869889689,784.554869889689,984.554869889689,415.445130110311,615.445130110311,415.445130110311,615.445130110311,784.554869889689,0,0,4,0,vertical,vertical,horizontal,vertical
3b,6,100324,5,5,197,18,F,blocked,constant,homogeneous,4,present,1.33221983909607,1,vertical,vertical,1,5,red,3,4,615.445130110311,415.445130110311,615.445130110311,784.554869889689,984.554869889689,784.554869889689,984.554869889689,415.445130110311,615.445130110311,415.445130110311,615.445130110311,784.554869889689,0,0,4,0,vertical,vertical,vertical,horizontal
3b,6,100324,5,6,198,18,F,blocked,constant,homogeneous,4,present,1.71258091926575,1,horizontal,horizontal,1,5,red,4,1,615.445130110311,784.554869889689,984.554869889689,784.554869889689,984.554869889689,784.554869889689,984.554869889689,415.445130110311,615.445130110311,415.445130110311,615.445130110311,784.554869889689,0,0,0,4,vertical,vertical,horizontal,horizontal
3b,6,100324,5,7,199,18,F,blocked,constant,homogeneous,4,present,1.90096116065979,1,vertical,vertical,1,5,red,4,1,615.445130110311,784.554869889689,984.554869889689,784.554869889689,984.554869889689,784.554869889689,984.554869889689,415.445130110311,615.445130110311,415.445130110311,615.445130110311,784.554869889689,0,0,0,4,horizontal,horizontal,vertical,vertical
3b,6,100324,5,8,200,18,F,blocked,constant,homogeneous,4,present,0.801393032073975,1,vertical,vertical,1,2,red,3,4,615.445130110311,415.445130110311,615.445130110311,784.554869889689,984.554869889689,784.554869889689,984.554869889689,415.445130110311,615.445130110311,415.445130110311,615.445130110311,784.554869889689,0,0,4,0,vertical,vertical,vertical,horizontal
3b,6,100324,5,9,201,18,F,blocked,constant,homogeneous,4,present,0.581685066223145,1,horizontal,horizontal,1,2,red,3,1,615.445130110311,415.445130110311,984.554869889689,784.554869889689,984.554869889689,784.554869889689,984.554869889689,415.445130110311,615.445130110311,415.445130110311,615.445130110311,784.554869889689,0,0,4,0,vertical,horizontal,horizontal,vertical
3b,6,100324,5,10,202,18,F,blocked,constant,homogeneous,4,absent,1.19399619102478,1,horizontal,horizontal,1,2,red,1,NaN,984.554869889689,784.554869889689,NaN,NaN,984.554869889689,784.554869889689,984.554869889689,415.445130110311,615.445130110311,415.445130110311,615.445130110311,784.554869889689,4,0,0,0,horizontal,horizontal,horizontal,horizontal
3b,6,100324,5,11,203,18,F,blocked,constant,homogeneous,4,present,1.11021494865417,1,horizontal,horizontal,1,5,red,1,4,984.554869889689,784.554869889689,615.445130110311,784.554869889689,984.554869889689,784.554869889689,984.554869889689,415.445130110311,615.445130110311,415.445130110311,615.445130110311,784.554869889689,4,0,0,0,horizontal,vertical,vertical,vertical
3b,6,100324,5,12,204,18,F,blocked,constant,homogeneous,4,present,1.24249196052551,1,horizontal,horizontal,1,2,red,4,1,615.445130110311,784.554869889689,984.554869889689,784.554869889689,984.554869889689,784.554869889689,984.554869889689,415.445130110311,615.445130110311,415.445130110311,615.445130110311,784.554869889689,0,0,0,4,vertical,horizontal,vertical,horizontal
3b,6,100324,5,13,205,18,F,blocked,constant,homogeneous,4,present,0.670800924301147,1,horizontal,horizontal,1,2,red,2,4,984.554869889689,415.445130110311,615.445130110311,784.554869889689,984.554869889689,784.554869889689,984.554869889689,415.445130110311,615.445130110311,415.445130110311,615.445130110311,784.554869889689,0,4,0,0,vertical,horizontal,vertical,vertical
3b,6,100324,5,14,206,18,F,blocked,constant,homogeneous,4,absent,1.07510900497437,1,vertical,vertical,1,2,red,1,NaN,984.554869889689,784.554869889689,NaN,NaN,984.554869889689,784.554869889689,984.554869889689,415.445130110311,615.445130110311,415.445130110311,615.445130110311,784.554869889689,4,0,0,0,vertical,horizontal,horizontal,vertical
3b,6,100324,5,15,207,18,F,blocked,constant,homogeneous,4,present,0.855662107467651,1,horizontal,horizontal,1,2,red,4,3,615.445130110311,784.554869889689,615.445130110311,415.445130110311,984.554869889689,784.554869889689,984.554869889689,415.445130110311,615.445130110311,415.445130110311,615.445130110311,784.554869889689,0,0,0,4,vertical,vertical,vertical,horizontal
3b,6,100324,5,16,208,18,F,blocked,constant,homogeneous,4,present,0.691738128662109,1,vertical,vertical,1,3,red,4,3,615.445130110311,784.554869889689,615.445130110311,415.445130110311,984.554869889689,784.554869889689,984.554869889689,415.445130110311,615.445130110311,415.445130110311,615.445130110311,784.554869889689,0,0,0,4,vertical,horizontal,horizontal,vertical
3b,6,100324,5,17,209,18,F,blocked,constant,homogeneous,4,present,1.04806590080261,1,vertical,vertical,1,8,red,4,1,615.445130110311,784.554869889689,984.554869889689,784.554869889689,984.554869889689,784.554869889689,984.554869889689,415.445130110311,615.445130110311,415.445130110311,615.445130110311,784.554869889689,0,0,0,4,horizontal,vertical,vertical,vertical
3b,6,100324,5,18,210,18,F,blocked,constant,homogeneous,4,present,0.788811922073364,1,horizontal,horizontal,1,3,red,4,1,615.445130110311,784.554869889689,984.554869889689,784.554869889689,984.554869889689,784.554869889689,984.554869889689,415.445130110311,615.445130110311,415.445130110311,615.445130110311,784.554869889689,0,0,0,4,horizontal,vertical,vertical,horizontal
3b,6,100324,5,19,211,18,F,blocked,constant,homogeneous,4,present,0.880712032318115,1,vertical,vertical,1,3,red,1,3,984.554869889689,784.554869889689,615.445130110311,415.445130110311,984.554869889689,784.554869889689,984.554869889689,415.445130110311,615.445130110311,415.445130110311,615.445130110311,784.554869889689,4,0,0,0,vertical,vertical,vertical,horizontal
3b,6,100324,5,20,212,18,F,blocked,constant,homogeneous,4,present,1.19733381271362,1,vertical,vertical,1,3,red,2,1,984.554869889689,415.445130110311,984.554869889689,784.554869889689,984.554869889689,784.554869889689,984.554869889689,415.445130110311,615.445130110311,415.445130110311,615.445130110311,784.554869889689,0,4,0,0,horizontal,vertical,vertical,vertical
3b,6,100324,5,21,213,18,F,blocked,constant,homogeneous,4,absent,1.24949407577515,1,vertical,vertical,1,2,red,2,NaN,984.554869889689,415.445130110311,NaN,NaN,984.554869889689,784.554869889689,984.554869889689,415.445130110311,615.445130110311,415.445130110311,615.445130110311,784.554869889689,0,4,0,0,vertical,vertical,horizontal,vertical
3b,6,100324,5,22,214,18,F,blocked,constant,homogeneous,4,present,0.997935056686401,1,vertical,vertical,1,2,red,4,1,615.445130110311,784.554869889689,984.554869889689,784.554869889689,984.554869889689,784.554869889689,984.554869889689,415.445130110311,615.445130110311,415.445130110311,615.445130110311,784.554869889689,0,0,0,4,horizontal,vertical,horizontal,vertical
3b,6,100324,5,23,215,18,F,blocked,constant,homogeneous,4,present,1.22593092918396,0,horizontal,vertical,1,2,red,4,1,615.445130110311,784.554869889689,984.554869889689,784.554869889689,984.554869889689,784.554869889689,984.554869889689,415.445130110311,615.445130110311,415.445130110311,615.445130110311,784.554869889689,0,0,0,4,horizontal,vertical,horizontal,horizontal
3b,6,100324,5,24,216,18,F,blocked,constant,homogeneous,4,present,0.494472026824951,0,vertical,horizontal,1,2,red,4,2,615.445130110311,784.554869889689,984.554869889689,415.445130110311,984.554869889689,784.554869889689,984.554869889689,415.445130110311,615.445130110311,415.445130110311,615.445130110311,784.554869889689,0,0,0,4,vertical,horizontal,horizontal,vertical
3b,6,100324,5,25,217,18,F,blocked,constant,homogeneous,4,present,0.738641023635864,1,vertical,vertical,1,2,red,4,1,615.445130110311,784.554869889689,984.554869889689,784.554869889689,984.554869889689,784.554869889689,984.554869889689,415.445130110311,615.445130110311,415.445130110311,615.445130110311,784.554869889689,0,0,0,4,vertical,horizontal,vertical,vertical
3b,6,100324,5,26,218,18,F,blocked,constant,homogeneous,4,absent,1.59882402420044,1,vertical,vertical,1,5,red,4,NaN,615.445130110311,784.554869889689,NaN,NaN,984.554869889689,784.554869889689,984.554869889689,415.445130110311,615.445130110311,415.445130110311,615.445130110311,784.554869889689,0,0,0,4,horizontal,horizontal,vertical,vertical
3b,6,100324,5,27,219,18,F,blocked,constant,homogeneous,4,present,1.69135308265686,1,horizontal,horizontal,1,3,red,3,2,615.445130110311,415.445130110311,984.554869889689,415.445130110311,984.554869889689,784.554869889689,984.554869889689,415.445130110311,615.445130110311,415.445130110311,615.445130110311,784.554869889689,0,0,4,0,vertical,vertical,horizontal,horizontal
3b,6,100324,5,28,220,18,F,blocked,constant,homogeneous,4,absent,0.671736001968384,1,horizontal,horizontal,1,8,red,4,NaN,615.445130110311,784.554869889689,NaN,NaN,984.554869889689,784.554869889689,984.554869889689,415.445130110311,615.445130110311,415.445130110311,615.445130110311,784.554869889689,0,0,0,4,horizontal,vertical,vertical,horizontal
3b,6,100324,5,29,221,18,F,blocked,constant,homogeneous,4,present,1.24398398399353,1,horizontal,horizontal,1,5,red,3,4,615.445130110311,415.445130110311,615.445130110311,784.554869889689,984.554869889689,784.554869889689,984.554869889689,415.445130110311,615.445130110311,415.445130110311,615.445130110311,784.554869889689,0,0,4,0,horizontal,horizontal,horizontal,vertical
3b,6,100324,5,30,222,18,F,blocked,constant,homogeneous,4,present,0.952559232711792,1,vertical,vertical,1,3,red,1,2,984.554869889689,784.554869889689,984.554869889689,415.445130110311,984.554869889689,784.554869889689,984.554869889689,415.445130110311,615.445130110311,415.445130110311,615.445130110311,784.554869889689,4,0,0,0,vertical,vertical,vertical,horizontal
3b,6,100324,5,31,223,18,F,blocked,constant,homogeneous,4,present,1.74067711830139,1,vertical,vertical,1,2,red,4,3,615.445130110311,784.554869889689,615.445130110311,415.445130110311,984.554869889689,784.554869889689,984.554869889689,415.445130110311,615.445130110311,415.445130110311,615.445130110311,784.554869889689,0,0,0,4,horizontal,horizontal,horizontal,vertical
3b,6,100324,5,32,224,18,F,blocked,constant,homogeneous,4,present,0.737051963806152,1,horizontal,horizontal,1,8,red,2,4,984.554869889689,415.445130110311,615.445130110311,784.554869889689,984.554869889689,784.554869889689,984.554869889689,415.445130110311,615.445130110311,415.445130110311,615.445130110311,784.554869889689,0,4,0,0,vertical,horizontal,vertical,vertical
3b,6,100324,5,33,225,18,F,blocked,constant,homogeneous,4,absent,1.17327094078064,0,vertical,horizontal,1,8,red,1,NaN,984.554869889689,784.554869889689,NaN,NaN,984.554869889689,784.554869889689,984.554869889689,415.445130110311,615.445130110311,415.445130110311,615.445130110311,784.554869889689,4,0,0,0,vertical,vertical,horizontal,vertical
3b,6,100324,5,34,226,18,F,blocked,constant,homogeneous,4,absent,1.04180097579956,0,vertical,horizontal,1,5,red,4,NaN,615.445130110311,784.554869889689,NaN,NaN,984.554869889689,784.554869889689,984.554869889689,415.445130110311,615.445130110311,415.445130110311,615.445130110311,784.554869889689,0,0,0,4,vertical,vertical,vertical,vertical
3b,6,100324,5,35,227,18,F,blocked,constant,homogeneous,4,present,0.47815203666687,1,horizontal,horizontal,1,3,red,2,1,984.554869889689,415.445130110311,984.554869889689,784.554869889689,984.554869889689,784.554869889689,984.554869889689,415.445130110311,615.445130110311,415.445130110311,615.445130110311,784.554869889689,0,4,0,0,horizontal,horizontal,horizontal,horizontal
3b,6,100324,5,36,228,18,F,blocked,constant,homogeneous,4,present,0.522458076477051,0,vertical,horizontal,1,5,red,3,4,615.445130110311,415.445130110311,615.445130110311,784.554869889689,984.554869889689,784.554869889689,984.554869889689,415.445130110311,615.445130110311,415.445130110311,615.445130110311,784.554869889689,0,0,4,0,horizontal,vertical,vertical,vertical
3b,6,100324,5,37,229,18,F,blocked,constant,homogeneous,4,present,1.95095491409302,1,vertical,vertical,1,8,red,4,2,615.445130110311,784.554869889689,984.554869889689,415.445130110311,984.554869889689,784.554869889689,984.554869889689,415.445130110311,615.445130110311,415.445130110311,615.445130110311,784.554869889689,0,0,0,4,vertical,horizontal,horizontal,vertical
3b,6,100324,5,38,230,18,F,blocked,constant,homogeneous,4,absent,0.52327299118042,1,horizontal,horizontal,1,5,red,2,NaN,984.554869889689,415.445130110311,NaN,NaN,984.554869889689,784.554869889689,984.554869889689,415.445130110311,615.445130110311,415.445130110311,615.445130110311,784.554869889689,0,4,0,0,horizontal,horizontal,horizontal,horizontal
3b,6,100324,5,39,231,18,F,blocked,constant,homogeneous,4,present,0.719702005386353,1,horizontal,horizontal,1,8,red,2,4,984.554869889689,415.445130110311,615.445130110311,784.554869889689,984.554869889689,784.554869889689,984.554869889689,415.445130110311,615.445130110311,415.445130110311,615.445130110311,784.554869889689,0,4,0,0,horizontal,horizontal,horizontal,horizontal
3b,6,100324,5,40,232,18,F,blocked,constant,homogeneous,4,present,1.92417192459106,1,vertical,vertical,1,2,red,3,1,615.445130110311,415.445130110311,984.554869889689,784.554869889689,984.554869889689,784.554869889689,984.554869889689,415.445130110311,615.445130110311,415.445130110311,615.445130110311,784.554869889689,0,0,4,0,vertical,vertical,vertical,horizontal
3b,6,100324,5,41,233,18,F,blocked,constant,homogeneous,4,present,0.968600988388062,1,horizontal,horizontal,1,2,red,2,4,984.554869889689,415.445130110311,615.445130110311,784.554869889689,984.554869889689,784.554869889689,984.554869889689,415.445130110311,615.445130110311,415.445130110311,615.445130110311,784.554869889689,0,4,0,0,vertical,horizontal,vertical,vertical
3b,6,100324,5,42,234,18,F,blocked,constant,homogeneous,4,present,0.820797920227051,1,horizontal,horizontal,1,3,red,1,3,984.554869889689,784.554869889689,615.445130110311,415.445130110311,984.554869889689,784.554869889689,984.554869889689,415.445130110311,615.445130110311,415.445130110311,615.445130110311,784.554869889689,4,0,0,0,horizontal,horizontal,horizontal,horizontal
3b,6,100324,5,43,235,18,F,blocked,constant,homogeneous,4,absent,0.680768966674805,1,horizontal,horizontal,1,2,red,2,NaN,984.554869889689,415.445130110311,NaN,NaN,984.554869889689,784.554869889689,984.554869889689,415.445130110311,615.445130110311,415.445130110311,615.445130110311,784.554869889689,0,4,0,0,horizontal,horizontal,horizontal,vertical
3b,6,100324,5,44,236,18,F,blocked,constant,homogeneous,4,absent,1.73337507247925,1,vertical,vertical,1,3,red,4,NaN,615.445130110311,784.554869889689,NaN,NaN,984.554869889689,784.554869889689,984.554869889689,415.445130110311,615.445130110311,415.445130110311,615.445130110311,784.554869889689,0,0,0,4,horizontal,horizontal,horizontal,vertical
3b,6,100324,5,45,237,18,F,blocked,constant,homogeneous,4,absent,0.745632886886597,1,horizontal,horizontal,1,2,red,2,NaN,984.554869889689,415.445130110311,NaN,NaN,984.554869889689,784.554869889689,984.554869889689,415.445130110311,615.445130110311,415.445130110311,615.445130110311,784.554869889689,0,4,0,0,vertical,horizontal,vertical,vertical
3b,6,100324,5,46,238,18,F,blocked,constant,homogeneous,4,absent,1.6539261341095,1,vertical,vertical,1,3,red,1,NaN,984.554869889689,784.554869889689,NaN,NaN,984.554869889689,784.554869889689,984.554869889689,415.445130110311,615.445130110311,415.445130110311,615.445130110311,784.554869889689,4,0,0,0,vertical,vertical,vertical,horizontal
3b,6,100324,5,47,239,18,F,blocked,constant,homogeneous,4,absent,0.562164068222046,1,horizontal,horizontal,1,3,red,2,NaN,984.554869889689,415.445130110311,NaN,NaN,984.554869889689,784.554869889689,984.554869889689,415.445130110311,615.445130110311,415.445130110311,615.445130110311,784.554869889689,0,4,0,0,horizontal,horizontal,horizontal,horizontal
3b,6,100324,5,48,240,18,F,blocked,constant,homogeneous,4,absent,0.462406873703003,1,horizontal,horizontal,1,3,red,3,NaN,615.445130110311,415.445130110311,NaN,NaN,984.554869889689,784.554869889689,984.554869889689,415.445130110311,615.445130110311,415.445130110311,615.445130110311,784.554869889689,0,0,4,0,horizontal,horizontal,horizontal,horizontal
3b,6,100324,6,1,241,18,F,blocked,constant,homogeneous,4,absent,0.795566082000732,1,horizontal,horizontal,1,3,red,2,NaN,984.554869889689,415.445130110311,NaN,NaN,984.554869889689,784.554869889689,984.554869889689,415.445130110311,615.445130110311,415.445130110311,615.445130110311,784.554869889689,0,4,0,0,vertical,horizontal,vertical,horizontal
3b,6,100324,6,2,242,18,F,blocked,constant,homogeneous,4,absent,NaN,0,vertical,none,0,2,red,1,NaN,984.554869889689,784.554869889689,NaN,NaN,984.554869889689,784.554869889689,984.554869889689,415.445130110311,615.445130110311,415.445130110311,615.445130110311,784.554869889689,4,0,0,0,vertical,vertical,vertical,horizontal
3b,6,100324,6,3,243,18,F,blocked,constant,homogeneous,4,present,0.612308979034424,1,horizontal,horizontal,1,2,red,1,4,984.554869889689,784.554869889689,615.445130110311,784.554869889689,984.554869889689,784.554869889689,984.554869889689,415.445130110311,615.445130110311,415.445130110311,615.445130110311,784.554869889689,4,0,0,0,horizontal,horizontal,horizontal,vertical
3b,6,100324,6,4,244,18,F,blocked,constant,homogeneous,4,present,0.688860177993774,1,horizontal,horizontal,1,5,red,4,1,615.445130110311,784.554869889689,984.554869889689,784.554869889689,984.554869889689,784.554869889689,984.554869889689,415.445130110311,615.445130110311,415.445130110311,615.445130110311,784.554869889689,0,0,0,4,vertical,horizontal,vertical,horizontal
3b,6,100324,6,5,245,18,F,blocked,constant,homogeneous,4,present,0.949141025543213,1,horizontal,horizontal,1,8,red,3,1,615.445130110311,415.445130110311,984.554869889689,784.554869889689,984.554869889689,784.554869889689,984.554869889689,415.445130110311,615.445130110311,415.445130110311,615.445130110311,784.554869889689,0,0,4,0,vertical,vertical,horizontal,horizontal
3b,6,100324,6,6,246,18,F,blocked,constant,homogeneous,4,absent,1.28943395614624,0,vertical,horizontal,1,2,red,4,NaN,615.445130110311,784.554869889689,NaN,NaN,984.554869889689,784.554869889689,984.554869889689,415.445130110311,615.445130110311,415.445130110311,615.445130110311,784.554869889689,0,0,0,4,horizontal,horizontal,vertical,vertical
3b,6,100324,6,7,247,18,F,blocked,constant,homogeneous,4,present,0.66176700592041,0,vertical,horizontal,1,3,red,4,3,615.445130110311,784.554869889689,615.445130110311,415.445130110311,984.554869889689,784.554869889689,984.554869889689,415.445130110311,615.445130110311,415.445130110311,615.445130110311,784.554869889689,0,0,0,4,vertical,vertical,vertical,vertical
3b,6,100324,6,8,248,18,F,blocked,constant,homogeneous,4,absent,1.01816701889038,1,horizontal,horizontal,1,2,red,1,NaN,984.554869889689,784.554869889689,NaN,NaN,984.554869889689,784.554869889689,984.554869889689,415.445130110311,615.445130110311,415.445130110311,615.445130110311,784.554869889689,4,0,0,0,horizontal,vertical,horizontal,horizontal
3b,6,100324,6,9,249,18,F,blocked,constant,homogeneous,4,present,1.43045806884766,1,horizontal,horizontal,1,3,red,1,2,984.554869889689,784.554869889689,984.554869889689,415.445130110311,984.554869889689,784.554869889689,984.554869889689,415.445130110311,615.445130110311,415.445130110311,615.445130110311,784.554869889689,4,0,0,0,horizontal,horizontal,horizontal,horizontal
3b,6,100324,6,10,250,18,F,blocked,constant,homogeneous,4,present,0.795009851455688,1,horizontal,horizontal,1,2,red,1,2,984.554869889689,784.554869889689,984.554869889689,415.445130110311,984.554869889689,784.554869889689,984.554869889689,415.445130110311,615.445130110311,415.445130110311,615.445130110311,784.554869889689,4,0,0,0,horizontal,horizontal,vertical,vertical
3b,6,100324,6,11,251,18,F,blocked,constant,homogeneous,4,present,0.423038959503174,0,horizontal,vertical,1,5,red,4,1,615.445130110311,784.554869889689,984.554869889689,784.554869889689,984.554869889689,784.554869889689,984.554869889689,415.445130110311,615.445130110311,415.445130110311,615.445130110311,784.554869889689,0,0,0,4,vertical,horizontal,vertical,horizontal
3b,6,100324,6,12,252,18,F,blocked,constant,homogeneous,4,present,0.627578973770142,0,horizontal,vertical,1,5,red,4,2,615.445130110311,784.554869889689,984.554869889689,415.445130110311,984.554869889689,784.554869889689,984.554869889689,415.445130110311,615.445130110311,415.445130110311,615.445130110311,784.554869889689,0,0,0,4,vertical,vertical,vertical,horizontal
3b,6,100324,6,13,253,18,F,blocked,constant,homogeneous,4,present,0.447732925415039,0,vertical,horizontal,1,3,red,2,1,984.554869889689,415.445130110311,984.554869889689,784.554869889689,984.554869889689,784.554869889689,984.554869889689,415.445130110311,615.445130110311,415.445130110311,615.445130110311,784.554869889689,0,4,0,0,vertical,vertical,horizontal,vertical
3b,6,100324,6,14,254,18,F,blocked,constant,homogeneous,4,present,1.78806114196777,1,vertical,vertical,1,5,red,2,4,984.554869889689,415.445130110311,615.445130110311,784.554869889689,984.554869889689,784.554869889689,984.554869889689,415.445130110311,615.445130110311,415.445130110311,615.445130110311,784.554869889689,0,4,0,0,vertical,vertical,horizontal,vertical
3b,6,100324,6,15,255,18,F,blocked,constant,homogeneous,4,absent,1.55266785621643,1,vertical,vertical,1,8,red,2,NaN,984.554869889689,415.445130110311,NaN,NaN,984.554869889689,784.554869889689,984.554869889689,415.445130110311,615.445130110311,415.445130110311,615.445130110311,784.554869889689,0,4,0,0,horizontal,vertical,vertical,horizontal
3b,6,100324,6,16,256,18,F,blocked,constant,homogeneous,4,present,0.620841026306152,1,horizontal,horizontal,1,3,red,1,4,984.554869889689,784.554869889689,615.445130110311,784.554869889689,984.554869889689,784.554869889689,984.554869889689,415.445130110311,615.445130110311,415.445130110311,615.445130110311,784.554869889689,4,0,0,0,horizontal,vertical,vertical,horizontal
3b,6,100324,6,17,257,18,F,blocked,constant,homogeneous,4,present,NaN,0,vertical,none,0,2,red,1,3,984.554869889689,784.554869889689,615.445130110311,415.445130110311,984.554869889689,784.554869889689,984.554869889689,415.445130110311,615.445130110311,415.445130110311,615.445130110311,784.554869889689,4,0,0,0,vertical,horizontal,vertical,vertical
3b,6,100324,6,18,258,18,F,blocked,constant,homogeneous,4,absent,0.645537853240967,1,horizontal,horizontal,1,2,red,3,NaN,615.445130110311,415.445130110311,NaN,NaN,984.554869889689,784.554869889689,984.554869889689,415.445130110311,615.445130110311,415.445130110311,615.445130110311,784.554869889689,0,0,4,0,vertical,vertical,horizontal,horizontal
3b,6,100324,6,19,259,18,F,blocked,constant,homogeneous,4,present,0.609746932983398,1,horizontal,horizontal,1,3,red,1,4,984.554869889689,784.554869889689,615.445130110311,784.554869889689,984.554869889689,784.554869889689,984.554869889689,415.445130110311,615.445130110311,415.445130110311,615.445130110311,784.554869889689,4,0,0,0,horizontal,horizontal,horizontal,vertical
3b,6,100324,6,20,260,18,F,blocked,constant,homogeneous,4,absent,1.74243497848511,1,vertical,vertical,1,3,red,1,NaN,984.554869889689,784.554869889689,NaN,NaN,984.554869889689,784.554869889689,984.554869889689,415.445130110311,615.445130110311,415.445130110311,615.445130110311,784.554869889689,4,0,0,0,vertical,vertical,horizontal,horizontal
3b,6,100324,6,21,261,18,F,blocked,constant,homogeneous,4,present,0.602499961853027,1,horizontal,horizontal,1,5,red,1,2,984.554869889689,784.554869889689,984.554869889689,415.445130110311,984.554869889689,784.554869889689,984.554869889689,415.445130110311,615.445130110311,415.445130110311,615.445130110311,784.554869889689,4,0,0,0,horizontal,vertical,horizontal,vertical
3b,6,100324,6,22,262,18,F,blocked,constant,homogeneous,4,present,1.51872706413269,1,horizontal,horizontal,1,2,red,3,4,615.445130110311,415.445130110311,615.445130110311,784.554869889689,984.554869889689,784.554869889689,984.554869889689,415.445130110311,615.445130110311,415.445130110311,615.445130110311,784.554869889689,0,0,4,0,horizontal,horizontal,horizontal,horizontal
3b,6,100324,6,23,263,18,F,blocked,constant,homogeneous,4,present,1.59521698951721,1,vertical,vertical,1,3,red,1,3,984.554869889689,784.554869889689,615.445130110311,415.445130110311,984.554869889689,784.554869889689,984.554869889689,415.445130110311,615.445130110311,415.445130110311,615.445130110311,784.554869889689,4,0,0,0,vertical,vertical,vertical,vertical
3b,6,100324,6,24,264,18,F,blocked,constant,homogeneous,4,present,NaN,0,vertical,none,0,3,red,4,1,615.445130110311,784.554869889689,984.554869889689,784.554869889689,984.554869889689,784.554869889689,984.554869889689,415.445130110311,615.445130110311,415.445130110311,615.445130110311,784.554869889689,0,0,0,4,vertical,vertical,vertical,vertical
3b,6,100324,6,25,265,18,F,blocked,constant,homogeneous,4,absent,0.755935192108154,0,vertical,horizontal,1,3,red,2,NaN,984.554869889689,415.445130110311,NaN,NaN,984.554869889689,784.554869889689,984.554869889689,415.445130110311,615.445130110311,415.445130110311,615.445130110311,784.554869889689,0,4,0,0,horizontal,vertical,vertical,vertical
3b,6,100324,6,26,266,18,F,blocked,constant,homogeneous,4,present,NaN,0,vertical,none,0,2,red,1,4,984.554869889689,784.554869889689,615.445130110311,784.554869889689,984.554869889689,784.554869889689,984.554869889689,415.445130110311,615.445130110311,415.445130110311,615.445130110311,784.554869889689,4,0,0,0,vertical,vertical,horizontal,vertical
3b,6,100324,6,27,267,18,F,blocked,constant,homogeneous,4,present,0.636553049087524,0,vertical,horizontal,1,2,red,4,1,615.445130110311,784.554869889689,984.554869889689,784.554869889689,984.554869889689,784.554869889689,984.554869889689,415.445130110311,615.445130110311,415.445130110311,615.445130110311,784.554869889689,0,0,0,4,horizontal,vertical,vertical,vertical
3b,6,100324,6,28,268,18,F,blocked,constant,homogeneous,4,present,0.32066798210144,1,horizontal,horizontal,1,2,red,1,4,984.554869889689,784.554869889689,615.445130110311,784.554869889689,984.554869889689,784.554869889689,984.554869889689,415.445130110311,615.445130110311,415.445130110311,615.445130110311,784.554869889689,4,0,0,0,horizontal,vertical,horizontal,vertical
3b,6,100324,6,29,269,18,F,blocked,constant,homogeneous,4,present,0.452985048294067,0,vertical,horizontal,1,8,red,1,4,984.554869889689,784.554869889689,615.445130110311,784.554869889689,984.554869889689,784.554869889689,984.554869889689,415.445130110311,615.445130110311,415.445130110311,615.445130110311,784.554869889689,4,0,0,0,vertical,horizontal,horizontal,vertical
3b,6,100324,6,30,270,18,F,blocked,constant,homogeneous,4,present,0.889403820037842,1,vertical,vertical,1,8,red,4,2,615.445130110311,784.554869889689,984.554869889689,415.445130110311,984.554869889689,784.554869889689,984.554869889689,415.445130110311,615.445130110311,415.445130110311,615.445130110311,784.554869889689,0,0,0,4,vertical,vertical,horizontal,vertical
3b,6,100324,6,31,271,18,F,blocked,constant,homogeneous,4,present,0.965687036514282,1,vertical,vertical,1,5,red,2,1,984.554869889689,415.445130110311,984.554869889689,784.554869889689,984.554869889689,784.554869889689,984.554869889689,415.445130110311,615.445130110311,415.445130110311,615.445130110311,784.554869889689,0,4,0,0,horizontal,vertical,vertical,horizontal
3b,6,100324,6,32,272,18,F,blocked,constant,homogeneous,4,present,0.000957012176513672,1,horizontal,horizontal,1,3,red,3,1,615.445130110311,415.445130110311,984.554869889689,784.554869889689,984.554869889689,784.554869889689,984.554869889689,415.445130110311,615.445130110311,415.445130110311,615.445130110311,784.554869889689,0,0,4,0,horizontal,vertical,horizontal,horizontal
3b,6,100324,6,33,273,18,F,blocked,constant,homogeneous,4,present,0.854758977890015,1,horizontal,horizontal,1,8,red,3,2,615.445130110311,415.445130110311,984.554869889689,415.445130110311,984.554869889689,784.554869889689,984.554869889689,415.445130110311,615.445130110311,415.445130110311,615.445130110311,784.554869889689,0,0,4,0,vertical,horizontal,horizontal,vertical
3b,6,100324,6,34,274,18,F,blocked,constant,homogeneous,4,present,1.01889300346375,1,horizontal,horizontal,1,2,red,3,4,615.445130110311,415.445130110311,615.445130110311,784.554869889689,984.554869889689,784.554869889689,984.554869889689,415.445130110311,615.445130110311,415.445130110311,615.445130110311,784.554869889689,0,0,4,0,vertical,horizontal,horizontal,vertical
3b,6,100324,6,35,275,18,F,blocked,constant,homogeneous,4,present,0.719155073165894,1,vertical,vertical,1,2,red,4,3,615.445130110311,784.554869889689,615.445130110311,415.445130110311,984.554869889689,784.554869889689,984.554869889689,415.445130110311,615.445130110311,415.445130110311,615.445130110311,784.554869889689,0,0,0,4,horizontal,vertical,vertical,vertical
3b,6,100324,6,36,276,18,F,blocked,constant,homogeneous,4,absent,0.667563915252686,1,horizontal,horizontal,1,5,red,4,NaN,615.445130110311,784.554869889689,NaN,NaN,984.554869889689,784.554869889689,984.554869889689,415.445130110311,615.445130110311,415.445130110311,615.445130110311,784.554869889689,0,0,0,4,vertical,horizontal,vertical,horizontal
