sub trial_no group_type block_type prime target mask1 mask2 congruency key_press key_error time_error RT
100 17 LeftSmaller PercIExp Prime_4A Target_6A lHceBJA ijFLeAM Incongruent left correct Normal 527
100 18 LeftSmaller PercIExp Prime_6N Target_4A jeMDaLm ekagCMD Incongruent right correct Normal 259
100 19 LeftSmaller PercIExp Prime_9A Target_1N fbJMcaI bEefAKh Incongruent left error Normal 935
100 20 LeftSmaller PercIExp Prime_4A Target_1N eiLfBGJ FfLbmJH Congruent right error Normal 503
100 21 LeftSmaller PercIExp Prime_9N Target_1N iJDmFac JbdAaLC Incongruent right correct Normal 652
100 22 LeftSmaller PercIExp Prime_4N Target_9N IdmlAiH JjKalHI Incongruent left correct Normal 587
100 23 LeftSmaller PercIExp Prime_4A Target_6N MkLFaKE GFcIlfK Incongruent right error Normal 1183
100 24 LeftSmaller PercIExp Prime_4N Target_1A biAcdJj CgklGdF Congruent left correct Normal 389
100 25 LeftSmaller PercIExp Prime_1N Target_1A ifJLIhk hklbKEj Congruent right error Normal 484
100 26 LeftSmaller PercIExp Prime_9N Target_4N dbikglD mAgeDaE Incongruent right correct Normal 1068
100 27 LeftSmaller PercIExp Prime_6A Target_4A bcMDJfF gJmdcAF Incongruent left error Normal 1294
100 28 LeftSmaller PercIExp Prime_4N Target_9A bcDgAMB EdMiJKC Incongruent left correct Normal 521
100 29 LeftSmaller PercIExp Prime_6A Target_1A IbigaFl HfcbCId Incongruent right correct Normal 825
100 30 LeftSmaller PercIExp Prime_4A Target_9N kmefJMK CjEbKIf Incongruent left correct Normal 919
100 31 LeftSmaller PercIExp Prime_1A Target_1N FdEDaeM deHfakA Congruent right error Normal 950
100 32 LeftSmaller PercIExp Prime_9A Target_9A fLDgHeI EJCiKdl Congruent left error Normal 1467
100 33 LeftSmaller PercIExp Prime_1N Target_9A iIFgLKE IjbagJL Incongruent left correct Normal 604
100 34 LeftSmaller PercIExp Prime_1A Target_6N jdFhgfJ GjgfKJa Incongruent right error Normal 1215
100 35 LeftSmaller PercIExp Prime_4N Target_6N GbdeFHa jMkCGgm Incongruent left correct Normal 1047
100 36 LeftSmaller PercIExp Prime_6N Target_9N FDCGLJk CGhKfmL Congruent right correct Normal 1029
100 37 LeftSmaller PercIExp Prime_4A Target_4A beGiaLg AeajcBl Congruent right error Normal 1005
100 38 LeftSmaller PercIExp Prime_6N Target_6N LmkhEAK IcGLjhJ Congruent right correct Normal 1177
100 39 LeftSmaller PercIExp Prime_6A Target_9N DkleEIb KCcAIjH Congruent left error Normal 642
100 40 LeftSmaller PercIExp Prime_6N Target_1A HLgjBMG bJBgfhH Incongruent right correct Normal 620
100 41 LeftSmaller PercIExp Prime_4A Target_9A hdlHJFa EiIHdFC Incongruent left correct Normal 1044
100 42 LeftSmaller PercIExp Prime_4N Target_4A MALCglh aicGMjE Congruent right error Normal 1004
100 43 LeftSmaller PercIExp Prime_1A Target_1A fLieJaG MdikFJC Congruent left correct Normal 574
100 44 LeftSmaller PercIExp Prime_6N Target_4N LeMCfdJ eDdmjCK Incongruent right correct Normal 460
100 45 LeftSmaller PercIExp Prime_9A Target_9N gaKlGmf degfcCb Congruent left error Normal 1085
100 46 LeftSmaller PercIExp Prime_1N Target_1N hFdmBAH DMBiAFL Congruent right error Normal 1155
100 47 LeftSmaller PercIExp Prime_9A Target_4N mdCLbjB JDAKkFB Incongruent right correct Normal 1077
100 48 LeftSmaller PercIExp Prime_4A Target_4N KGBeDfM ckgGIBD Congruent right error Normal 955
100 49 LeftSmaller PercIExp Prime_4A Target_1A jifkHKG iMAkHeI Congruent left correct Normal 1152
100 50 LeftSmaller PercIExp Prime_6A Target_6N dCEAGfI AkdDGeI Congruent right correct Normal 829
100 51 LeftSmaller PercIExp Prime_9N Target_4A hgeBKbL BGbMmkJ Incongruent right correct Normal 592
100 52 LeftSmaller PercIExp Prime_1N Target_4A dlEJeAD BLhkgJf Congruent right error Normal 628
100 53 LeftSmaller PercIExp Prime_6A Target_4N dHJCkfb EjLDdFH Incongruent right correct Normal 736
100 54 LeftSmaller PercIExp Prime_9N Target_9N hAmlIEc KAJFMmf Congruent left error Normal 1149
100 55 LeftSmaller PercIExp Prime_1A Target_6A HiJcjEl kimeJAh Incongruent right error Normal 876
100 56 LeftSmaller PercIExp Prime_1N Target_6A LGigeKl igFbMKc Incongruent left correct Normal 896
100 57 LeftSmaller PercIExp Prime_4N Target_1N mGLDcjl clIdBKa Congruent left correct Normal 1497
100 58 LeftSmaller PercIExp Prime_9A Target_1A JhacjkG cfDGLMm Incongruent right correct Normal 498
100 59 LeftSmaller PercIExp Prime_1A Target_9N HGbcAig mKfjkLE Incongruent left correct Normal 1123
100 60 LeftSmaller PercIExp Prime_9A Target_4A HIEghLB FHkalmI Incongruent right correct Normal 1197
100 61 LeftSmaller PercIExp Prime_6A Target_6A jflDIid DJhfGmC Congruent left error Normal 1932
100 62 LeftSmaller PercIExp Prime_9N Target_6N cdJLKIg BMjHDJF Congruent right correct Normal 767
100 63 LeftSmaller PercIExp Prime_1A Target_4N jfcCMJd GcmHBMe Congruent right error Normal 812
100 64 LeftSmaller PercIExp Prime_9N Target_9A IdFJaEM dfJihBM Congruent right correct Normal 488
100 65 LeftSmaller PercIExp Prime_6N Target_1N lgDfFMC dFGkcEa Incongruent left error Normal 355
100 66 LeftSmaller PercIExp Prime_6A Target_9A fJKLFbg jgCAlaE Congruent right correct Normal 534
100 67 LeftSmaller PercIExp Prime_4N Target_6A idIBmgD fIelDkh Incongruent right error Normal 670
100 68 LeftSmaller PercIExp Prime_1N Target_9N eaAfhkH JMcekdH Incongruent left correct Normal 1090
100 69 LeftSmaller PercIExp Prime_6N Target_6A GjmclAL dgjkEMm Congruent right correct Normal 1067
100 70 LeftSmaller PercIExp Prime_9N Target_1A lFMBHAm LbKhCae Incongruent right correct Normal 555
100 71 LeftSmaller PercIExp Prime_9N Target_6A IBbFgcj ALKEicm Congruent right correct Normal 731
100 72 LeftSmaller PercIExp Prime_1A Target_4A AFJjfgi eBlkgEM Congruent right error Normal 851
100 73 LeftSmaller PercIExp Prime_6A Target_1N jLEfDdA ambJDeF Incongruent right correct Normal 773
100 74 LeftSmaller PercIExp Prime_9A Target_6N ihJFmBC FdHBclI Congruent right correct Normal 391
100 75 LeftSmaller PercIExp Prime_1A Target_9A dLEkCig mfKHGJL Incongruent right error Normal 1292
100 76 LeftSmaller PercIExp Prime_4N Target_4N hfLIMmJ jmckAlB Congruent left correct Normal 774
100 77 LeftSmaller PercIExp Prime_6N Target_9A LClFIKB jeHLkaK Congruent right correct Normal 535
100 78 LeftSmaller PercIExp Prime_1N Target_6N BkEDFMh KDgHAIc Incongruent right error Normal 1168
100 79 LeftSmaller PercIExp Prime_1N Target_4N EmeMBLd IMCcdmH Congruent left correct Normal 580
100 80 LeftSmaller PercIExp Prime_9A Target_6A HEiagFG DGjHKmc Congruent right correct Normal 1800
100 81 LeftSmaller PercIExp Prime_1A Target_6A dFDBhma MdKcjJE Incongruent right error Normal 686
100 82 LeftSmaller PercIExp Prime_9A Target_6A JfKgkDc mfDIEiB Congruent right correct Normal 729
100 83 LeftSmaller PercIExp Prime_4A Target_4N jMDclKG dEMbgCj Congruent left correct Normal 1222
100 84 LeftSmaller PercIExp Prime_6A Target_6A iCgEfem HmMehfK Congruent right correct Normal 1387
100 85 LeftSmaller PercIExp Prime_1A Target_1N fgmDhHI DgAkceI Congruent right error Normal 1446
100 86 LeftSmaller PercIExp Prime_6N Target_9N AJbgfGm BALHFgm Congruent right correct Normal 873
100 87 LeftSmaller PercIExp Prime_6A Target_9N MkhCEma hHbIgJa Congruent right correct Normal 1020
100 88 LeftSmaller PercIExp Prime_6A Target_4A jkCmhlB aijeKbA Incongruent right correct Normal 1232
100 89 LeftSmaller PercIExp Prime_4N Target_1N LkJBeDg JeLaEGH Congruent left correct Normal 998
100 90 LeftSmaller PercIExp Prime_9N Target_4A ladGIKg GgEhCJd Incongruent right correct Normal 1042
100 91 LeftSmaller PercIExp Prime_6A Target_6N KclBHmb AkegMla Congruent left error Normal 1177
100 92 LeftSmaller PercIExp Prime_9A Target_1N HjLKFai heADMfg Incongruent right correct Normal 894
100 93 LeftSmaller PercIExp Prime_4N Target_4N GIiLgHJ djchglJ Congruent right error Normal 998
100 94 LeftSmaller PercIExp Prime_1N Target_9N gLGckdf ehJKCmb Incongruent left correct Normal 811
100 95 LeftSmaller PercIExp Prime_9A Target_9N ikaDIjM AJHKfEF Congruent right correct Normal 1295
100 96 LeftSmaller PercIExp Prime_6N Target_6A JhbglCE EljKAck Congruent right correct Normal 633
100 97 LeftSmaller PercIExp Prime_4A Target_1N GDCIKfk falCBEL Congruent right error Normal 1149
100 98 LeftSmaller PercIExp Prime_9A Target_6N eGBDgbM LmeHgKj Congruent right correct Normal 1111
100 99 LeftSmaller PercIExp Prime_1A Target_9A hiFIgLK lmhMJKc Incongruent left correct Normal 935
100 100 LeftSmaller PercIExp Prime_4N Target_9A MDFhgkL cHAgjMD Incongruent left correct Normal 801
100 101 LeftSmaller PercIExp Prime_1N Target_4N IdHCiJL fMaBGLJ Congruent right error Normal 556
100 102 LeftSmaller PercIExp Prime_9N Target_1N jflIAec mJiHecA Incongruent right correct Normal 794
100 103 LeftSmaller PercIExp Prime_4A Target_1A ejMlEAi JMjACEF Congruent left correct Normal 565
100 104 LeftSmaller PercIExp Prime_1A Target_4N AKFjbDh dFkijIf Congruent left correct Normal 580
100 105 LeftSmaller PercIExp Prime_6A Target_1N MBDgIam HbhgGJi Incongruent right correct Normal 392
100 106 LeftSmaller PercIExp Prime_4N Target_6N IMKCiag FDHlBmM Incongruent right error Normal 537
100 107 LeftSmaller PercIExp Prime_1A Target_9N aIAMHCe hAMeaCF Incongruent left correct Normal 1149
100 108 LeftSmaller PercIExp Prime_4N Target_9N mdMEkhc EkMclda Incongruent left correct Normal 639
100 109 LeftSmaller PercIExp Prime_9N Target_9N IDLcKBm HJEaIMB Congruent left error Normal 584
100 110 LeftSmaller PercIExp Prime_4A Target_4A JgGDFCB BIHbLjl Congruent right error Normal 552
100 111 LeftSmaller PercIExp Prime_4A Target_6A BJbIlEm hDcjLJB Incongruent right error Normal 594
100 112 LeftSmaller PercIExp Prime_4A Target_6N IGlahLJ DEjGJKL Incongruent left correct Normal 1212
100 113 LeftSmaller PercIExp Prime_6N Target_4N dlDgbGK lKFGHMD Incongruent right correct Normal 1117
100 114 LeftSmaller PercIExp Prime_9N Target_6A gJBjAME BjbiHed Congruent right correct Normal 767
100 115 LeftSmaller PercIExp Prime_6N Target_1N liCBFdf MHdJbkL Incongruent left error Normal 491
100 116 LeftSmaller PercIExp Prime_9N Target_9A alIKiDb GDACEBF Congruent right correct Normal 730
100 117 LeftSmaller PercIExp Prime_1N Target_1A MGmecIh klLFCDM Congruent right error Normal 979
100 118 LeftSmaller PercIExp Prime_9A Target_4A EDfJBbm jkgMlBh Incongruent right correct Normal 992
100 119 LeftSmaller PercIExp Prime_4A Target_9N leJAIbH HDkdcKF Incongruent left correct Normal 799
100 120 LeftSmaller PercIExp Prime_4N Target_4A diCgfLb EgjeMAa Congruent left correct Normal 570
100 121 LeftSmaller PercIExp Prime_1A Target_4A hgLaFlk DIkEFLh Congruent right error Normal 690
100 122 LeftSmaller PercIExp Prime_1N Target_6A hMIfHcC DgEHjal Incongruent right error Normal 538
100 123 LeftSmaller PercIExp Prime_1A Target_6N fBILhGC CDfMieH Incongruent left correct Normal 1127
100 124 LeftSmaller PercIExp Prime_9A Target_4N MlbGFJC EhaefjJ Incongruent left error Normal 770
100 125 LeftSmaller PercIExp Prime_4N Target_6A kgBfFbm EJihMeG Incongruent left correct Normal 877
100 126 LeftSmaller PercIExp Prime_6A Target_1A JKHEkjh hbGeHBf Incongruent left error Normal 820
100 127 LeftSmaller PercIExp Prime_1N Target_1N ElLdhJG fdGbFcD Congruent right error Normal 437
100 128 LeftSmaller PercIExp Prime_9N Target_1A jcaeFEI jgLHAFB Incongruent left error Normal 1237
100 129 LeftSmaller PercIExp Prime_6N Target_6N gJmABab ljfIMka Congruent right correct Normal 456
100 130 LeftSmaller PercIExp Prime_6A Target_9A gkIdGaf leGECiK Congruent right correct Normal 801
100 131 LeftSmaller PercIExp Prime_1N Target_6N ifJFLAE akglecG Incongruent right error Normal 1374
100 132 LeftSmaller PercIExp Prime_9N Target_6N djmIHKc GgbEKdB Congruent left error Normal 1365
100 133 LeftSmaller PercIExp Prime_9N Target_4N CLEmiah gdHhciE Incongruent right correct Normal 1138
100 134 LeftSmaller PercIExp Prime_6N Target_4A mCIbhkl DmgAcFh Incongruent left error Normal 790
100 135 LeftSmaller PercIExp Prime_1N Target_4A DagImch BLHcCdM Congruent right error Normal 592
100 136 LeftSmaller PercIExp Prime_4A Target_9A EahdmgL DbLkihj Incongruent right error Normal 461
100 137 LeftSmaller PercIExp Prime_6N Target_9A LkJhBbd lGbMkcf Congruent right correct Normal 752
100 138 LeftSmaller PercIExp Prime_1A Target_1A BachbKM dcJjgEb Congruent right error Normal 985
100 139 LeftSmaller PercIExp Prime_6N Target_1A DmlgFBe AKmBLDh Incongruent left error Normal 899
100 140 LeftSmaller PercIExp Prime_9A Target_9A eLiEFjD ADGjFhb Congruent right correct Normal 759
100 141 LeftSmaller PercIExp Prime_6A Target_4N JjGefAb AELmMDH Incongruent left error Normal 967
100 142 LeftSmaller PercIExp Prime_9A Target_1A MiEhGlF JCmgEMe Incongruent left error Normal 1133
100 143 LeftSmaller PercIExp Prime_4N Target_1A GjeaKiF LhfkAiI Congruent right error Normal 531
100 144 LeftSmaller PercIExp Prime_1N Target_9A bgEJMih kCgDFaK Incongruent right error Normal 831
100 145 LeftSmaller PercIExp Prime_9A Target_9A GidJEBb DefJIkF Congruent left error Normal 814
100 146 LeftSmaller PercIExp Prime_9A Target_6N BilIdJK cfgBCHF Congruent right correct Normal 766
100 147 LeftSmaller PercIExp Prime_6N Target_1N lIBGDdF gAHBkGc Incongruent left error Normal 1065
100 148 LeftSmaller PercIExp Prime_4A Target_9A EHBFMck gaLMcCG Incongruent right error Normal 780
100 149 LeftSmaller PercIExp Prime_4N Target_9A mjikdeF MaFgIij Incongruent left correct Normal 699
100 150 LeftSmaller PercIExp Prime_4A Target_6N DGgKami cLbljCJ Incongruent right error Normal 423
100 151 LeftSmaller PercIExp Prime_4A Target_4A AlHhfdm hbAdEFB Congruent left correct Normal 356
100 152 LeftSmaller PercIExp Prime_1N Target_9A jAJHFel DdhGfCH Incongruent right error Normal 867
100 153 LeftSmaller PercIExp Prime_9N Target_6A AeKLdDI CLbIFkJ Congruent left error Normal 515
100 154 LeftSmaller PercIExp Prime_1N Target_4N DbiCJhA GbKliLd Congruent left correct Normal 360
100 155 LeftSmaller PercIExp Prime_4N Target_6N HfjEaFb KgFLfMe Incongruent right error Normal 650
100 156 LeftSmaller PercIExp Prime_6A Target_4N GEbCfJe EgmdIHL Incongruent left error Normal 389
100 157 LeftSmaller PercIExp Prime_6N Target_4N MbkLCFD lGFicLM Incongruent right correct Normal 619
100 158 LeftSmaller PercIExp Prime_4A Target_1N hDCLABK efFbmhH Congruent left correct Normal 941
100 159 LeftSmaller PercIExp Prime_4N Target_1A dCAGejk CgBLjEI Congruent right error Normal 625
100 160 LeftSmaller PercIExp Prime_6A Target_1A KmEeJAl hidHkEe Incongruent left error Normal 639
100 161 LeftSmaller PercIExp Prime_6A Target_6A hmjHicG JIDKiml Congruent right correct Normal 522
100 162 LeftSmaller PercIExp Prime_6A Target_1N LKAlCdc IiFehBJ Incongruent left error Normal 538
100 163 LeftSmaller PercIExp Prime_4N Target_9N CmEcIfj BfdLDHF Incongruent right error Normal 869
100 164 LeftSmaller PercIExp Prime_1A Target_9N IlGhaHK iljcbIL Incongruent right error Normal 1094
100 165 LeftSmaller PercIExp Prime_1A Target_6A MEBbFDG dljGLim Incongruent right error Normal 1153
100 166 LeftSmaller PercIExp Prime_4N Target_1N LCmHfAb aJiEfkl Congruent left correct Normal 1419
100 167 LeftSmaller PercIExp Prime_9A Target_4A CbILJcF GIBAbfl Incongruent left error Normal 2176
100 168 LeftSmaller PercIExp Prime_4A Target_6A hGdeHMK fdIgDGi Incongruent right error Normal 428
100 169 LeftSmaller PercIExp Prime_9A Target_9N EdiAIGD EdlaeCM Congruent right correct Normal 476
100 170 LeftSmaller PercIExp Prime_9N Target_4N MFkgAih deDiFBl Incongruent left error Normal 394
100 171 LeftSmaller PercIExp Prime_9N Target_1N AhLFajJ McFkdfB Incongruent right correct Normal 1221
100 172 LeftSmaller PercIExp Prime_1A Target_4N kgFCEMm jgmChei Congruent left correct Normal 1237
100 173 LeftSmaller PercIExp Prime_1N Target_4A hFfGbem gBMEFDH Congruent right error Normal 823
100 174 LeftSmaller PercIExp Prime_4A Target_9N kbmheLf jImJKAB Incongruent left correct Normal 1074
100 175 LeftSmaller PercIExp Prime_1A Target_1N cgjkGlA CcGAelg Congruent right error Normal 610
100 176 LeftSmaller PercIExp Prime_1N Target_6N fEaeBKL KJbHgGF Incongruent left correct Normal 926
100 177 LeftSmaller PercIExp Prime_6N Target_1A ibgJmaC CfEJjBK Incongruent right correct Normal 855
100 178 LeftSmaller PercIExp Prime_9A Target_1A BIDKAje dcfMIhB Incongruent left error Normal 531
100 179 LeftSmaller PercIExp Prime_4N Target_4A IbCKgAH cGJLABd Congruent right error Normal 401
100 180 LeftSmaller PercIExp Prime_9A Target_1N kbejCmK kAFlGEC Incongruent right correct Normal 325
100 181 LeftSmaller PercIExp Prime_9N Target_1A jdMhKlm mDlghcJ Incongruent right correct Normal 349
100 182 LeftSmaller PercIExp Prime_4A Target_1A FLkJjMC bcadGmI Congruent left correct Normal 247
100 183 LeftSmaller PercIExp Prime_6A Target_4A gFhJlEL kJHdFMC Incongruent right correct Normal 329
100 184 LeftSmaller PercIExp Prime_9N Target_9A fgBlCFI KmJHgGk Congruent left error Normal 137
100 185 LeftSmaller PercIExp Prime_6N Target_6N EdIaiHF gDLGkAl Congruent right correct Normal 429
100 186 LeftSmaller PercIExp Prime_6A Target_9N HaIBKlC IecLFEJ Congruent left error Normal 336
100 187 LeftSmaller PercIExp Prime_1N Target_9N FMBGELm CDJEfBd Incongruent right error Normal 354
100 188 LeftSmaller PercIExp Prime_6N Target_6A GDkgaHb lGLKHiJ Congruent right correct Normal 325
100 189 LeftSmaller PercIExp Prime_1A Target_1A hjdkaEK AJgIjGd Congruent right error Normal 238
100 190 LeftSmaller PercIExp Prime_1A Target_4A eJiChKD cmJlaKe Congruent left correct Normal 176
100 191 LeftSmaller PercIExp Prime_9N Target_6N HIfAmkB AMFGEeJ Congruent left error Normal 375
100 192 LeftSmaller PercIExp Prime_9A Target_4N djlkeEI fFBmIGi Incongruent right correct Normal 164
100 193 LeftSmaller PercIExp Prime_9N Target_4A gkfAlFJ KfjblJd Incongruent left error Normal 100
100 194 LeftSmaller PercIExp Prime_4A Target_4N IGFCKda cleAMEa Congruent right error Normal 156
100 195 LeftSmaller PercIExp Prime_1N Target_6A HemAaMc cfDIGCH Incongruent right error Normal 221
100 196 LeftSmaller PercIExp Prime_4N Target_4N LJgbfKc FElgHCB Congruent right error Normal 535
100 197 LeftSmaller PercIExp Prime_4N Target_6A geLHmlA mcdFJGK Incongruent left correct Normal 234
100 198 LeftSmaller PercIExp Prime_1N Target_1N BjfbKcE GAbgihC Congruent right error Normal 381
100 199 LeftSmaller PercIExp Prime_9A Target_6A FHgackM KbcLDfF Congruent left error Normal 1007
100 200 LeftSmaller PercIExp Prime_9N Target_9N jhgLlkC kgJbcfh Congruent right correct Normal 212
100 201 LeftSmaller PercIExp Prime_1N Target_1A AGiglkB lHFmMaC Congruent right error Normal 290
100 202 LeftSmaller PercIExp Prime_6A Target_6N DfBljmJ aBCjFLk Congruent left error Normal 345
100 203 LeftSmaller PercIExp Prime_6N Target_9A JBLMgfa ALDKihe Congruent right correct Normal 1312
100 204 LeftSmaller PercIExp Prime_1A Target_9A LCHiJcM DECAfFe Incongruent right error Normal 500
100 205 LeftSmaller PercIExp Prime_6A Target_9A FgKHkje hemkFdI Congruent right correct Normal 433
100 206 LeftSmaller PercIExp Prime_6N Target_4A lHgAJje hifBabI Incongruent right correct Normal 313
100 207 LeftSmaller PercIExp Prime_1A Target_6N HCjKmFB lDkIfLd Incongruent right error Normal 498
100 208 LeftSmaller PercIExp Prime_6N Target_9N iaDcmfb mHClJKk Congruent right correct Normal 533
100 209 LeftSmaller PercIExp Prime_9A Target_4A JeKdbBc fBKdFhe Incongruent left error Normal 824
100 210 LeftSmaller PercIExp Prime_6N Target_1N gihFlAD KgHfAIc Incongruent right correct Normal 556
100 211 LeftSmaller PercIExp Prime_9N Target_6N jKAikcE JlbadiC Congruent right correct Normal 459
100 212 LeftSmaller PercIExp Prime_1A Target_1N JcajMGe JmDGeAj Congruent left correct Normal 530
100 213 LeftSmaller PercIExp Prime_4N Target_4N FcCjamk iLJCDgl Congruent right error Normal 472
100 214 LeftSmaller PercIExp Prime_9N Target_1A IaAbgFB megaMFD Incongruent right correct Normal 307
100 215 LeftSmaller PercIExp Prime_6N Target_1A MiFeAHD AIdjfkM Incongruent right correct Normal 415
100 216 LeftSmaller PercIExp Prime_6A Target_4N aEdKHCg FKeaDbI Incongruent left error Normal 359
100 217 LeftSmaller PercIExp Prime_6A Target_6N BKcjdJI jILbkMF Congruent right correct Normal 345
100 218 LeftSmaller PercIExp Prime_4A Target_4N jJKbBMC KkLaIhi Congruent left correct Normal 945
100 219 LeftSmaller PercIExp Prime_6A Target_1N kHKbmgL EIdelKM Incongruent right correct Normal 268
100 220 LeftSmaller PercIExp Prime_1N Target_4A cgBGmJF ljaiECf Congruent right error Normal 412
100 221 LeftSmaller PercIExp Prime_1N Target_9N kDejBfa lHJfemC Incongruent right error Normal 293
100 222 LeftSmaller PercIExp Prime_9A Target_4N BFaAgCH EBmjDea Incongruent left error Normal 152
100 223 LeftSmaller PercIExp Prime_1N Target_6A chJkCaB iFEedaM Incongruent right error Normal 302
100 224 LeftSmaller PercIExp Prime_4A Target_6A eclkBiC lhcgJIF Incongruent left correct Normal 717
100 225 LeftSmaller PercIExp Prime_6N Target_9A BalmJLk haAemMF Congruent right correct Normal 1434
100 226 LeftSmaller PercIExp Prime_6N Target_6N aHcbkjA dmEaCjK Congruent right correct Normal 798
100 227 LeftSmaller PercIExp Prime_4A Target_1A fJLAbcM HkbalCF Congruent right error Normal 598
100 228 LeftSmaller PercIExp Prime_1N Target_1N JMfgmDc lmKcbfL Congruent right error Normal 1322
100 229 LeftSmaller PercIExp Prime_1A Target_4N MfKJkAl CDMaBgh Congruent left correct Normal 583
100 230 LeftSmaller PercIExp Prime_9N Target_4A EAFjLkb aBDCFGl Incongruent left error Normal 559
100 231 LeftSmaller PercIExp Prime_4N Target_6N hmdaHCG kIjgKBb Incongruent left correct Normal 425
100 232 LeftSmaller PercIExp Prime_1A Target_6A CbGijFE jkGJicD Incongruent right error Normal 639
100 233 LeftSmaller PercIExp Prime_4N Target_6A mbcBeKM MGdIikB Incongruent right error Normal 265
100 234 LeftSmaller PercIExp Prime_9A Target_9A LJKicAI EHahlid Congruent left error Normal 568
100 235 LeftSmaller PercIExp Prime_1N Target_4N ECGifbK IMbLhDE Congruent right error Normal 300
100 236 LeftSmaller PercIExp Prime_1N Target_1A AbajGch dblLDHa Congruent left correct Normal 326
100 237 LeftSmaller PercIExp Prime_6A Target_6A lMHLCBb CjGigbK Congruent right correct Normal 363
100 238 LeftSmaller PercIExp Prime_9N Target_6A EkAGhKi BFidHIb Congruent right correct Normal 287
100 239 LeftSmaller PercIExp Prime_9N Target_9A MhLkGBC GjMAFgD Congruent right correct Normal 759
100 240 LeftSmaller PercIExp Prime_9A Target_1A LAcegdE FHIfieg Incongruent left error Normal 649
100 241 LeftSmaller PercIExp Prime_9A Target_6N FHfEABI kJAfCij Congruent right correct Normal 1144
100 242 LeftSmaller PercIExp Prime_1A Target_9A EDAieHL fjdHaCF Incongruent left correct Normal 339
100 243 LeftSmaller PercIExp Prime_1N Target_9A AKCgcJB KhbGfId Incongruent right error Normal 1341
100 244 LeftSmaller PercIExp Prime_4N Target_9N chCimeM CjAmkLa Incongruent left correct Normal 801
100 245 LeftSmaller PercIExp Prime_9N Target_9N MKEfdmc IJlbmLa Congruent right correct Normal 609
100 246 LeftSmaller PercIExp Prime_4N Target_1A DAaGIiM GgjcFfC Congruent right error Normal 761
100 247 LeftSmaller PercIExp Prime_6N Target_4A CdEGDjL HaJfjEk Incongruent right correct Normal 496
100 248 LeftSmaller PercIExp Prime_4A Target_4A ldIkMJC HLafJce Congruent right error Normal 795
100 249 LeftSmaller PercIExp Prime_6A Target_1A IemMBki HBmCeDL Incongruent left error Normal 907
100 250 LeftSmaller PercIExp Prime_6A Target_9A LBjEDMF dgLCKhH Congruent right correct Normal 590
100 251 LeftSmaller PercIExp Prime_4N Target_4A AeKEIJm fkKdhIb Congruent left correct Normal 412
100 252 LeftSmaller PercIExp Prime_6N Target_6A HmFMabk icMECaL Congruent right correct Normal 475
100 253 LeftSmaller PercIExp Prime_1A Target_9N BCLeElh HeLaJbA Incongruent right error Normal 347
100 254 LeftSmaller PercIExp Prime_9A Target_1N dHCDGea kFmKdgl Incongruent right correct Normal 507
100 255 LeftSmaller PercIExp Prime_4A Target_9A gBAjILH lBfaCHD Incongruent left correct Normal 425
100 256 LeftSmaller PercIExp Prime_6A Target_4A mfKEdkF dbGBAIL Incongruent right correct Normal 523
100 257 LeftSmaller PercIExp Prime_4N Target_1N gEKALJH EaKDAeL Congruent right error Normal 435
100 258 LeftSmaller PercIExp Prime_4N Target_9A cHJBfDM jdEKDMC Incongruent left correct Normal 914
100 259 LeftSmaller PercIExp Prime_9N Target_4N iBemIgd cljgmMK Incongruent right correct Normal 946
100 260 LeftSmaller PercIExp Prime_1A Target_6N ekFdEcD dhEMGBL Incongruent left correct Normal 312
100 261 LeftSmaller PercIExp Prime_6N Target_9N aMHCefg bgLFEfk Congruent left error Normal 956
100 262 LeftSmaller PercIExp Prime_9N Target_1N JdkaMcH MLfBCaE Incongruent right correct Normal 1150
100 263 LeftSmaller PercIExp Prime_9A Target_6A DaCEFmi LKGacfe Congruent right correct Normal 554
100 264 LeftSmaller PercIExp Prime_9A Target_9N KJagiBE limafLF Congruent left error Normal 472
100 265 LeftSmaller PercIExp Prime_1A Target_1A eimfIDg dCKJGIF Congruent right error Normal 967
100 266 LeftSmaller PercIExp Prime_1A Target_4A hHfCadI ebMjLmD Congruent left correct Normal 1959
100 267 LeftSmaller PercIExp Prime_4A Target_9N bBjLAIC IifkJAm Incongruent right error Normal 484
100 268 LeftSmaller PercIExp Prime_4A Target_6N DkGbLHj AGjHFBf Incongruent right error Normal 640
100 269 LeftSmaller PercIExp Prime_4A Target_1N gFLjDhd HkEjIMB Congruent left correct Normal 344
100 270 LeftSmaller PercIExp Prime_6N Target_4N CcIJDEe hmDHbaC Incongruent right correct Normal 498
100 271 LeftSmaller PercIExp Prime_1N Target_6N bFAiemL dFEBDca Incongruent left correct Normal 327
100 272 LeftSmaller PercIExp Prime_6A Target_9N GMekLag lMBbKLG Congruent right correct Normal 238
101 17 LeftLarger PercIExp Prime_6A Target_4N lghJFGa mlkicGE Incongruent right error Normal 1922
101 18 LeftLarger PercIExp Prime_6N Target_1A AbmcKfk kbDEGgF Incongruent left correct Normal 1298
101 19 LeftLarger PercIExp Prime_1N Target_1A DFAJhId FiAmaIf Congruent left error Normal 2196
101 20 LeftLarger PercIExp Prime_9A Target_6A eLkMjfC MhgmeCi Congruent left correct Normal 1969
101 21 LeftLarger PercIExp Prime_4N Target_4A dgIGHFJ fidjGhA Congruent right correct Normal 996
101 22 LeftLarger PercIExp Prime_1A Target_6N kKJlHcd BfMkChc Incongruent right correct Normal 2182
101 23 LeftLarger PercIExp Prime_4N Target_6N jKcHMIL IFCGDmj Incongruent right correct Normal 918
101 24 LeftLarger PercIExp Prime_6A Target_4A KcmAGCF AJmHDkG Incongruent left correct Normal 3170
101 25 LeftLarger PercIExp Prime_1N Target_6A jikbdhJ aFgdHAB Incongruent right correct Normal 2455
101 26 LeftLarger PercIExp Prime_9A Target_9N LDdChfI CiDaGgF Congruent left correct Normal 2553
101 27 LeftLarger PercIExp Prime_9A Target_1A FfEdHkG daJgeML Incongruent right error Normal 2719
101 28 LeftLarger PercIExp Prime_4N Target_4N gAfcIJb edAKgfF Congruent left error Normal 1674
101 29 LeftLarger PercIExp Prime_9N Target_6A ejaFkMc jaDmGLe Congruent right error Normal 1521
101 30 LeftLarger PercIExp Prime_6A Target_9N cLgCmMB FaCiEhd Congruent right error Normal 2603
101 31 LeftLarger PercIExp Prime_9N Target_9N cAgmhCe dEDlKmI Congruent left correct Normal 1547
101 32 LeftLarger PercIExp Prime_1N Target_9N mghCKke iLJaBAG Incongruent right correct Normal 1628
101 33 LeftLarger PercIExp Prime_1A Target_6A HcBibLa KJdMEAl Incongruent left error Normal 1811
101 34 LeftLarger PercIExp Prime_1N Target_1N hcgdBiL CbgdGeB Congruent right correct Normal 1968
101 35 LeftLarger PercIExp Prime_9A Target_1N BKaIbGc mCcJgGL Incongruent left correct Normal 3813
101 36 LeftLarger PercIExp Prime_9N Target_6N EfbCDlL DmCHBGi Congruent left correct Normal 2232
101 37 LeftLarger PercIExp Prime_6N Target_9N IKhEGJL CkGhMfK Congruent right error Normal 1371
101 38 LeftLarger PercIExp Prime_4A Target_6A iKAeaID jKAaCEf Incongruent right correct Normal 2020
101 39 LeftLarger PercIExp Prime_6N Target_9A LbKGFlI hmFjDcg Congruent left correct Normal 1982
101 40 LeftLarger PercIExp Prime_4A Target_4A bHacmfL MDgbAmi Congruent left error Normal 1431
101 41 LeftLarger PercIExp Prime_6N Target_1N GgkaJBf JgGAMLC Incongruent right error Normal 2137
101 42 LeftLarger PercIExp Prime_6A Target_1A JakEdhj KFHeDac Incongruent left correct Normal 1315
101 43 LeftLarger PercIExp Prime_6N Target_4N FJELhAb GHIlKhj Incongruent left correct Normal 2191
101 44 LeftLarger PercIExp Prime_1A Target_1A kLiCaBf fLgImHA Congruent right correct Normal 1447
101 45 LeftLarger PercIExp Prime_9A Target_6N MiEjfhD bidjLcm Congruent right error Normal 1864
101 46 LeftLarger PercIExp Prime_1N Target_9A keKAmID FekfljE Incongruent left error Normal 1786
101 47 LeftLarger PercIExp Prime_6N Target_6A camDIFb jIafhDB Congruent left correct Normal 1570
101 48 LeftLarger PercIExp Prime_4N Target_9A FGKejag DAGjdKB Incongruent right correct Normal 1930
101 49 LeftLarger PercIExp Prime_4A Target_6N CFfAIbK bKceDga Incongruent left error Normal 2585
101 50 LeftLarger PercIExp Prime_1N Target_6N BcEMiIb LDaKmfF Incongruent right correct Normal 2033
101 51 LeftLarger PercIExp Prime_6N Target_4A FCIbhKH ELHdDmI Incongruent left correct Normal 1214
101 52 LeftLarger PercIExp Prime_4N Target_9N aEigJkl FdefkjC Incongruent right correct Normal 2631
101 53 LeftLarger PercIExp Prime_1A Target_9A AhbakCM glKDLec Incongruent left error Normal 1404
101 54 LeftLarger PercIExp Prime_9N Target_4A BcDdlgi hcEBIHi Incongruent right error Normal 1287
101 55 LeftLarger PercIExp Prime_1A Target_9N JCbfBad aCIHFdE Incongruent right correct Normal 2260
101 56 LeftLarger PercIExp Prime_4N Target_6A eKIjmiH keEFIdL Incongruent left error Normal 1445
101 57 LeftLarger PercIExp Prime_1A Target_4A DlJIeMb lBEdeAh Congruent right correct Normal 1900
101 58 LeftLarger PercIExp Prime_1N Target_4N ieHglCa cklaEDd Congruent left error Normal 2079
101 59 LeftLarger PercIExp Prime_9A Target_9A JMCFfdL gJidcIh Congruent right error Normal 4630
101 60 LeftLarger PercIExp Prime_6N Target_6N JGebMKd kgLcCEJ Congruent left correct Normal 1866
101 61 LeftLarger PercIExp Prime_4A Target_9A hKjaJAG kEelihf Incongruent right correct Normal 3423
101 62 LeftLarger PercIExp Prime_4A Target_4N CKdaihH CIfamAD Congruent left error Normal 1901
101 63 LeftLarger PercIExp Prime_6A Target_1N kGlaDhb EmKhcMH Incongruent right error Normal 1624
101 64 LeftLarger PercIExp Prime_4N Target_1N mIeKCFH kFGMAle Congruent right correct Normal 2818
101 65 LeftLarger PercIExp Prime_6A Target_6N gEBMFDC kjafiMA Congruent right error Normal 1735
101 66 LeftLarger PercIExp Prime_1N Target_4A gdcAmIK djiLGkc Congruent left error Normal 1521
101 67 LeftLarger PercIExp Prime_4A Target_9N jFiLIaH jbJaFeg Incongruent left error Normal 1615
101 68 LeftLarger PercIExp Prime_9N Target_4N hKBLfaH iJehLdk Incongruent right error Normal 1239
101 69 LeftLarger PercIExp Prime_9A Target_4A JCMBAEa BimKAgh Incongruent left correct Normal 1799
101 70 LeftLarger PercIExp Prime_9N Target_9A MfcKFID lIgDKhd Congruent right error Normal 2197
101 71 LeftLarger PercIExp Prime_6A Target_9A GHJmiCg dAJkaFG Congruent right error Normal 3025
101 72 LeftLarger PercIExp Prime_4N Target_1A BMhHIlJ jIAELDa Congruent left error Normal 905
101 73 LeftLarger PercIExp Prime_4A Target_1N AjJHbcG AKHDCGB Congruent left error Normal 2236
101 74 LeftLarger PercIExp Prime_1A Target_1N LfDijKg bjlcGkI Congruent right correct Normal 1550
101 75 LeftLarger PercIExp Prime_9N Target_1N EecMCAJ lIDeMKc Incongruent left correct Normal 2578
101 76 LeftLarger PercIExp Prime_6A Target_6A LfdMcEI KmFdMbI Congruent left correct Late 7461
101 77 LeftLarger PercIExp Prime_1A Target_4N LmElkBa AHILKBb Congruent right correct Normal 2973
101 78 LeftLarger PercIExp Prime_9A Target_4N eCcMKHD iKJIdHg Incongruent right error Normal 2065
101 79 LeftLarger PercIExp Prime_9N Target_1A LHAJhgD jCKdbHJ Incongruent left correct Normal 2182
101 80 LeftLarger PercIExp Prime_4A Target_1A aHhfDIk aKIEcAL Congruent right correct Normal 1453
101 81 LeftLarger PercIExp Prime_4A Target_1N GlgabEh iMEFLBf Congruent right correct Normal 920
101 82 LeftLarger PercIExp Prime_9N Target_4N McHbGAE gClfkKj Incongruent left correct Normal 1527
101 83 LeftLarger PercIExp Prime_9N Target_1N gcJHlae DJIhbMg Incongruent right error Normal 2183
101 84 LeftLarger PercIExp Prime_1N Target_4N lacJHKL adgIfej Congruent left error Normal 1763
101 85 LeftLarger PercIExp Prime_4A Target_9A JKefjBE LciHgbD Incongruent right correct Normal 2503
101 86 LeftLarger PercIExp Prime_1N Target_9N JHAlEmj djambil Incongruent left error Normal 3630
101 87 LeftLarger PercIExp Prime_4N Target_6N faIeLdK BDHbjkK Incongruent right correct Normal 2326
101 88 LeftLarger PercIExp Prime_1A Target_9A jlbBefa HaihlfM Incongruent right correct Normal 1171
101 89 LeftLarger PercIExp Prime_6A Target_9N EJHAedk CkeJDcF Congruent left correct Normal 814
101 90 LeftLarger PercIExp Prime_6N Target_6N bamAgdj gACMLBl Congruent right error Normal 771
101 91 LeftLarger PercIExp Prime_1A Target_9N fDlbajK ghfBaeA Incongruent left error Normal 1541
101 92 LeftLarger PercIExp Prime_6N Target_9N aHjgmDK EKDBfaJ Congruent left correct Late 8357
101 93 LeftLarger PercIExp Prime_4A Target_4A LhIjkac AgHEkbG Congruent left error Normal 999
101 94 LeftLarger PercIExp Prime_1N Target_1A GhKbmaB DfCAieG Congruent right correct Normal 1641
101 95 LeftLarger PercIExp Prime_9A Target_9A JIGakAf MbJBCKH Congruent left correct Normal 2207
101 96 LeftLarger PercIExp Prime_4N Target_9A lDamHdj gAKDCJj Incongruent right correct Normal 2085
101 97 LeftLarger PercIExp Prime_9A Target_4A lmIcGHa bgMAGJl Incongruent left correct Normal 2232
101 98 LeftLarger PercIExp Prime_6N Target_1A DAifjFI iEmfHbL Incongruent right error Normal 824
101 99 LeftLarger PercIExp Prime_9N Target_9N LBAldCk FGEiMmH Congruent right error Late 7634
101 100 LeftLarger PercIExp Prime_1A Target_4N DMAGFab BAmDEeG Congruent left error Normal 1567
101 101 LeftLarger PercIExp Prime_1A Target_1A MACLEBJ GaFkjBM Congruent right correct Normal 2100
101 102 LeftLarger PercIExp Prime_4N Target_4A lCmJeBd AJIClfK Congruent left error Normal 1780
101 103 LeftLarger PercIExp Prime_1N Target_9A lHaLCkA DakAFiI Incongruent left error Normal 2361
101 104 LeftLarger PercIExp Prime_4N Target_6A ihemIMf fChbBKE Incongruent right correct Normal 3800
101 105 LeftLarger PercIExp Prime_1N Target_4A KMFEDhb lAdiHKf Congruent left error Normal 2045
101 106 LeftLarger PercIExp Prime_6A Target_9A dlHGMmc DKEbHed Congruent right error Normal 1829
101 107 LeftLarger PercIExp Prime_4A Target_6N kKFmCGA aimFhgc Incongruent right correct Normal 2022
101 108 LeftLarger PercIExp Prime_4A Target_6A LHgFJAa aceLfKJ Incongruent left error Normal 948
101 109 LeftLarger PercIExp Prime_6A Target_6A bAachif LiDEFdK Congruent left correct Normal 1268
101 110 LeftLarger PercIExp Prime_9A Target_1A dcajKlg iemadKI Incongruent left correct Normal 2265
101 111 LeftLarger PercIExp Prime_6A Target_4N dbBclFH ckGgiEM Incongruent left correct Normal 2350
101 112 LeftLarger PercIExp Prime_9N Target_1A mfAGjMH ihdBDMm Incongruent right error Normal 2707
101 113 LeftLarger PercIExp Prime_9N Target_6A cbjmlDK dfCAIKh Congruent right error Normal 2252
101 114 LeftLarger PercIExp Prime_9A Target_1N eEfMjIb IkgBHGf Incongruent left correct Normal 1273
101 115 LeftLarger PercIExp Prime_4N Target_4N JElgCba FjGcJKf Congruent right correct Normal 1457
101 116 LeftLarger PercIExp Prime_4A Target_9N ECkahlI ecbChfl Incongruent right correct Normal 1825
101 117 LeftLarger PercIExp Prime_4N Target_1A EKldDCL KgFlIaJ Congruent right correct Normal 1681
101 118 LeftLarger PercIExp Prime_9A Target_6N jBmDhlL bhjEfeG Congruent left correct Normal 1210
101 119 LeftLarger PercIExp Prime_6N Target_6A LHKgfCI fFDGAgC Congruent left correct Normal 2885
101 120 LeftLarger PercIExp Prime_9N Target_9A HGCecKI LBDCFAl Congruent right error Normal 949
101 121 LeftLarger PercIExp Prime_1N Target_1N BcHgJIM EMeJiba Congruent right correct Normal 1705
101 122 LeftLarger PercIExp Prime_9A Target_6A iGlLIeg kKEaLcG Congruent left correct Normal 1623
101 123 LeftLarger PercIExp Prime_9A Target_9N bILKCEB HFjbIfc Congruent left correct Normal 2066
101 124 LeftLarger PercIExp Prime_1N Target_6N dIkLFBb fBleHDA Incongruent left error Normal 1579
101 125 LeftLarger PercIExp Prime_6N Target_4A jgMckBJ KLEAehJ Incongruent left correct Normal 2064
101 126 LeftLarger PercIExp Prime_4N Target_9N FcCjHBL gAekDdh Incongruent right correct Normal 1321
101 127 LeftLarger PercIExp Prime_9N Target_6N mjiABGf LiHalbd Congruent right error Normal 1589
101 128 LeftLarger PercIExp Prime_1A Target_6N cembKAB MLeBdHf Incongruent left error Normal 1199
101 129 LeftLarger PercIExp Prime_6N Target_1N kILEFmG JIkaGKc Incongruent right error Normal 1455
101 130 LeftLarger PercIExp Prime_4A Target_4N hEGiDjL KLmHjdI Congruent right correct Normal 1311
101 131 LeftLarger PercIExp Prime_1N Target_6A gfhFBCl jGHgbik Incongruent right correct Normal 1530
101 132 LeftLarger PercIExp Prime_4N Target_1N CGgAbmB DBMeJhL Congruent right correct Normal 1586
101 133 LeftLarger PercIExp Prime_1A Target_4A hLalIMe GBaIkdh Congruent left error Normal 1161
101 134 LeftLarger PercIExp Prime_6A Target_6N EhGgIAK GgaMcfk Congruent left correct Normal 1104
101 135 LeftLarger PercIExp Prime_9A Target_4N IEjDAdK CHMdlkm Incongruent right error Normal 1510
101 136 LeftLarger PercIExp Prime_6N Target_9A jblGcHd LgjHCbh Congruent left correct Normal 1161
101 137 LeftLarger PercIExp Prime_6A Target_1A ckCGeEB lHaJiBK Incongruent right error Normal 727
101 138 LeftLarger PercIExp Prime_6A Target_4A kIAbKli ljkfEmG Incongruent right error Normal 962
101 139 LeftLarger PercIExp Prime_1A Target_6A lIibcCg gjBdhEL Incongruent left error Normal 3816
101 140 LeftLarger PercIExp Prime_9N Target_4A IEaeljC fLCBiIA Incongruent right error Normal 1022
101 141 LeftLarger PercIExp Prime_6N Target_4N fgDIMbF gFLJhif Incongruent left correct Normal 2992
101 142 LeftLarger PercIExp Prime_1A Target_1N HJBKmkD MjdLibk Congruent right correct Normal 1189
101 143 LeftLarger PercIExp Prime_6A Target_1N MaedELK LDfbGej Incongruent right error Normal 2348
101 144 LeftLarger PercIExp Prime_4A Target_1A HABcIdG MdEhfeG Congruent right correct Normal 3457
101 145 LeftLarger PercIExp Prime_1N Target_9N HbIAkMK IDJHaFG Incongruent left error Normal 1373
101 146 LeftLarger PercIExp Prime_9N Target_1N IFbgijm jCacEgb Incongruent right error Normal 2764
101 147 LeftLarger PercIExp Prime_6N Target_4A FhjLJid jfMgcea Incongruent left correct Normal 1165
101 148 LeftLarger PercIExp Prime_4N Target_9A kIbKjEM CgcmEGH Incongruent left error Normal 1335
101 149 LeftLarger PercIExp Prime_6N Target_1A EBfakMd IdMcgEC Incongruent left correct Normal 1461
101 150 LeftLarger PercIExp Prime_6A Target_1A mcKCJBG HKMEdil Incongruent left correct Normal 1558
101 151 LeftLarger PercIExp Prime_9N Target_1A JGgbBLh GjKibId Incongruent left correct Normal 1181
101 152 LeftLarger PercIExp Prime_9A Target_6A LCFdkHB eLDjhFg Congruent right error Normal 1102
101 153 LeftLarger PercIExp Prime_9N Target_9N EgfDBhF HIECkLF Congruent left correct Normal 1916
101 154 LeftLarger PercIExp Prime_1N Target_1A kBmAIEM ckBjeKC Congruent left error Normal 2798
101 155 LeftLarger PercIExp Prime_4A Target_4N BdcMkCi lFakEjD Congruent right correct Normal 827
101 156 LeftLarger PercIExp Prime_9A Target_9A bJdhIDa adFKghG Congruent right error Normal 1520
101 157 LeftLarger PercIExp Prime_6A Target_4A gaBKhJL Mgbefmk Incongruent right error Normal 3750
101 158 LeftLarger PercIExp Prime_4N Target_4A aHLEfhk eAkGbBf Congruent left error Normal 1692
101 159 LeftLarger PercIExp Prime_4A Target_1N hHIJMKl cbHgJIm Congruent right correct Normal 1798
101 160 LeftLarger PercIExp Prime_1A Target_4N gfLKBdh FgbLGJf Congruent right correct Normal 1185
101 161 LeftLarger PercIExp Prime_6N Target_6A elHbDgf lHGJLED Congruent left correct Normal 2879
101 162 LeftLarger PercIExp Prime_4A Target_1A KlmbFCf EcjLdAH Congruent left error Normal 1981
101 163 LeftLarger PercIExp Prime_1N Target_4N eAEJMHi FDjmGJM Congruent right correct Late 5826
101 164 LeftLarger PercIExp Prime_1N Target_4A iLjkFBG MdKFBjG Congruent left error Normal 2477
101 165 LeftLarger PercIExp Prime_6A Target_1N hGBkbCl eJBkGKm Incongruent right error Normal 1624
101 166 LeftLarger PercIExp Prime_4N Target_1N MKHgBFd DiLKkGm Congruent left error Normal 1881
101 167 LeftLarger PercIExp Prime_1N Target_6A JGmkegc iMdBJlK Incongruent right correct Normal 739
101 168 LeftLarger PercIExp Prime_6N Target_9N HjIKDAl DbmeMBA Congruent left correct Normal 1433
101 169 LeftLarger PercIExp Prime_9A Target_6N MaEmIgc hBMHKAj Congruent right error Normal 1042
101 170 LeftLarger PercIExp Prime_9A Target_4A iGfLeca icafgFK Incongruent left correct Normal 2146
101 171 LeftLarger PercIExp Prime_9N Target_4A GHLKFBf HfiKbhd Incongruent right error Normal 1851
101 172 LeftLarger PercIExp Prime_1A Target_6A DKhaFIg MgILGhk Incongruent left error Late 5614
101 173 LeftLarger PercIExp Prime_4A Target_9A jIFJGdK FBbEjGm Incongruent left error Normal 1151
101 174 LeftLarger PercIExp Prime_4N Target_4N cgFHhLE jFEDHal Congruent left error Normal 167
101 175 LeftLarger PercIExp Prime_6A Target_6A MKIhCFG BdilKem Congruent right error Normal 1450
101 176 LeftLarger PercIExp Prime_6A Target_9A hMBdLGg JHeFKEC Congruent left correct Normal 1645
101 177 LeftLarger PercIExp Prime_1A Target_6N fLHeBic eFlDgEi Incongruent right correct Normal 1960
101 178 LeftLarger PercIExp Prime_1A Target_1A ilAgkHG MkgCmeH Congruent right correct Normal 1402
101 179 LeftLarger PercIExp Prime_4N Target_1A hDfCLgB dLclJfK Congruent right correct Normal 1042
101 180 LeftLarger PercIExp Prime_1N Target_6N BkhIKFM IDLMEBF Incongruent right correct Normal 1656
101 181 LeftLarger PercIExp Prime_4A Target_4A bDkldKL MbKGDEe Congruent right correct Normal 2489
101 182 LeftLarger PercIExp Prime_6A Target_4N cfjdMBe miACfFG Incongruent left correct Normal 2144
101 183 LeftLarger PercIExp Prime_1A Target_4A mEkDbIJ CIkfdAg Congruent right correct Normal 2574
101 184 LeftLarger PercIExp Prime_9N Target_4N CheMDmL gIEGLMK Incongruent left correct Normal 1501
101 185 LeftLarger PercIExp Prime_4A Target_6N IKblEGc bgjldiE Incongruent right correct Normal 1173
101 186 LeftLarger PercIExp Prime_1A Target_9A jEbHKdC AeCFdEB Incongruent left error Normal 1781
101 187 LeftLarger PercIExp Prime_9A Target_1A gjJGacD haMjJfc Incongruent left correct Normal 2114
101 188 LeftLarger PercIExp Prime_9N Target_6N BFfDCkb kJliBeb Congruent right error Normal 1343
101 189 LeftLarger PercIExp Prime_4A Target_6A jmfFecL lbcjMHh Incongruent left error Normal 1383
101 190 LeftLarger PercIExp Prime_4A Target_9N kbihaFE GhjfeME Incongruent right correct Normal 844
101 191 LeftLarger PercIExp Prime_9N Target_9A KjJHgGB LmaAMjc Congruent left correct Normal 1812
101 192 LeftLarger PercIExp Prime_6N Target_4N HfCdLKc fjMheJm Incongruent left correct Normal 1647
101 193 LeftLarger PercIExp Prime_9A Target_4N mgEDjbf leKgkhB Incongruent right error Normal 1637
101 194 LeftLarger PercIExp Prime_1N Target_1N LMajegH KEMfGeg Congruent left error Late 13049
101 195 LeftLarger PercIExp Prime_1A Target_1N AaifChL lJjhamL Congruent right correct Normal 2686
101 196 LeftLarger PercIExp Prime_1A Target_9N lIMhLDg MDbJadf Incongruent right correct Normal 767
101 197 LeftLarger PercIExp Prime_1N Target_9A AIfLHiB gCbMhle Incongruent right correct Normal 446
101 198 LeftLarger PercIExp Prime_9N Target_6A dhgecfj adeFCLG Congruent left correct Normal 105
101 199 LeftLarger PercIExp Prime_9A Target_1N FackDEg iBFmfLk Incongruent left correct Normal 340
101 200 LeftLarger PercIExp Prime_4N Target_6A lHJjMhc hbDAEmc Incongruent right correct Normal 1034
101 201 LeftLarger PercIExp Prime_6A Target_9N CdeGAJK gjdDeKF Congruent left correct Normal 991
101 202 LeftLarger PercIExp Prime_6A Target_6N ACkJfbH bFALamd Congruent left correct Normal 1374
101 203 LeftLarger PercIExp Prime_4N Target_6N heAEBHL gEdBjma Incongruent right correct Normal 1568
101 204 LeftLarger PercIExp Prime_6N Target_1N cMeaCkB cdCajhD Incongruent right error Normal 1254
101 205 LeftLarger PercIExp Prime_9A Target_9N hmifFHE MmejDBF Congruent right error Normal 3759
101 206 LeftLarger PercIExp Prime_6N Target_9A BkGDlbg dGMigBC Congruent right error Normal 1289
101 207 LeftLarger PercIExp Prime_4N Target_9N HFdGMEB GbjIMHl Incongruent left error Normal 2186
101 208 LeftLarger PercIExp Prime_6N Target_6N iAGKfFk diGhgDC Congruent right error Normal 680
101 209 LeftLarger PercIExp Prime_9A Target_9A dHJFbgh HiblDcE Congruent left correct Normal 1798
101 210 LeftLarger PercIExp Prime_4N Target_9N gfEKDGd ldFieCG Incongruent right correct Normal 1158
101 211 LeftLarger PercIExp Prime_6A Target_9A bFclChf lJjfdIg Congruent left correct Normal 1760
101 212 LeftLarger PercIExp Prime_1A Target_6A fbcKJlj eiDFmaB Incongruent left error Normal 2128
101 213 LeftLarger PercIExp Prime_9A Target_6N igJfDCM DkIKdEj Congruent left correct Normal 1819
101 214 LeftLarger PercIExp Prime_9A Target_4A DlfmBCj KBCifab Incongruent left correct Normal 1985
101 215 LeftLarger PercIExp Prime_1A Target_1N cigBCMH bIlkCEB Congruent left error Late 6358
101 216 LeftLarger PercIExp Prime_9A Target_9N gJEDGAI liEBdCF Congruent left correct Normal 1032
101 217 LeftLarger PercIExp Prime_6N Target_9A agIAhJE gMDKEkj Congruent right error Normal 1282
101 218 LeftLarger PercIExp Prime_1N Target_1N LHiDlCA JFmDALk Congruent left error Late 6393
101 219 LeftLarger PercIExp Prime_6A Target_1N lbhJDcF GlALJMd Incongruent left correct Late 9630
101 220 LeftLarger PercIExp Prime_6A Target_4N hJjDLIg gKeMGDk Incongruent right error Normal 1083
101 221 LeftLarger PercIExp Prime_1N Target_6N bBgHcIA JGbmFgL Incongruent right correct Normal 1420
101 222 LeftLarger PercIExp Prime_6N Target_1A hEFKJmg fdmcDgk Incongruent left correct Normal 1254
101 223 LeftLarger PercIExp Prime_4A Target_9A icBgDLF cakAiHD Incongruent right correct Normal 855
101 224 LeftLarger PercIExp Prime_6N Target_9N LEDcfBg kjKdmCF Congruent left correct Early 33
101 225 LeftLarger PercIExp Prime_6N Target_4A HBieagF hekBFmD Incongruent left correct Normal 3605
101 226 LeftLarger PercIExp Prime_9N Target_1N IfdkClG KALGCiD Incongruent right error Normal 2286
101 227 LeftLarger PercIExp Prime_4A Target_1A HfejFiD fHaLCeI Congruent left error Normal 1709
101 228 LeftLarger PercIExp Prime_9N Target_9A bIilfGd dfGhKHE Congruent right error Normal 1885
101 229 LeftLarger PercIExp Prime_4N Target_4N FaeKlAI bAedMBk Congruent left error Normal 2758
101 230 LeftLarger PercIExp Prime_6A Target_9N ckFCiaG hKcHJGf Congruent left correct Normal 1325
101 231 LeftLarger PercIExp Prime_1A Target_9A hlimcBC BdmJHMk Incongruent right correct Normal 2281
101 232 LeftLarger PercIExp Prime_6N Target_6A gbmlGkd CAhHDgJ Congruent right error Normal 2677
101 233 LeftLarger PercIExp Prime_9N Target_6N dihBklK fLJmBja Congruent right error Normal 2022
101 234 LeftLarger PercIExp Prime_1A Target_1A FaGkgfL MJIlkGK Congruent right correct Normal 1942
101 235 LeftLarger PercIExp Prime_4N Target_4A AFMEiGj IBAbcij Congruent left error Normal 1548
101 236 LeftLarger PercIExp Prime_1N Target_4N BgbCmfh cFGDghH Congruent right correct Normal 2217
101 237 LeftLarger PercIExp Prime_9N Target_6A DJgMdaf mEFfcJL Congruent left correct Normal 1419
101 238 LeftLarger PercIExp Prime_9N Target_1A LmbMckJ caIibHf Incongruent right error Normal 3084
101 239 LeftLarger PercIExp Prime_4A Target_9N aLelHGc HJiLeFI Incongruent left error Normal 1780
101 240 LeftLarger PercIExp Prime_1N Target_9N CgkGImE BfkAcDJ Incongruent right correct Normal 1707
101 241 LeftLarger PercIExp Prime_6N Target_4N DgLMGeF fjmBeHE Incongruent left correct Normal 1722
101 242 LeftLarger PercIExp Prime_4A Target_6N ebFfdEk DdAcakE Incongruent left error Normal 1526
101 243 LeftLarger PercIExp Prime_1A Target_4N BGJmlgc jBLaimc Congruent right correct Normal 1433
101 244 LeftLarger PercIExp Prime_9N Target_9N IFgGKkJ lKBEmih Congruent right error Normal 1725
101 245 LeftLarger PercIExp Prime_4N Target_6N gALebMI HdIDBlG Incongruent right correct Normal 1733
101 246 LeftLarger PercIExp Prime_4A Target_6A bFkAfEI hJBeCHl Incongruent left error Normal 1546
101 247 LeftLarger PercIExp Prime_9N Target_4N eBkdIbf gHfjkBA Incongruent left correct Normal 1556
101 248 LeftLarger PercIExp Prime_4N Target_1N GHCMglh kJmjELd Congruent right correct Normal 1280
101 249 LeftLarger PercIExp Prime_1A Target_4A gLMlmad JDjICHL Congruent left error Normal 1877
101 250 LeftLarger PercIExp Prime_6N Target_1N khjKMcl heDKLCb Incongruent left correct Normal 2029
101 251 LeftLarger PercIExp Prime_1N Target_9A jJBKgFh fLkMHaB Incongruent right correct Normal 1985
101 252 LeftLarger PercIExp Prime_9A Target_1A DFldbam ChlcGJi Incongruent right error Normal 2594
101 253 LeftLarger PercIExp Prime_6A Target_1A akcHBFi iLmIAel Incongruent right error Normal 1850
101 254 LeftLarger PercIExp Prime_4A Target_4N jmfAadL LaGJiKm Congruent left error Normal 1313
101 255 LeftLarger PercIExp Prime_4N Target_9A kidAbKL IeMBlkc Incongruent right correct Normal 1349
101 256 LeftLarger PercIExp Prime_9N Target_4A aGgejdf geiIKbL Incongruent right error Normal 1258
101 257 LeftLarger PercIExp Prime_1N Target_4A idCLIfJ eGMkEmH Congruent right correct Normal 1650
101 258 LeftLarger PercIExp Prime_4N Target_6A aIGdgcj JkedGma Incongruent right correct Normal 1770
101 259 LeftLarger PercIExp Prime_4A Target_4A dJejEFh MejHakd Congruent left error Normal 1552
101 260 LeftLarger PercIExp Prime_1A Target_6N IhebHmG fbCBhIM Incongruent left error Normal 1294
101 261 LeftLarger PercIExp Prime_9A Target_6A JefkiLI LDimeFa Congruent left correct Normal 1110
101 262 LeftLarger PercIExp Prime_9A Target_1N DiGBaMA HeGDEmk Incongruent left correct Normal 1152
101 263 LeftLarger PercIExp Prime_6N Target_6N gbLAkjE FKmMJkg Congruent right error Normal 1350
101 264 LeftLarger PercIExp Prime_1N Target_6A MjmJGIc bmAfhLg Incongruent left error Normal 1391
101 265 LeftLarger PercIExp Prime_6A Target_6A EIjBcmJ CMdBAHf Congruent left correct Normal 1084
101 266 LeftLarger PercIExp Prime_6A Target_6N hclBGJF fihEBeA Congruent right error Normal 1763
101 267 LeftLarger PercIExp Prime_1N Target_1A HLhKEIF IfFgljh Congruent right correct Normal 1710
101 268 LeftLarger PercIExp Prime_9A Target_4N JglGDhF eaIAFbL Incongruent left correct Normal 2130
101 269 LeftLarger PercIExp Prime_4N Target_1A AEDbecG jcCgaEm Congruent right correct Normal 1193
101 270 LeftLarger PercIExp Prime_1A Target_9N KJcLlaA FCGKMgd Incongruent left error Normal 1196
101 271 LeftLarger PercIExp Prime_4A Target_1N chDBIbA JlDfmca Congruent right correct Normal 1891
101 272 LeftLarger PercIExp Prime_6A Target_4A ljkCImd khGDJib Incongruent left correct Normal 1391
102 17 LeftSmaller PercIExp Prime_9N Target_9N IhcgfLd HMmgbei Congruent right correct Normal 1248
102 18 LeftSmaller PercIExp Prime_1N Target_6N IAlKDmc MelhkEG Incongruent left correct Normal 1493
102 19 LeftSmaller PercIExp Prime_6N Target_6A ChFHBiI iebmFBC Congruent left error Normal 1703
102 20 LeftSmaller PercIExp Prime_1N Target_1N KCJGgFd eMaIAbk Congruent right error Normal 861
102 21 LeftSmaller PercIExp Prime_9N Target_4N eglicEa BbHcFlh Incongruent right correct Normal 938
102 22 LeftSmaller PercIExp Prime_4A Target_1N iBhDmfK CEKBjmi Congruent right error Normal 817
102 23 LeftSmaller PercIExp Prime_6A Target_4N eHCFEMI AefJMCj Incongruent right correct Normal 732
102 24 LeftSmaller PercIExp Prime_4A Target_9A KbmLhHG KMeGjJm Incongruent right error Normal 966
102 25 LeftSmaller PercIExp Prime_4A Target_1A imdleaC iEfaBJd Congruent left correct Normal 1011
102 26 LeftSmaller PercIExp Prime_1A Target_6A MdfgaAl lDmakcj Incongruent right error Normal 1069
102 27 LeftSmaller PercIExp Prime_1A Target_9A MeGhFCj iflIGdA Incongruent left correct Normal 717
102 28 LeftSmaller PercIExp Prime_1A Target_9N jclEgIk IEkdBDm Incongruent left correct Normal 2568
102 29 LeftSmaller PercIExp Prime_4N Target_1N gDKHcEb IdHcljf Congruent right error Normal 1882
102 30 LeftSmaller PercIExp Prime_6A Target_1A KFIedgj EGegdiH Incongruent right correct Normal 840
102 31 LeftSmaller PercIExp Prime_4A Target_6A LdfgBEM IkJBjHh Incongruent right error Normal 925
102 32 LeftSmaller PercIExp Prime_1N Target_6A gJbekiH EDCFaBc Incongruent left correct Normal 809
102 33 LeftSmaller PercIExp Prime_9A Target_1A CAjiLmD aJGlEhj Incongruent right correct Normal 945
102 34 LeftSmaller PercIExp Prime_6A Target_6N mGCekMl MjlhgAE Congruent left error Normal 875
102 35 LeftSmaller PercIExp Prime_1N Target_9A mcKHBid EGAJjMK Incongruent left correct Normal 1358
102 36 LeftSmaller PercIExp Prime_6N Target_1A IEheaFi LFBblik Incongruent right correct Normal 2095
102 37 LeftSmaller PercIExp Prime_6A Target_4A AeEJliM KGBDHFj Incongruent right correct Normal 1827
102 38 LeftSmaller PercIExp Prime_4A Target_4A GcbdDCL MGDFkAb Congruent right error Normal 1404
102 39 LeftSmaller PercIExp Prime_4A Target_9N AMIGdEk lJdAhga Incongruent right error Normal 976
102 40 LeftSmaller PercIExp Prime_6N Target_1N IbcCAhl BhbeAcl Incongruent left error Normal 2019
102 41 LeftSmaller PercIExp Prime_9A Target_9A IchMjli gEhJCHM Congruent right correct Normal 1964
102 42 LeftSmaller PercIExp Prime_6N Target_9A bEkHdlK KBiAgcH Congruent right correct Normal 1665
102 43 LeftSmaller PercIExp Prime_9A Target_9N gmIFMcB hjdHAMG Congruent right correct Normal 956
102 44 LeftSmaller PercIExp Prime_9N Target_1A iCgKHEh bJmlLjG Incongruent left error Normal 1184
102 45 LeftSmaller PercIExp Prime_6N Target_9N AfIlgmi blDMkEK Congruent right correct Normal 2289
102 46 LeftSmaller PercIExp Prime_1A Target_6N eBCMAlL hEiAcCF Incongruent left correct Normal 1423
102 47 LeftSmaller PercIExp Prime_9N Target_6N HBGedCA cgHIjLB Congruent left error Normal 1214
102 48 LeftSmaller PercIExp Prime_1A Target_1A bLJmHgl BKbgAIF Congruent right error Normal 1094
102 49 LeftSmaller PercIExp Prime_4N Target_4N aIKCeBi LAlCGef Congruent right error Normal 1539
102 50 LeftSmaller PercIExp Prime_6A Target_9N KGLfIEF KiAekja Congruent left error Normal 1561
102 51 LeftSmaller PercIExp Prime_4N Target_9N HLjilGe GElHfea Incongruent right error Normal 2943
102 52 LeftSmaller PercIExp Prime_6A Target_6A cAHmldb CJAmhMI Congruent right correct Normal 1496
102 53 LeftSmaller PercIExp Prime_1N Target_4A ILKlDmE cFAhldI Congruent left correct Normal 940
102 54 LeftSmaller PercIExp Prime_6A Target_9A MHEDmLI gKGcAde Congruent left error Normal 1132
102 55 LeftSmaller PercIExp Prime_9A Target_6A AfBbHeJ AaBgFJk Congruent left error Normal 1473
102 56 LeftSmaller PercIExp Prime_1N Target_1A fgCMBbe LdgIajE Congruent right error Normal 1501
102 57 LeftSmaller PercIExp Prime_1N Target_4N BjlAiHd BikLIMa Congruent left correct Normal 1413
102 58 LeftSmaller PercIExp Prime_4N Target_1A HDcljbI AEHFCaM Congruent right error Normal 1215
102 59 LeftSmaller PercIExp Prime_9N Target_4A ljJdahK aFhDdGB Incongruent left error Normal 631
102 60 LeftSmaller PercIExp Prime_1N Target_9N icmkbKa hHckEdi Incongruent left correct Normal 897
102 61 LeftSmaller PercIExp Prime_1A Target_1N camLFDg BfKhCMG Congruent right error Normal 735
102 62 LeftSmaller PercIExp Prime_9A Target_4N jKGIcHb cmGKgje Incongruent left error Normal 1094
102 63 LeftSmaller PercIExp Prime_9A Target_4A FDLJeca mhdFkAb Incongruent right correct Normal 953
102 64 LeftSmaller PercIExp Prime_4A Target_4N aDAeLjJ CjkFELa Congruent left correct Normal 990
102 65 LeftSmaller PercIExp Prime_1A Target_4N LbCJIGf EIgABCj Congruent left correct Normal 1723
102 66 LeftSmaller PercIExp Prime_6N Target_4A iIdfmCE mIcjAJD Incongruent right correct Normal 1046
102 67 LeftSmaller PercIExp Prime_4N Target_4A adlDjiA hedHDCG Congruent left correct Normal 1111
102 68 LeftSmaller PercIExp Prime_9N Target_9A iAEceId KJbBfam Congruent right correct Normal 1131
102 69 LeftSmaller PercIExp Prime_9N Target_6A lMLjBgA kdhIADG Congruent right correct Normal 1068
102 70 LeftSmaller PercIExp Prime_1A Target_4A HIfDemk GiEBbHd Congruent left correct Normal 975
102 71 LeftSmaller PercIExp Prime_4A Target_6N kGKAeFE EIkjaGh Incongruent left correct Normal 1458
102 72 LeftSmaller PercIExp Prime_4N Target_9A JgDGdKf iLMgDlF Incongruent right error Normal 1342
102 73 LeftSmaller PercIExp Prime_4N Target_6A GBeLjHJ jFGfJkL Incongruent left correct Normal 1204
102 74 LeftSmaller PercIExp Prime_9N Target_1N BDGMbgh hLJkeDj Incongruent right correct Normal 975
102 75 LeftSmaller PercIExp Prime_9A Target_1N KcCAgli lieJBLI Incongruent left error Normal 911
102 76 LeftSmaller PercIExp Prime_6N Target_4N mKgLEkl lFehibM Incongruent right correct Normal 1642
102 77 LeftSmaller PercIExp Prime_6A Target_1N DICdEjL hKEAaCB Incongruent left error Normal 1328
102 78 LeftSmaller PercIExp Prime_6N Target_6N KhLlDkH ibBIJgE Congruent right correct Normal 1140
102 79 LeftSmaller PercIExp Prime_9A Target_6N bifdHaL dBIcMFj Congruent right correct Normal 903
102 80 LeftSmaller PercIExp Prime_4N Target_6N egmGhBb cDmKdaC Incongruent left correct Normal 971
102 81 LeftSmaller PercIExp Prime_4N Target_6N CIgaEmk gihBGLD Incongruent right error Normal 1737
102 82 LeftSmaller PercIExp Prime_4N Target_1N LKDACBc DiBdFma Congruent left correct Normal 1335
102 83 LeftSmaller PercIExp Prime_9A Target_1A lcMdkbE fidIcDA Incongruent right correct Normal 893
102 84 LeftSmaller PercIExp Prime_6N Target_4N BEiLCJm BIJFLgh Incongruent right correct Normal 1338
102 85 LeftSmaller PercIExp Prime_1N Target_4A IgeLjlC Ehcdiem Congruent right error Normal 791
102 86 LeftSmaller PercIExp Prime_6A Target_6A dAaCLbG kdHeKbE Congruent left error Normal 758
102 87 LeftSmaller PercIExp Prime_9N Target_9N kDLmKBc BHAGeac Congruent right correct Normal 729
102 88 LeftSmaller PercIExp Prime_9A Target_9N gchEHFJ ijaAEDb Congruent left error Normal 1356
102 89 LeftSmaller PercIExp Prime_6A Target_4N BlHfgCc aeHKDiL Incongruent right correct Normal 1360
102 90 LeftSmaller PercIExp Prime_4A Target_9A hdeCgKa MlCjAJf Incongruent left correct Normal 1182
102 91 LeftSmaller PercIExp Prime_1A Target_4N BgCemdD GaKijml Congruent right error Normal 1013
102 92 LeftSmaller PercIExp Prime_6N Target_6A fdACagL lAMbECI Congruent left error Normal 1062
102 93 LeftSmaller PercIExp Prime_6N Target_4A gbEmBkM gIAjHeE Incongruent left error Normal 1320
102 94 LeftSmaller PercIExp Prime_4N Target_9N mgJECkD CFeIDLG Incongruent left correct Normal 1282
102 95 LeftSmaller PercIExp Prime_9A Target_1N GHBfgiL BfCcJMg Incongruent right correct Normal 1301
102 96 LeftSmaller PercIExp Prime_4A Target_4A ACMiDlf bcLDCfa Congruent right error Normal 1896
102 97 LeftSmaller PercIExp Prime_9N Target_1N JDAdiaC GhAdKlk Incongruent right correct Normal 1270
102 98 LeftSmaller PercIExp Prime_9A Target_6N gIKLjhH LDhdFAH Congruent left error Normal 970
102 99 LeftSmaller PercIExp Prime_6A Target_1N ADlKEJL chbCaeB Incongruent left error Normal 1059
102 100 LeftSmaller PercIExp Prime_4A Target_6A iCDJEFj GJfEHjg Incongruent left correct Normal 988
102 101 LeftSmaller PercIExp Prime_6A Target_9N DJFAIMf mkjecfl Congruent left error Normal 1659
102 102 LeftSmaller PercIExp Prime_6N Target_9N MDAdhLc fCFlEde Congruent right correct Normal 969
102 103 LeftSmaller PercIExp Prime_1N Target_6N cFMBAIL jaAhkif Incongruent left correct Normal 1516
102 104 LeftSmaller PercIExp Prime_9N Target_6A mbICaHh emcGKIL Congruent left error Normal 906
102 105 LeftSmaller PercIExp Prime_6N Target_1A BambIME mhbdHEG Incongruent right correct Normal 867
102 106 LeftSmaller PercIExp Prime_9N Target_1A kdCJjIA dGjFfkl Incongruent left error Normal 1039
102 107 LeftSmaller PercIExp Prime_4A Target_9N LIKDEBH cjIghJm Incongruent right error Normal 1265
102 108 LeftSmaller PercIExp Prime_1N Target_4N HIgKjhC cBbFEgK Congruent right error Normal 1286
102 109 LeftSmaller PercIExp Prime_1A Target_9N KdhjLIi Lmlcgjh Incongruent left correct Normal 851
102 110 LeftSmaller PercIExp Prime_4N Target_4A mhMcELj chDbgFJ Congruent left correct Normal 1581
102 111 LeftSmaller PercIExp Prime_4A Target_1A jfaLFEm dCEKcka Congruent right error Normal 956
102 112 LeftSmaller PercIExp Prime_1A Target_6N FMjCgdI LaAKeGi Incongruent left correct Normal 1289
102 113 LeftSmaller PercIExp Prime_9A Target_9A ELkKjlB cCjIEHD Congruent right correct Normal 1803
102 114 LeftSmaller PercIExp Prime_6N Target_1N BFHCDkI lEhfmAF Incongruent right correct Normal 1163
102 115 LeftSmaller PercIExp Prime_1N Target_9A kaHdmKF kgdcjHE Incongruent left correct Normal 1080
102 116 LeftSmaller PercIExp Prime_4N Target_1A abGkmIc KFIiHjJ Congruent left correct Normal 1268
102 117 LeftSmaller PercIExp Prime_6N Target_9A cmkFDjb MakcflF Congruent right correct Normal 1547
102 118 LeftSmaller PercIExp Prime_9N Target_9A hFAblka eLjJiAh Congruent left error Normal 1067
102 119 LeftSmaller PercIExp Prime_9N Target_4N dcDKJLI BCedFjD Incongruent left error Normal 1362
102 120 LeftSmaller PercIExp Prime_9A Target_4A ifCkeJM KklHBjA Incongruent right correct Normal 1465
102 121 LeftSmaller PercIExp Prime_1A Target_1A CkFHAdl ceklEmH Congruent left correct Normal 1372
102 122 LeftSmaller PercIExp Prime_6A Target_6N lbAFHEL LalGHgE Congruent left error Normal 900
102 123 LeftSmaller PercIExp Prime_4A Target_1N dGIAicD mEBiFdc Congruent left correct Normal 1547
102 124 LeftSmaller PercIExp Prime_1N Target_9N jbmdFeH aHlJjfb Incongruent right error Normal 1397
102 125 LeftSmaller PercIExp Prime_1A Target_4A KCmIFgJ bKBJGDa Congruent right error Normal 1076
102 126 LeftSmaller PercIExp Prime_4N Target_6A agDmdEh ebdcGFj Incongruent left correct Normal 864
102 127 LeftSmaller PercIExp Prime_1A Target_6A IMgaGEJ cfCHEAL Incongruent left correct Normal 1318
102 128 LeftSmaller PercIExp Prime_6A Target_4A fbaFiEC mhejDic Incongruent right correct Normal 751
102 129 LeftSmaller PercIExp Prime_9A Target_4N AamjGbE cElgCGJ Incongruent right correct Normal 1173
102 130 LeftSmaller PercIExp Prime_6N Target_6N ehGcbHf cfkJAaF Congruent left error Normal 784
102 131 LeftSmaller PercIExp Prime_4N Target_9A JdEGelk IaejkEm Incongruent left correct Normal 1025
102 132 LeftSmaller PercIExp Prime_6A Target_1A acbFfeG hMGILbf Incongruent right correct Normal 1279
102 133 LeftSmaller PercIExp Prime_4A Target_4N FcKiMBe AmbkDKd Congruent left correct Normal 1242
102 134 LeftSmaller PercIExp Prime_1A Target_9A hjKeDgA cClMeDG Incongruent left correct Normal 1666
102 135 LeftSmaller PercIExp Prime_1N Target_1N EcCfLKD aCDhfGF Congruent right error Normal 888
102 136 LeftSmaller PercIExp Prime_1A Target_1N EdDIeGJ ekBCcEM Congruent right error Normal 1143
102 137 LeftSmaller PercIExp Prime_9N Target_4A efLhIMl CIFMbeG Incongruent left error Normal 1001
102 138 LeftSmaller PercIExp Prime_1N Target_6A KGACDJg laIgEhf Incongruent left correct Normal 1243
102 139 LeftSmaller PercIExp Prime_9A Target_6A cmeaMlb mEBkJel Congruent left error Normal 1232
102 140 LeftSmaller PercIExp Prime_4A Target_6N bGkgMEA gJidIKm Incongruent right error Normal 1468
102 141 LeftSmaller PercIExp Prime_4N Target_4N ElfgMAC MaEiJDb Congruent right error Normal 910
102 142 LeftSmaller PercIExp Prime_1N Target_1A lBkmAJg faMFGml Congruent left correct Normal 930
102 143 LeftSmaller PercIExp Prime_9N Target_6N JIDaKkH IkaeJhj Congruent left error Normal 1697
102 144 LeftSmaller PercIExp Prime_6A Target_9A cBEljeH JCdFAMK Congruent right correct Normal 947
102 145 LeftSmaller PercIExp Prime_1A Target_9N HjeEAFl hACKfdi Incongruent left correct Normal 1447
102 146 LeftSmaller PercIExp Prime_6N Target_9N fbgGHJD IlHfKJB Congruent right correct Normal 1448
102 147 LeftSmaller PercIExp Prime_4N Target_9N dGjJIFf IFjCgkc Incongruent left correct Normal 1448
102 148 LeftSmaller PercIExp Prime_1N Target_1N LMlIfJC LHGmehE Congruent left correct Normal 1408
102 149 LeftSmaller PercIExp Prime_9A Target_9A DEGicbJ JaAkCmB Congruent left error Normal 1511
102 150 LeftSmaller PercIExp Prime_6N Target_1N EeAgLBb EadDHiA Incongruent right correct Normal 1056
102 151 LeftSmaller PercIExp Prime_9N Target_4A bMldDJE IidcjMC Incongruent left error Normal 1510
102 152 LeftSmaller PercIExp Prime_4N Target_6A FGdmBIf BefFbAG Incongruent right error Normal 685
102 153 LeftSmaller PercIExp Prime_1N Target_6N ljACaec giGKlIa Incongruent left correct Normal 947
102 154 LeftSmaller PercIExp Prime_6N Target_4A echBJkL jmeHKBl Incongruent right correct Normal 626
102 155 LeftSmaller PercIExp Prime_4N Target_4A jaGIkcg gkEiIeM Congruent right error Normal 1700
102 156 LeftSmaller PercIExp Prime_9A Target_9N hjDCmJe IhejLaf Congruent left error Normal 1425
102 157 LeftSmaller PercIExp Prime_9N Target_9A HaMgEJc KCLFidI Congruent left error Normal 1885
102 158 LeftSmaller PercIExp Prime_4N Target_4N ElbkMch HLAJGKF Congruent right error Normal 1249
102 159 LeftSmaller PercIExp Prime_6A Target_9N BflIAge EfHIhej Congruent left error Normal 1813
102 160 LeftSmaller PercIExp Prime_4N Target_9A bAcGEKM bHhBIDm Incongruent left correct Normal 1610
102 161 LeftSmaller PercIExp Prime_9N Target_1N ahMGAeb jEDIbgh Incongruent right correct Normal 1403
102 162 LeftSmaller PercIExp Prime_9N Target_6N ihHMjbm cMEhjbd Congruent left error Normal 1404
102 163 LeftSmaller PercIExp Prime_4A Target_4N kbBeLgh kELcMIm Congruent right error Normal 1212
102 164 LeftSmaller PercIExp Prime_4A Target_6A IeELdAj GLbFMBD Incongruent left correct Normal 1207
102 165 LeftSmaller PercIExp Prime_4N Target_1A AMdhEIa jIEHakm Congruent right error Normal 1425
102 166 LeftSmaller PercIExp Prime_9N Target_9N HfkcBGK MmfLaFA Congruent left error Normal 1490
102 167 LeftSmaller PercIExp Prime_4A Target_1A cKjDdFC LDAkJmG Congruent right error Normal 1360
102 168 LeftSmaller PercIExp Prime_1A Target_4A dCAbJEa ckGHIMg Congruent right error Normal 1115
102 169 LeftSmaller PercIExp Prime_1N Target_1A JjmlkiH FlbcIDE Congruent left correct Normal 840
102 170 LeftSmaller PercIExp Prime_1A Target_6N jACiaGe bEJBmKG Incongruent right error Normal 931
102 171 LeftSmaller PercIExp Prime_6A Target_9A KbMJChB gCAlemj Congruent right correct Normal 793
102 172 LeftSmaller PercIExp Prime_4N Target_6N HhdbEle BaiChkA Incongruent right error Normal 2557
102 173 LeftSmaller PercIExp Prime_9A Target_4N aKidhEB MklIgAh Incongruent left error Normal 1406
102 174 LeftSmaller PercIExp Prime_6N Target_6N jKAghCf fegJDkK Congruent left error Normal 2023
102 175 LeftSmaller PercIExp Prime_9A Target_6N ijHbagI dcClhbK Congruent right correct Normal 1749
102 176 LeftSmaller PercIExp Prime_6A Target_6A GMehHBC HhIDfle Congruent left error Normal 2147
102 177 LeftSmaller PercIExp Prime_6N Target_1A GdCBlDA jmJbfiG Incongruent left error Normal 1309
102 178 LeftSmaller PercIExp Prime_4A Target_6N DdmFaKJ dhgBecF Incongruent right error Normal 1452
102 179 LeftSmaller PercIExp Prime_4A Target_4A HgMFicm DiIAdhe Congruent left correct Normal 2174
102 180 LeftSmaller PercIExp Prime_6A Target_1N BMaDdgb EFacMiA Incongruent right correct Normal 1543
102 181 LeftSmaller PercIExp Prime_1A Target_1N GhaIgJj CjgLfib Congruent left correct Normal 1409
102 182 LeftSmaller PercIExp Prime_1N Target_4A eDFaBEf mEMfAbG Congruent left correct Normal 1697
102 183 LeftSmaller PercIExp Prime_1N Target_4N mEidAhk dBgehlj Congruent right error Normal 2028
102 184 LeftSmaller PercIExp Prime_1A Target_1A JGcdihl jhgmkCG Congruent right error Normal 1893
102 185 LeftSmaller PercIExp Prime_9A Target_6A mjdgbKk amCBFgj Congruent left error Normal 1492
102 186 LeftSmaller PercIExp Prime_9N Target_6A KkMbmch fFLkICg Congruent right correct Normal 2097
102 187 LeftSmaller PercIExp Prime_4N Target_1N BCmAkhH FGdkeCc Congruent right error Normal 1433
102 188 LeftSmaller PercIExp Prime_1A Target_6A maLKeAH BJfLIgk Incongruent left correct Normal 1051
102 189 LeftSmaller PercIExp Prime_1N Target_6A mHEIMGK bMDiceH Incongruent left correct Normal 1422
102 190 LeftSmaller PercIExp Prime_9N Target_4N mahIKfc hEFJLAG Incongruent right correct Normal 1318
102 191 LeftSmaller PercIExp Prime_1N Target_9A JFCamlj ekFDfgi Incongruent right error Normal 1418
102 192 LeftSmaller PercIExp Prime_6A Target_1A bGEHFhl hAJeiIL Incongruent left error Normal 1735
102 193 LeftSmaller PercIExp Prime_4A Target_9N cbKkfFH LBClEie Incongruent right error Normal 1492
102 194 LeftSmaller PercIExp Prime_4A Target_9A kbCIDhj iFmDdAK Incongruent left correct Normal 1572
102 195 LeftSmaller PercIExp Prime_6N Target_4N gfBbjhA JdLfjAH Incongruent left error Normal 1813
102 196 LeftSmaller PercIExp Prime_9N Target_1A CKElIfg lakImCe Incongruent left error Normal 1595
102 197 LeftSmaller PercIExp Prime_6A Target_6N AGkbhEH AKhcbeM Congruent right correct Normal 1427
102 198 LeftSmaller PercIExp Prime_6N Target_9A miKhFBI kEdhmGM Congruent left error Normal 1863
102 199 LeftSmaller PercIExp Prime_1A Target_9A bDlKBJH khKiECA Incongruent right error Normal 1834
102 200 LeftSmaller PercIExp Prime_6N Target_6A BMeLIjc JAIcCfD Congruent left error Normal 1308
102 201 LeftSmaller PercIExp Prime_9A Target_1N GIFhHMf GMfgmIc Incongruent right correct Normal 1864
102 202 LeftSmaller PercIExp Prime_4A Target_1N dkDmfjh dFBHGCI Congruent right error Normal 1851
102 203 LeftSmaller PercIExp Prime_9A Target_1A mHEaFJd ecCKJaF Incongruent right correct Normal 1075
102 204 LeftSmaller PercIExp Prime_1N Target_9N ClKafGJ FBLdkhi Incongruent left correct Normal 1602
102 205 LeftSmaller PercIExp Prime_1A Target_4N gCLMDKe LeCgcmd Congruent right error Normal 1037
102 206 LeftSmaller PercIExp Prime_9A Target_4A CejMIhk CBHIblj Incongruent right correct Normal 1991
102 207 LeftSmaller PercIExp Prime_6A Target_4A cCifIja DjfcedL Incongruent right correct Normal 1713
102 208 LeftSmaller PercIExp Prime_6A Target_4N FmkDgEM jkLighb Incongruent left error Normal 1646
102 209 LeftSmaller PercIExp Prime_9N Target_9N DKkBlfm FJhibHm Congruent left error Normal 1379
102 210 LeftSmaller PercIExp Prime_1A Target_6N MBjkgeK IBibjfL Incongruent right error Normal 1023
102 211 LeftSmaller PercIExp Prime_4N Target_1A LIdjBAl eMdABmb Congruent left correct Normal 1490
102 212 LeftSmaller PercIExp Prime_6A Target_6N JdmMIBk AFlIhfE Congruent right correct Normal 1668
102 213 LeftSmaller PercIExp Prime_9A Target_9N GLdDCBM CIbgfiE Congruent left error Normal 1094
102 214 LeftSmaller PercIExp Prime_6A Target_9N hlacgiG bKiClJa Congruent right correct Normal 1374
102 215 LeftSmaller PercIExp Prime_4A Target_1N ldkjmIg EdbjLak Congruent right error Normal 1495
102 216 LeftSmaller PercIExp Prime_6N Target_4A mkhAJbH lBMLaAk Incongruent left error Normal 1719
102 217 LeftSmaller PercIExp Prime_9A Target_6A fFKADMC LkfeBbF Congruent left error Normal 1312
102 218 LeftSmaller PercIExp Prime_9A Target_1A lgbIKFf dMCBbeL Incongruent right correct Normal 1122
102 219 LeftSmaller PercIExp Prime_1N Target_9A cGHKLeM kKGMbfh Incongruent right error Normal 1181
102 220 LeftSmaller PercIExp Prime_1A Target_1N eEMGIKg bIadKLk Congruent left correct Normal 1004
102 221 LeftSmaller PercIExp Prime_6A Target_1N JlGChLf gICAaHE Incongruent left error Normal 1389
102 222 LeftSmaller PercIExp Prime_4N Target_4A jKmGfek MGHmeID Congruent right error Normal 922
102 223 LeftSmaller PercIExp Prime_6N Target_9A KLAChIf CjDhkKM Congruent left error Normal 2229
102 224 LeftSmaller PercIExp Prime_4A Target_4A DelaAKd KfAkmjg Congruent left correct Normal 1805
102 225 LeftSmaller PercIExp Prime_4A Target_4N bdhKeMj LflIMJE Congruent left correct Normal 3076
102 226 LeftSmaller PercIExp Prime_6N Target_6A lECiLgb DGBmadE Congruent left error Normal 1874
102 227 LeftSmaller PercIExp Prime_9A Target_1N MhKilfe afijgkl Incongruent left error Normal 1709
102 228 LeftSmaller PercIExp Prime_1N Target_1N FJAkGji dABgkEF Congruent right error Normal 1182
102 229 LeftSmaller PercIExp Prime_1A Target_9N gKaCMAB fkaGCgi Incongruent left correct Normal 1485
102 230 LeftSmaller PercIExp Prime_4A Target_1A miLgGcH iJeFchK Congruent right error Normal 1633
102 231 LeftSmaller PercIExp Prime_4N Target_6N MDBijGb leKgImJ Incongruent right error Normal 1428
102 232 LeftSmaller PercIExp Prime_1N Target_6A mHEaIJc aBieAMH Incongruent left correct Normal 1138
102 233 LeftSmaller PercIExp Prime_4A Target_9A blaIheG cIeALJB Incongruent left correct Normal 1285
102 234 LeftSmaller PercIExp Prime_4A Target_6N EFmhlBf JaBlmGD Incongruent left correct Normal 1440
102 235 LeftSmaller PercIExp Prime_4N Target_6A LDkKFGH mhaJflC Incongruent left correct Normal 1540
102 236 LeftSmaller PercIExp Prime_1N Target_9N JBAjeEf KaJeBdk Incongruent right error Normal 1517
102 237 LeftSmaller PercIExp Prime_6N Target_4N JEcIhFe HefCkFh Incongruent right correct Normal 1624
102 238 LeftSmaller PercIExp Prime_9A Target_6N faIFjkm iJLlfMj Congruent right correct Normal 1320
102 239 LeftSmaller PercIExp Prime_1A Target_4N JFklMLD JeAMLBE Congruent left correct Normal 933
102 240 LeftSmaller PercIExp Prime_9N Target_6A aLcBlbh meAMcCB Congruent left error Normal 1097
102 241 LeftSmaller PercIExp Prime_6A Target_4A GiELkIl aBMJLlb Incongruent right correct Normal 812
102 242 LeftSmaller PercIExp Prime_1N Target_1A HIAjaDg aBMegKf Congruent right error Normal 1568
102 243 LeftSmaller PercIExp Prime_4N Target_1N jmLgIFi DBhMGlj Congruent right error Normal 2099
102 244 LeftSmaller PercIExp Prime_9A Target_9A hbLaGiM dibJefB Congruent left error Normal 1266
102 245 LeftSmaller PercIExp Prime_6A Target_4N EJHAFCK kHgBDha Incongruent right correct Normal 1697
102 246 LeftSmaller PercIExp Prime_1A Target_9A eIKLkFm bjcEgmL Incongruent left correct Normal 976
102 247 LeftSmaller PercIExp Prime_1N Target_4N DIGfEca BFEagcl Congruent left correct Normal 1017
102 248 LeftSmaller PercIExp Prime_4A Target_9N AEaMLIg fkMjcIl Incongruent left correct Normal 1416
102 249 LeftSmaller PercIExp Prime_1A Target_6A dkAjMLG iDMKHIl Incongruent left correct Normal 1280
102 250 LeftSmaller PercIExp Prime_6A Target_6A haKdljc bAKIJLE Congruent right correct Normal 1179
102 251 LeftSmaller PercIExp Prime_9N Target_6N AmkHJBG lCgDGEH Congruent left error Normal 1398
102 252 LeftSmaller PercIExp Prime_1A Target_4A kDBFaLi fdFBGiK Congruent right error Normal 1084
102 253 LeftSmaller PercIExp Prime_1N Target_4A hkmCcEJ JiAGjDd Congruent left correct Normal 503
102 254 LeftSmaller PercIExp Prime_4N Target_4N kcBljfI gafeFIB Congruent right error Normal 1605
102 255 LeftSmaller PercIExp Prime_4A Target_6A hAbefgM aeDmGdI Incongruent left correct Normal 1399
102 256 LeftSmaller PercIExp Prime_6N Target_1A cKJfIMH gJCfjFD Incongruent right correct Normal 1301
102 257 LeftSmaller PercIExp Prime_9N Target_1A HiKdAcF CfGhagF Incongruent right correct Normal 1474
102 258 LeftSmaller PercIExp Prime_1N Target_6N jeBKHLl gdLDIBf Incongruent right error Normal 618
102 259 LeftSmaller PercIExp Prime_1A Target_1A EfMeFhL lhJgKjH Congruent right error Normal 1766
102 260 LeftSmaller PercIExp Prime_4N Target_9N jDCeHML gkBmdKJ Incongruent left correct Normal 843
102 261 LeftSmaller PercIExp Prime_9N Target_4A fjbFKiA FfKMLdD Incongruent left error Normal 1009
102 262 LeftSmaller PercIExp Prime_9A Target_4A aGADFkL lcBIihK Incongruent right correct Normal 925
102 263 LeftSmaller PercIExp Prime_9A Target_4N dIbcHMG LlHJjGD Incongruent left error Normal 978
102 264 LeftSmaller PercIExp Prime_9N Target_9A MfhJiHb fhFDEbj Congruent right correct Normal 1452
102 265 LeftSmaller PercIExp Prime_6A Target_9A JBdMDlA ghdBCEi Congruent left error Normal 1389
102 266 LeftSmaller PercIExp Prime_9N Target_4N MAJlKHm iAgHKlE Incongruent right correct Normal 1170
102 267 LeftSmaller PercIExp Prime_9N Target_1N JIgAMam EGeJhdk Incongruent right correct Normal 1040
102 268 LeftSmaller PercIExp Prime_6A Target_1A fGjebJM agmIjdM Incongruent left error Normal 1355
102 269 LeftSmaller PercIExp Prime_6N Target_9N EiBkLgJ dGFgIbl Congruent right correct Normal 1905
102 270 LeftSmaller PercIExp Prime_6N Target_1N AhicjMa cbKIGmC Incongruent right correct Normal 2002
102 271 LeftSmaller PercIExp Prime_6N Target_6N aDLAfkF fbhiAcd Congruent right correct Normal 2198
102 272 LeftSmaller PercIExp Prime_4N Target_9A ilkJjbA ILcidFg Incongruent left correct Normal 965
103 17 LeftSmaller PercIExp Prime_6A Target_1A eHjLbmi jdbLeaf Incongruent left error Normal 1083
103 18 LeftSmaller PercIExp Prime_6N Target_1N lHGCfAM GcADlJF Incongruent right correct Late 6520
103 19 LeftSmaller PercIExp Prime_6N Target_9A KdBbIeE HAlgKjL Congruent right correct Late 8630
103 20 LeftSmaller PercIExp Prime_6A Target_6A IfAaLlm MdIHFfL Congruent right correct Normal 2308
103 21 LeftSmaller PercIExp Prime_1A Target_9N cJlBdgH bflBCiA Incongruent left correct Normal 1394
103 22 LeftSmaller PercIExp Prime_4A Target_6A kMJfhdK kdbhcGg Incongruent right error Late 5351
103 23 LeftSmaller PercIExp Prime_1A Target_6A AdflEmC MedDihF Incongruent left correct Normal 1954
103 24 LeftSmaller PercIExp Prime_4N Target_4A hEHjKIB BfAICJF Congruent right error Late 8828
103 25 LeftSmaller PercIExp Prime_9A Target_1N FeJGjcE cCgkDlf Incongruent right correct Normal 2185
103 26 LeftSmaller PercIExp Prime_4N Target_6A jHaclAC EebMKkB Incongruent left correct Normal 1606
103 27 LeftSmaller PercIExp Prime_9N Target_1N MfFDKAb gbDfAKC Incongruent right correct Late 5493
103 28 LeftSmaller PercIExp Prime_6N Target_4N JhKcale bmMGAFK Incongruent left error Normal 2577
103 29 LeftSmaller PercIExp Prime_6N Target_6A fLblADc ejliDBL Congruent left error Late 5639
103 30 LeftSmaller PercIExp Prime_6A Target_1N hEcDeif gkfFImB Incongruent right correct Late 6872
103 31 LeftSmaller PercIExp Prime_1N Target_4N CkmKHMe GBFdbCJ Congruent right error Late 6461
103 32 LeftSmaller PercIExp Prime_1N Target_1A EMjdihH amDBjdi Congruent left correct Normal 1910
103 33 LeftSmaller PercIExp Prime_6A Target_9A MBDIKFi jMlgbJk Congruent left error Normal 3763
103 34 LeftSmaller PercIExp Prime_4A Target_1N ADLihcF aHIKiEJ Congruent left correct Normal 2883
103 35 LeftSmaller PercIExp Prime_9A Target_6N HaMjhmb BGehALd Congruent right correct Normal 2054
103 36 LeftSmaller PercIExp Prime_4A Target_4N beiMjlI HgJajLD Congruent right error Normal 4250
103 37 LeftSmaller PercIExp Prime_1A Target_1N JcHIjbL EamcgjM Congruent left correct Late 5922
103 38 LeftSmaller PercIExp Prime_4A Target_9A GCIAeMf eBbfilJ Incongruent right error Normal 1800
103 39 LeftSmaller PercIExp Prime_6N Target_1A FghefbI cmJhHeM Incongruent right correct Late 7294
103 40 LeftSmaller PercIExp Prime_4A Target_9N jedmGME CegBilI Incongruent left correct Normal 1650
103 41 LeftSmaller PercIExp Prime_9N Target_9A HEGADFh bKGdCjE Congruent left error Normal 3544
103 42 LeftSmaller PercIExp Prime_9A Target_9A hMEkBfg MGJlChf Congruent right correct Normal 1864
103 43 LeftSmaller PercIExp Prime_9A Target_4A KdmCelF dGLJBKa Incongruent right correct Normal 2384
103 44 LeftSmaller PercIExp Prime_1N Target_4A jMidkJb CcmDLjF Congruent left correct Normal 1757
103 45 LeftSmaller PercIExp Prime_9A Target_1A IHABKbF kcjblei Incongruent right correct Normal 1920
103 46 LeftSmaller PercIExp Prime_9A Target_9N AihfBCM JdBDhgA Congruent right correct Normal 3454
103 47 LeftSmaller PercIExp Prime_1A Target_6N kbIcMDm dMbcDhk Incongruent left correct Normal 2230
103 48 LeftSmaller PercIExp Prime_1N Target_6A jFmlBaG jLBlFDb Incongruent left correct Late 5242
103 49 LeftSmaller PercIExp Prime_6A Target_6N dBahgHl HiGkaEI Congruent left error Normal 3732
103 50 LeftSmaller PercIExp Prime_6N Target_4A eKLdGDB fLiajhm Incongruent right correct Normal 3327
103 51 LeftSmaller PercIExp Prime_9A Target_4N BelgIcD AaDIMmc Incongruent left error Late 5950
103 52 LeftSmaller PercIExp Prime_4A Target_4A hkGcCDb lgFBHja Congruent left correct Normal 2211
103 53 LeftSmaller PercIExp Prime_6N Target_6N iFleAbd miGAkIc Congruent left error Normal 3436
103 54 LeftSmaller PercIExp Prime_4A Target_6N bJcmleC cmLhaMe Incongruent right error Normal 3291
103 55 LeftSmaller PercIExp Prime_4N Target_1A KiGJLem eckhKfA Congruent left correct Normal 2396
103 56 LeftSmaller PercIExp Prime_4N Target_9N BHeKhgJ adhkLFG Incongruent left correct Late 6114
103 57 LeftSmaller PercIExp Prime_1A Target_4N gFEHDeC hILEHmA Congruent right error Normal 3413
103 58 LeftSmaller PercIExp Prime_1N Target_1N dFcABHJ iKJLbfg Congruent right error Late 5934
103 59 LeftSmaller PercIExp Prime_1A Target_4A HBFDEAf DiALHKJ Congruent left correct Normal 4943
103 60 LeftSmaller PercIExp Prime_9A Target_6A bIJGMdg gEdcALK Congruent right correct Normal 1997
103 61 LeftSmaller PercIExp Prime_1N Target_9N FegcKDl IfMBmed Incongruent left correct Normal 2831
103 62 LeftSmaller PercIExp Prime_9N Target_6N JelMjKg HJCheBj Congruent right correct Normal 3577
103 63 LeftSmaller PercIExp Prime_9N Target_9N dBfabKF EABbkFf Congruent left error Normal 2899
103 64 LeftSmaller PercIExp Prime_4N Target_6N FabDlhA LCkdihl Incongruent left correct Late 8111
103 65 LeftSmaller PercIExp Prime_9N Target_1A dCgfaKM KFDdgbl Incongruent right correct Normal 3446
103 66 LeftSmaller PercIExp Prime_4N Target_4N igdfheA HmEkgeI Congruent right error Late 6306
103 67 LeftSmaller PercIExp Prime_4N Target_1N hAEalgL EhdKAbC Congruent left correct Normal 3602
103 68 LeftSmaller PercIExp Prime_9N Target_4A cADJBkF KbIBgJk Incongruent left error Normal 4829
103 69 LeftSmaller PercIExp Prime_4A Target_1A HflAhkJ cjfbKIe Congruent right error Normal 3658
103 70 LeftSmaller PercIExp Prime_6A Target_9N JFDbAcG HFECLJj Congruent right correct Late 6217
103 71 LeftSmaller PercIExp Prime_4N Target_9A JcKHDaB BkGKICM Incongruent left correct Normal 3645
103 72 LeftSmaller PercIExp Prime_6N Target_9N kgfKEIG EdjilMD Congruent right correct Late 6344
103 73 LeftSmaller PercIExp Prime_6A Target_4N HcDhgCf aLibDhm Incongruent right correct Normal 1556
103 74 LeftSmaller PercIExp Prime_6A Target_4A gKBmLej agMKfDF Incongruent left error Normal 3288
103 75 LeftSmaller PercIExp Prime_1N Target_6N adfkbLh dkDMaJC Incongruent left correct Normal 4715
103 76 LeftSmaller PercIExp Prime_1N Target_9A EJmcgGi cjaFLMC Incongruent right error Normal 1982
103 77 LeftSmaller PercIExp Prime_1A Target_9A fjHMGbA hHIjDeg Incongruent left correct Normal 1966
103 78 LeftSmaller PercIExp Prime_1A Target_1A bcekIMB jCbLFmH Congruent left correct Normal 1834
103 79 LeftSmaller PercIExp Prime_9N Target_6A AJkhgjm GLadEDm Congruent left error Normal 4561
103 80 LeftSmaller PercIExp Prime_9N Target_4N iMIeFmf CHAgIcJ Incongruent right correct Normal 1650
103 81 LeftSmaller PercIExp Prime_6N Target_6A hEdmiIc aDbedBJ Congruent left error Normal 2110
103 82 LeftSmaller PercIExp Prime_6A Target_6N jKJDcLf dMFiDIH Congruent right correct Normal 2448
103 83 LeftSmaller PercIExp Prime_9A Target_4N bgAmGDJ EKlGLJD Incongruent right correct Normal 2791
103 84 LeftSmaller PercIExp Prime_4N Target_9N kjmicaK bECkaDe Incongruent right error Normal 2886
103 85 LeftSmaller PercIExp Prime_9N Target_6A FBMEGDC mMJafbg Congruent left error Normal 1618
103 86 LeftSmaller PercIExp Prime_4N Target_1N dfgjcCB kFhJmcE Congruent right error Late 6731
103 87 LeftSmaller PercIExp Prime_9A Target_9A ijbGHle kAMmKGd Congruent right correct Late 7765
103 88 LeftSmaller PercIExp Prime_1A Target_6N kbCJcfl AbMdHgl Incongruent left correct Normal 2481
103 89 LeftSmaller PercIExp Prime_6A Target_6A AKgBiJf AecmMfG Congruent left error Normal 1950
103 90 LeftSmaller PercIExp Prime_9N Target_1N ejKHGab dCfEhiM Incongruent left error Normal 2664
103 91 LeftSmaller PercIExp Prime_1N Target_6A kfCeblG eClkaBI Incongruent right error Normal 3572
103 92 LeftSmaller PercIExp Prime_6A Target_4N mgEdMei FEGkDeM Incongruent left error Late 5189
103 93 LeftSmaller PercIExp Prime_9N Target_4N jGcLMdi kCdgjDe Incongruent left error Normal 2611
103 94 LeftSmaller PercIExp Prime_9N Target_6N JELjmdg DfeBkMG Congruent left error Normal 3872
103 95 LeftSmaller PercIExp Prime_4N Target_9A ckbBLlh FMmdfhJ Incongruent right error Late 11892
103 96 LeftSmaller PercIExp Prime_6N Target_6N MKEIGfL ebhijdK Congruent left error Normal 2441
103 97 LeftSmaller PercIExp Prime_6A Target_9N dILcHih mdacFfe Congruent right correct Normal 2197
103 98 LeftSmaller PercIExp Prime_9A Target_6N CAGMmgB IiKHlec Congruent right correct Normal 3663
103 99 LeftSmaller PercIExp Prime_4A Target_9A dmLEcFB jaeCiLE Incongruent left correct Late 7713
103 100 LeftSmaller PercIExp Prime_9A Target_6A DACfaGm gKacDmi Congruent left error Late 6192
103 101 LeftSmaller PercIExp Prime_1A Target_6A GEKAhCL HAmlfCc Incongruent left correct Late 5369
103 102 LeftSmaller PercIExp Prime_4A Target_1N eHigdkE CaJKFiM Congruent left correct Late 5262
103 103 LeftSmaller PercIExp Prime_6N Target_9A GCFbHMB cDmbEfM Congruent right correct Normal 3138
103 104 LeftSmaller PercIExp Prime_4N Target_4A HleMgbI mHjeCIG Congruent right error Normal 2031
103 105 LeftSmaller PercIExp Prime_6N Target_1A aDHFbIe MgBhGfI Incongruent right correct Normal 4363
103 106 LeftSmaller PercIExp Prime_1A Target_1N dKkfbLE AhmjFIb Congruent left correct Normal 3081
103 107 LeftSmaller PercIExp Prime_4N Target_4N HeJmBaK GFcEjHf Congruent right error Normal 4269
103 108 LeftSmaller PercIExp Prime_6N Target_4A JbIFGkH aLAKIEG Incongruent left error Late 6276
103 109 LeftSmaller PercIExp Prime_1N Target_4N dfmGFCA JdFImbf Congruent right error Late 6066
103 110 LeftSmaller PercIExp Prime_6N Target_1N akebFKD MjkcCmB Incongruent right correct Late 6346
103 111 LeftSmaller PercIExp Prime_9A Target_1N GDbhEij hECaLbD Incongruent left error Normal 2503
103 112 LeftSmaller PercIExp Prime_9A Target_1A dgajAHf iGBFfEb Incongruent right correct Normal 2236
103 113 LeftSmaller PercIExp Prime_1N Target_6N IeiEfKC AcLlgKI Incongruent right error Normal 3286
103 114 LeftSmaller PercIExp Prime_4A Target_4N mGKhHBg CHlBKEc Congruent left correct Normal 2140
103 115 LeftSmaller PercIExp Prime_9N Target_1A alhibIK miCbKMk Incongruent right correct Normal 1947
103 116 LeftSmaller PercIExp Prime_4A Target_4A EBiAIel JLdfMch Congruent left correct Normal 3982
103 117 LeftSmaller PercIExp Prime_4A Target_9N MfKeEjh GEeAjab Incongruent right error Normal 3783
103 118 LeftSmaller PercIExp Prime_1N Target_9A cDbfJeC EkIJHMj Incongruent left correct Normal 2970
103 119 LeftSmaller PercIExp Prime_6A Target_1A DEaKfAi DBiGmkE Incongruent right correct Late 10449
103 120 LeftSmaller PercIExp Prime_9N Target_9N AhIgKDl ekHjgDh Congruent left error Late 5601
103 121 LeftSmaller PercIExp Prime_9A Target_9N gljibEA leGEKMA Congruent right correct Late 6435
103 122 LeftSmaller PercIExp Prime_4A Target_6A LkjgEiA FgmJaLh Incongruent left correct Normal 3602
103 123 LeftSmaller PercIExp Prime_4A Target_6N GKEHFeM jebJCmI Incongruent right error Normal 2846
103 124 LeftSmaller PercIExp Prime_1N Target_1A lFAJmcG BedbcFk Congruent left correct Normal 2658
103 125 LeftSmaller PercIExp Prime_4N Target_6N eKFCAIG mCBLeIG Incongruent right error Normal 3835
103 126 LeftSmaller PercIExp Prime_6N Target_9N kCFGMEI hmdJkac Congruent left error Normal 2161
103 127 LeftSmaller PercIExp Prime_6N Target_4N iDgemFK Igakicb Incongruent right correct Normal 2703
103 128 LeftSmaller PercIExp Prime_9A Target_4A FCJGkca LDmBjgM Incongruent left error Late 8804
103 129 LeftSmaller PercIExp Prime_6A Target_1N GeIBgAH EAleLJc Incongruent right correct Normal 1647
103 130 LeftSmaller PercIExp Prime_6A Target_9A DLdBEhb bhMjFel Congruent left error Normal 2377
103 131 LeftSmaller PercIExp Prime_9N Target_9A MCcGLhb jhBGfAd Congruent right correct Normal 2454
103 132 LeftSmaller PercIExp Prime_1A Target_4A dCELeHc aCcmKhM Congruent right error Normal 2867
103 133 LeftSmaller PercIExp Prime_1N Target_4A fdmgCGl GfdChEM Congruent left correct Late 5156
103 134 LeftSmaller PercIExp Prime_6A Target_4A aGkIMcm BGEhDIM Incongruent right correct Normal 2571
103 135 LeftSmaller PercIExp Prime_1A Target_4N FGikeMa lmKGcEd Congruent right error Normal 1531
103 136 LeftSmaller PercIExp Prime_4N Target_1A gaGEMdH ImjhfiE Congruent right error Normal 3033
103 137 LeftSmaller PercIExp Prime_1N Target_1N eLCMdfb iBgFjIa Congruent right error Normal 4651
103 138 LeftSmaller PercIExp Prime_4N Target_6A IbFKjDG GHDBJfm Incongruent right error Late 5437
103 139 LeftSmaller PercIExp Prime_1A Target_9A LhKmMGD LMGDFKj Incongruent right error Normal 4827
103 140 LeftSmaller PercIExp Prime_1A Target_1A GhdmIKM gDkHibA Congruent left correct Normal 2177
103 141 LeftSmaller PercIExp Prime_9N Target_4A LfJjGbM CDbKMel Incongruent right correct Normal 1451
103 142 LeftSmaller PercIExp Prime_1N Target_9N DmaKEIg blhjiFg Incongruent left correct Normal 1660
103 143 LeftSmaller PercIExp Prime_4A Target_1A GLJKCBA aDCFEhg Congruent left correct Normal 1521
103 144 LeftSmaller PercIExp Prime_1A Target_9N fCdjkHB iJAkEjf Incongruent right error Late 6380
103 145 LeftSmaller PercIExp Prime_9A Target_9N KebcgFj akdeIbL Congruent left error Normal 1195
103 146 LeftSmaller PercIExp Prime_1N Target_4N LbAjGlH lChLkgi Congruent left correct Normal 2648
103 147 LeftSmaller PercIExp Prime_9A Target_1A DfhlMmE hcfjdDE Incongruent left error Normal 3422
103 148 LeftSmaller PercIExp Prime_1A Target_9N dDKgifA EaKDMGf Incongruent right error Normal 1660
103 149 LeftSmaller PercIExp Prime_4N Target_9N DFgbhlE LadcfDG Incongruent left correct Normal 3420
103 150 LeftSmaller PercIExp Prime_1N Target_6A cEMKaFm AgaBMhl Incongruent right error Normal 1223
103 151 LeftSmaller PercIExp Prime_4A Target_4A deMgjJK HBkiGcd Congruent right error Normal 3216
103 152 LeftSmaller PercIExp Prime_6A Target_1N cIMBCaL hjKJdHM Incongruent left error Normal 1935
103 153 LeftSmaller PercIExp Prime_6N Target_9A MlEhegd cJEHGFi Congruent right correct Normal 1033
103 154 LeftSmaller PercIExp Prime_1A Target_6N aeGJAjd aJDeAkm Incongruent left correct Normal 1104
103 155 LeftSmaller PercIExp Prime_4A Target_4N fkEdDic GibKlLf Congruent right error Normal 2269
103 156 LeftSmaller PercIExp Prime_9A Target_4N aJhcbmg iCjebFa Incongruent right correct Normal 2276
103 157 LeftSmaller PercIExp Prime_1N Target_1N LmAMKEI khJCBde Congruent left correct Normal 1392
103 158 LeftSmaller PercIExp Prime_1N Target_4A fDgkJhj ceAhjdb Congruent right error Normal 2961
103 159 LeftSmaller PercIExp Prime_1A Target_4N GAjFkdm kdaijGB Congruent left correct Normal 2605
103 160 LeftSmaller PercIExp Prime_6N Target_4A KDfdEgl kjDGaKe Incongruent right correct Normal 3112
103 161 LeftSmaller PercIExp Prime_4A Target_9N DiMdkCF KiJgjbM Incongruent left correct Normal 1617
103 162 LeftSmaller PercIExp Prime_6N Target_6A GlHjemC jALBgME Congruent left error Normal 1074
103 163 LeftSmaller PercIExp Prime_4N Target_1N GkIHEAD FEhMmcH Congruent right error Normal 3271
103 164 LeftSmaller PercIExp Prime_9N Target_1N dhKLiBI KFLCEdG Incongruent right correct Late 5738
103 165 LeftSmaller PercIExp Prime_4A Target_9A lkcGIhF mLHbGIJ Incongruent right error Normal 2886
103 166 LeftSmaller PercIExp Prime_6A Target_4N ghLemDB kfIjheC Incongruent right correct Normal 1998
103 167 LeftSmaller PercIExp Prime_1A Target_1N KGgdimH aMjJglb Congruent left correct Normal 2515
103 168 LeftSmaller PercIExp Prime_6N Target_1N iALMhkf IJcCFbD Incongruent left error Normal 4666
103 169 LeftSmaller PercIExp Prime_4A Target_6A ekaDMCF fGakKMg Incongruent right error Normal 2262
103 170 LeftSmaller PercIExp Prime_6N Target_4N AdcgKBI gDEKChL Incongruent left error Normal 3364
103 171 LeftSmaller PercIExp Prime_9N Target_1A DMcHbLm EjCgDGm Incongruent left error Normal 4072
103 172 LeftSmaller PercIExp Prime_4N Target_4A iBhLecg HjbgGBA Congruent right error Late 5717
103 173 LeftSmaller PercIExp Prime_6A Target_9N chCgDMf eBHbcgG Congruent right correct Normal 1907
103 174 LeftSmaller PercIExp Prime_4N Target_6N fGHaDCl hLjcldm Incongruent left correct Normal 2021
103 175 LeftSmaller PercIExp Prime_9A Target_4A LAgjMlf jcJkfde Incongruent left error Normal 2486
103 176 LeftSmaller PercIExp Prime_9N Target_6A MbFHEcC IacFidk Congruent left error Normal 1464
103 177 LeftSmaller PercIExp Prime_6A Target_6A FeGLgbA kGhHfiB Congruent left error Normal 2528
103 178 LeftSmaller PercIExp Prime_4A Target_1A ImhMjFJ cgaKEFh Congruent right error Normal 2787
103 179 LeftSmaller PercIExp Prime_9N Target_6N KHEIkgA MGaBbfc Congruent left error Normal 1457
103 180 LeftSmaller PercIExp Prime_1N Target_9A LJmchlj dblcjGi Incongruent right error Normal 2604
103 181 LeftSmaller PercIExp Prime_9N Target_4N KCbjBmJ BmbgAlc Incongruent right correct Normal 2895
103 182 LeftSmaller PercIExp Prime_6A Target_4A LdgADec IkjLaFH Incongruent right correct Normal 1872
103 183 LeftSmaller PercIExp Prime_6A Target_1A jbGkeFL LjhaJAD Incongruent left error Normal 2672
103 184 LeftSmaller PercIExp Prime_1A Target_1A hIfemCd CfKLiBb Congruent right error Normal 1305
103 185 LeftSmaller PercIExp Prime_6A Target_6N iCGmkde lkadIJh Congruent right correct Normal 2331
103 186 LeftSmaller PercIExp Prime_9A Target_9A LEhCcJB CehLJAj Congruent left error Normal 3982
103 187 LeftSmaller PercIExp Prime_4N Target_9A djHDcEm mCacHEd Incongruent right error Late 6509
103 188 LeftSmaller PercIExp Prime_9N Target_9N MlmCajf EGKLaMe Congruent right correct Normal 1875
103 189 LeftSmaller PercIExp Prime_1N Target_1A iEcAFIb hDbjMgi Congruent left correct Normal 1296
103 190 LeftSmaller PercIExp Prime_6N Target_1A jbILJEG mcKJblE Incongruent right correct Normal 1840
103 191 LeftSmaller PercIExp Prime_4N Target_1A FHJdGEi aMCBemG Congruent right error Normal 1941
103 192 LeftSmaller PercIExp Prime_9N Target_4A bkgMmaA jGBdMEK Incongruent right correct Normal 2324
103 193 LeftSmaller PercIExp Prime_9A Target_6A ahfGKMH eDChiBf Congruent right correct Normal 2020
103 194 LeftSmaller PercIExp Prime_9A Target_6N hDaBFGM keBHjaE Congruent left error Normal 1422
103 195 LeftSmaller PercIExp Prime_4N Target_6A elGbjad CmBeaIi Incongruent left correct Normal 1400
103 196 LeftSmaller PercIExp Prime_1A Target_4A cafIjkC CJmFglj Congruent right error Normal 2348
103 197 LeftSmaller PercIExp Prime_1A Target_6A HcjhBmb BMmiEAj Incongruent left correct Normal 2419
103 198 LeftSmaller PercIExp Prime_6N Target_6N lbGEBkD JlmCkGj Congruent right correct Normal 4546
103 199 LeftSmaller PercIExp Prime_1N Target_6N GmigEFJ IDlJHdM Incongruent left correct Normal 1856
103 200 LeftSmaller PercIExp Prime_1N Target_9N CDLGhke JgFIMBi Incongruent right error Normal 2343
103 201 LeftSmaller PercIExp Prime_6A Target_9A CdIjKib Jgemibd Congruent right correct Normal 2129
103 202 LeftSmaller PercIExp Prime_6N Target_9N MjfGgFc IjGHmcJ Congruent right correct Late 5175
103 203 LeftSmaller PercIExp Prime_4A Target_1N fbJFDCk JIkhBGe Congruent right error Normal 3806
103 204 LeftSmaller PercIExp Prime_4A Target_6N EMGebdc lEbemGg Incongruent left correct Normal 3006
103 205 LeftSmaller PercIExp Prime_1A Target_9A GEBgaAk EJFHAdi Incongruent right error Normal 4261
103 206 LeftSmaller PercIExp Prime_9N Target_9A BEILFGC keGDFcb Congruent left error Normal 1903
103 207 LeftSmaller PercIExp Prime_9A Target_1N gfBibjI FDAmbLC Incongruent left error Normal 3340
103 208 LeftSmaller PercIExp Prime_4N Target_4N mlcedGf BfghACj Congruent right error Normal 3710
103 209 LeftSmaller PercIExp Prime_9A Target_6N mceDLAM lJcLAbH Congruent left error Normal 3270
103 210 LeftSmaller PercIExp Prime_4A Target_6A HBcMfml dBAJMIF Incongruent right error Normal 2857
103 211 LeftSmaller PercIExp Prime_1A Target_9N dAEKeLc GlBjigK Incongruent left correct Normal 2759
103 212 LeftSmaller PercIExp Prime_9N Target_9N JeljgMK KDfldaj Congruent left error Normal 3570
103 213 LeftSmaller PercIExp Prime_6A Target_6A cmGeHfA fhaFJGc Congruent left error Normal 1440
103 214 LeftSmaller PercIExp Prime_4N Target_1A GDJAEId AjdKhfC Congruent right error Normal 2793
103 215 LeftSmaller PercIExp Prime_1A Target_6A IgAhDkc FJjcidA Incongruent left correct Normal 3764
103 216 LeftSmaller PercIExp Prime_1N Target_9N ACeEIJj lKMfDHh Incongruent left correct Normal 1462
103 217 LeftSmaller PercIExp Prime_9A Target_1A aEldhHi AilGCkI Incongruent right correct Late 6666
103 218 LeftSmaller PercIExp Prime_9A Target_6A ekHdaIA CfbFBJm Congruent right correct Normal 3937
103 219 LeftSmaller PercIExp Prime_4A Target_1A cbEMFkl fKDBFML Congruent left correct Normal 2400
103 220 LeftSmaller PercIExp Prime_6N Target_4A mfECJbe blLDmKe Incongruent right correct Normal 4980
103 221 LeftSmaller PercIExp Prime_6N Target_4N EBKdkgJ FKHLJie Incongruent left error Late 6227
103 222 LeftSmaller PercIExp Prime_6N Target_9N lLBaEjK FJhGelC Congruent left error Normal 1879
103 223 LeftSmaller PercIExp Prime_4N Target_1N EIfcAad cdBHDkK Congruent right error Late 6167
103 224 LeftSmaller PercIExp Prime_4A Target_9N bCKlAGg fEaGlge Incongruent left correct Normal 2350
103 225 LeftSmaller PercIExp Prime_1A Target_4N kGAdhaK adhIMiA Congruent right error Normal 3230
103 226 LeftSmaller PercIExp Prime_9A Target_1N LeHmbKi LEiFfmD Incongruent right correct Normal 2059
103 227 LeftSmaller PercIExp Prime_9N Target_4A cBIAeKH aFDkEeK Incongruent left error Normal 2686
103 228 LeftSmaller PercIExp Prime_1N Target_1A AbmliJE DmLdCIG Congruent left correct Normal 1312
103 229 LeftSmaller PercIExp Prime_9A Target_4N KFacLgb AjJBghL Incongruent right correct Normal 2777
103 230 LeftSmaller PercIExp Prime_1A Target_9A jMgJkcm MaEbBIK Incongruent right error Normal 1820
103 231 LeftSmaller PercIExp Prime_6N Target_1A kILCAbG DFCIcJl Incongruent left error Normal 1451
103 232 LeftSmaller PercIExp Prime_6A Target_1A eIHjiFd mgIijGd Incongruent left error Normal 2923
103 233 LeftSmaller PercIExp Prime_9N Target_6A HFBJlLf CbkFlIA Congruent right correct Normal 2556
103 234 LeftSmaller PercIExp Prime_6A Target_4A EIgGkMD ImlAEMK Incongruent right correct Normal 3209
103 235 LeftSmaller PercIExp Prime_1N Target_4A KlJAdah hGgKmDk Congruent right error Normal 2494
103 236 LeftSmaller PercIExp Prime_9A Target_9N idDlCeb CjDAake Congruent right correct Normal 1761
103 237 LeftSmaller PercIExp Prime_4N Target_9N MmfCJcE AGhKDEi Incongruent right error Normal 1900
103 238 LeftSmaller PercIExp Prime_6A Target_9N FfibACG mHMcKhJ Congruent left error Normal 1102
103 239 LeftSmaller PercIExp Prime_6A Target_6N IjbHFlk fdKBGEJ Congruent left error Normal 1902
103 240 LeftSmaller PercIExp Prime_4A Target_9A LCDBacd AGMleKk Incongruent right error Normal 1985
103 241 LeftSmaller PercIExp Prime_6N Target_6N EJFgmId CJcBhjb Congruent right correct Normal 1269
103 242 LeftSmaller PercIExp Prime_4N Target_6A cliLGkD IaJhdmi Incongruent left correct Normal 1946
103 243 LeftSmaller PercIExp Prime_6N Target_1N FBIcjCh gMHIlCB Incongruent right correct Normal 2386
103 244 LeftSmaller PercIExp Prime_6A Target_1N gGLdFfK ibIDfmE Incongruent right correct Normal 4748
103 245 LeftSmaller PercIExp Prime_4A Target_1N FlHakIf KCaIbeA Congruent left correct Normal 1503
103 246 LeftSmaller PercIExp Prime_1N Target_6N lEdMLBF fChmKlk Incongruent right error Normal 2007
103 247 LeftSmaller PercIExp Prime_4N Target_4N ackLjGA iAJKjFf Congruent right error Late 5338
103 248 LeftSmaller PercIExp Prime_9N Target_1A GbcEfai DmLcAIK Incongruent left error Normal 3613
103 249 LeftSmaller PercIExp Prime_1A Target_4A FKjCiJl JEdLkmj Congruent right error Normal 920
103 250 LeftSmaller PercIExp Prime_1A Target_1A diEAkIc fAeikFB Congruent left correct Late 5303
103 251 LeftSmaller PercIExp Prime_1A Target_6N jhFIJkE bIfiMGF Incongruent left correct Normal 2656
103 252 LeftSmaller PercIExp Prime_9N Target_6N fHhdEIB BHcdFbm Congruent right correct Normal 1761
103 253 LeftSmaller PercIExp Prime_6A Target_9A McAkeDj KdIBmHM Congruent right correct Late 5645
103 254 LeftSmaller PercIExp Prime_4N Target_9A DlaLIhM MKiFaHL Incongruent left correct Normal 1728
103 255 LeftSmaller PercIExp Prime_9N Target_1N imCaAFe mKBihFk Incongruent left error Normal 2969
103 256 LeftSmaller PercIExp Prime_9A Target_9A FimalhE eCikMDh Congruent left error Normal 3037
103 257 LeftSmaller PercIExp Prime_4A Target_6N gfEhdbl khKdeFf Incongruent right error Normal 2197
103 258 LeftSmaller PercIExp Prime_4A Target_4A KHEbADc LHAbFCj Congruent left correct Normal 2716
103 259 LeftSmaller PercIExp Prime_1N Target_1N dkHJfcm AkBDIlc Congruent right error Normal 2205
103 260 LeftSmaller PercIExp Prime_1N Target_6A FEBijaK DhiaKkC Incongruent left correct Normal 3016
